"Time (s)","Linear Acceleration x (m/s^2)","Linear Acceleration y (m/s^2)","Linear Acceleration z (m/s^2)","Absolute acceleration (m/s^2)"
4.227499943E-3,6.521955687E0,7.289869934E-2,1.417593466E1,1.560443347E1
1.426450000E-2,6.828159753E0,-1.836611606E0,2.118793789E1,2.233664299E1
2.430249995E-2,5.646723983E0,-4.345830767E0,2.335021018E1,2.441319422E1
3.433950001E-2,3.528729157E0,-5.180466422E0,2.101171217E1,2.192672365E1
4.437649995E-2,1.374187333E0,-4.660768234E0,1.717029965E1,1.784461659E1
5.441450002E-2,-2.170264256E-1,-3.813013473E0,1.293572970E1,1.348774537E1
6.445149996E-2,-1.394429955E0,-2.796540813E0,8.578229059E0,9.129681769E0
7.448850002E-2,-2.145200751E0,-1.569837216E0,4.201948916E0,4.972187631E0
8.452649997E-2,-2.420405510E0,-3.049972552E-1,-1.071315157E-1,2.441897484E0
9.456349991E-2,-2.136190776E0,7.854015148E-1,-4.164719694E0,4.746056964E0
1.046005000E-1,-1.811485389E0,1.689845616E0,-7.077147644E0,7.498204872E0
1.146384999E-1,-1.736152202E0,2.067428982E0,-8.828123853E0,9.231698534E0
1.246755000E-1,-1.964733749E0,2.101287284E0,-9.905110810E0,1.031439805E1
1.347124999E-1,-2.276210833E0,1.980228285E0,-1.056870664E1,1.099090532E1
1.447505000E-1,-2.552383307E0,1.598864402E0,-1.119774308E1,1.159570947E1
1.547874999E-1,-2.735555524E0,1.332927187E0,-1.179916195E1,1.218524443E1
1.648245000E-1,-2.689715107E0,1.138502297E0,-1.221557960E1,1.255990206E1
1.748614999E-1,-2.568301182E0,8.248031967E-1,-1.238034245E1,1.267080701E1
1.848995000E-1,-2.299026815E0,6.541004600E-1,-1.222568125E1,1.245715272E1
1.949364999E-1,-1.590635908E0,5.948366636E-1,-1.206247728E1,1.218143306E1
2.049735000E-1,-9.043294957E-1,5.316146676E-1,-1.267482928E1,1.271816509E1
2.150114999E-1,-7.734443973E-1,6.397299774E-1,-1.342140996E1,1.345888985E1
2.250485000E-1,-6.714969499E-1,4.742471963E-1,-1.375195423E1,1.377650404E1
2.350854999E-1,-7.423972902E-1,1.156738593E-1,-1.343023808E1,1.345123894E1
2.451235000E-1,-9.114484808E-1,-3.188602178E-1,-1.249730079E1,1.253454974E1
2.551604999E-1,-1.055872661E0,-8.852064693E-1,-1.125602462E1,1.134004179E1
2.651975000E-1,-1.065052936E0,-1.132784597E0,-1.027496591E1,1.039194222E1
2.752355000E-1,-8.070954888E-1,-1.189956332E0,-9.602360694E0,9.709414509E0
2.852725000E-1,-3.679224502E-1,-1.139932525E0,-8.798079690E0,8.879246551E0
2.953095000E-1,1.265911956E-1,-8.739086254E-1,-7.428134950E0,7.480436515E0
3.053474999E-1,7.305596021E-1,-6.564360572E-1,-5.159288977E0,5.251941391E0
3.153845000E-1,1.165193009E0,-6.112954062E-1,-2.202451424E0,2.565569936E0
3.254214999E-1,1.310500484E0,-7.017554869E-1,1.033593600E0,1.810576707E0
3.354595000E-1,9.371174651E-1,-8.654846880E-1,4.320152135E0,4.504549629E0
3.454964999E-1,3.849293327E-1,-1.173019872E0,6.974677529E0,7.083097687E0
3.555335000E-1,-3.398646589E-1,-8.262919709E-1,8.444601470E0,8.491734829E0
3.655714999E-1,-5.640481861E-1,2.140340399E-1,9.868278029E0,9.886701785E0
3.756085000E-1,-4.691448383E-3,1.111359156E0,1.114870833E1,1.120396531E1
3.856454999E-1,3.889282800E-1,1.169225980E0,1.238164754E1,1.244281120E1
3.956825000E-1,2.102980345E-1,7.346403008E-1,1.360447575E1,1.362591950E1
4.057204999E-1,-1.433655965E-1,7.487187150E-1,1.363857321E1,1.365986137E1
4.157575000E-1,6.912989111E-1,9.604029782E-1,1.215370904E1,1.221117978E1
4.257944999E-1,2.948234544E0,6.338430738E-1,1.244276381E1,1.280297681E1
4.358325000E-1,5.090920992E0,-5.091223294E-1,1.743894646E1,1.817397964E1
4.458694999E-1,6.321451154E0,-2.358938118E0,2.328216964E1,2.424014762E1
4.559065000E-1,6.159248807E0,-3.474616393E0,2.406305593E1,2.508066916E1
4.659444999E-1,4.404462553E0,-3.491653132E0,2.066867006E1,2.141926362E1
4.759815000E-1,2.216823442E0,-3.261723948E0,1.739181089E1,1.783334616E1
4.860184999E-1,5.849974076E-1,-3.299558650E0,1.516233539E1,1.552822345E1
4.960565000E-1,-6.883787385E-1,-3.011601990E0,1.150443656E1,1.191199699E1
5.060934999E-1,-1.544923253E0,-2.010795336E0,5.640295554E0,6.184094087E0
5.161305000E-1,-1.836489253E0,-8.262704093E-1,-1.034240302E0,2.263861428E0
5.261685000E-1,-1.899892220E0,1.818006789E-1,-6.933938808E0,7.191811269E0
5.362055000E-1,-1.524567634E0,1.141733322E0,-1.063285059E1,1.080210041E1
5.462425000E-1,-1.230054199E0,1.525927111E0,-1.223228393E1,1.238831130E1
5.562804999E-1,-1.430708274E0,1.365358769E0,-1.296158609E1,1.311159199E1
5.663175000E-1,-1.941344301E0,1.090982560E0,-1.344594955E1,1.362910929E1
5.763544999E-1,-2.485357844E0,7.990345173E-1,-1.381433700E1,1.405885367E1
5.863925000E-1,-2.625329077E0,5.249609017E-1,-1.388353529E1,1.413932420E1
5.964294999E-1,-2.512668434E0,4.459862874E-1,-1.359208901E1,1.382958026E1
6.064665000E-1,-2.250219668E0,5.089263745E-1,-1.308106107E1,1.328294596E1
6.165044999E-1,-1.769867540E0,6.728668063E-1,-1.267281783E1,1.281348870E1
6.265415000E-1,-1.495136258E0,6.226229247E-1,-1.285729866E1,1.295890507E1
6.365784999E-1,-1.669535751E0,5.215815034E-1,-1.312856853E1,1.324457280E1
6.466165000E-1,-1.747574738E0,4.381796698E-1,-1.305280733E1,1.317656245E1
6.566534999E-1,-1.494489264E0,4.399799544E-1,-1.256927417E1,1.266545434E1
6.666905000E-1,-1.315253978E0,4.741438468E-1,-1.176630762E1,1.184908015E1
6.767284999E-1,-1.306895822E0,3.194764412E-1,-1.093642867E1,1.101887081E1
6.867655000E-1,-1.262304809E0,2.783064882E-1,-1.030997202E1,1.039068771E1
6.968024999E-1,-1.118439842E0,3.727260474E-1,-9.898429781E0,9.968387258E0
7.068395000E-1,-6.568963062E-1,6.072326146E-1,-9.645260546E0,9.686655522E0
7.168774999E-1,-1.971906967E-1,9.721596824E-1,-9.335159896E0,9.387714786E0
7.269145000E-1,-1.382205036E-1,1.119605411E0,-8.296744682E0,8.373087454E0
7.369514999E-1,-2.385563122E-1,9.838722400E-1,-6.255492223E0,6.336883828E0
7.469895000E-1,-2.388375632E-2,8.986419822E-1,-3.579188874E0,3.690355111E0
7.570265000E-1,4.314912591E-1,8.577572270E-1,-5.038107187E-1,1.084323479E0
7.670635000E-1,6.513703220E-1,7.833622252E-1,2.912181782E0,3.085245923E0
7.771015000E-1,8.361475991E-1,8.872495595E-1,6.435291765E0,6.549758369E0
7.871384999E-1,1.361873243E0,1.483724686E0,9.843499868E0,1.004741894E1
7.971755000E-1,2.047431066E0,1.807724460E0,1.311555029E1,1.339692133E1
8.072134999E-1,2.927420503E0,6.187833506E-1,1.692049256E1,1.718300766E1
8.172505000E-1,3.616166666E0,-1.716984736E0,2.137941550E1,2.175095641E1
8.272874999E-1,3.776733547E0,-3.595629491E0,2.513699532E1,2.567217952E1
8.373255000E-1,3.886446024E0,-5.161624355E0,2.768994347E1,2.843377917E1
8.473624999E-1,3.481141008E0,-7.004867873E0,3.031643555E1,3.130930822E1
8.573995000E-1,2.486060094E0,-8.150296488E0,3.145163505E1,3.258547491E1
8.674374999E-1,2.163081536E0,-7.770332136E0,2.911301308E1,3.020967584E1
8.774745000E-1,2.116010135E0,-6.275617170E0,2.392457047E1,2.482430144E1
8.875114999E-1,1.871963579E0,-4.285092815E0,1.723791217E1,1.786090379E1
8.975495000E-1,1.642426744E0,-2.285377806E0,1.028605223E1,1.066411683E1
9.075864999E-1,1.353186181E0,-5.395211995E-1,3.658977640E0,3.938313514E0
9.176235000E-1,1.147087325E0,9.181536292E-1,-2.243373747E0,2.681704903E0
9.276614999E-1,1.045897750E0,2.059681860E0,-7.112032717E0,7.477780476E0
9.376983750E-1,5.497270028E-1,2.649690624E0,-1.019322301E1,1.054631952E1
9.477353749E-1,-4.199006890E-1,2.597177072E0,-1.173788080E1,1.202911015E1
9.577733750E-1,-1.425609941E0,2.256437158E0,-1.256992087E1,1.285016665E1
9.678103749E-1,-2.023065572E0,1.913736380E0,-1.331366097E1,1.360179215E1
9.778473750E-1,-2.260591751E0,1.645580147E0,-1.387666598E1,1.415556667E1
9.878853749E-1,-2.275865409E0,1.483732726E0,-1.399064225E1,1.425198571E1
9.979223750E-1,-2.255920264E0,1.278360824E0,-1.354702803E1,1.379294570E1
1.007959375E0,-2.381028752E0,1.035528517E0,-1.300214004E1,1.325885601E1
1.017997375E0,-2.326545566E0,8.200765999E-1,-1.274011695E1,1.297674534E1
1.028034375E0,-1.948534622E0,7.427907347E-1,-1.252103815E1,1.269349919E1
1.038071375E0,-1.280387616E0,6.901131689E-1,-1.214332205E1,1.223012343E1
1.048109375E0,-6.445125613E-1,6.086083914E-1,-1.210704008E1,1.213944892E1
1.058146375E0,-1.288125528E-1,6.483798366E-1,-1.237437361E1,1.239201805E1
1.068183375E0,1.462693421E-1,6.758387268E-1,-1.269894085E1,1.271775340E1
1.078221375E0,2.164209099E-1,5.406587753E-1,-1.299974852E1,1.301278647E1
1.088258375E0,1.381664534E-1,5.056384121E-1,-1.321999794E1,1.323038569E1
1.098295375E0,-4.423186580E-2,4.160354602E-1,-1.317616253E1,1.318280323E1
1.108333375E0,-2.955220615E-1,2.837264185E-1,-1.276060091E1,1.276717548E1
1.118370375E0,-5.415372099E-1,-2.103009582E-2,-1.206184227E1,1.207401109E1
1.128407375E0,-8.542592765E-1,-2.837422426E-1,-1.075089652E1,1.078851447E1
1.138445375E0,-6.340442180E-1,-4.316413864E-1,-9.114052114E0,9.146270950E0
1.148482375E0,-6.211594489E-2,-3.373634394E-1,-6.798882744E0,6.807531054E0
1.158519375E0,2.778661380E-1,-4.209625433E-1,-3.440130392E0,3.476911872E0
1.168557375E0,4.355586920E-1,-9.468138298E-1,7.311276591E-1,1.273073233E0
1.178594375E0,1.205670377E-1,-1.422998720E0,5.029269705E0,5.228098654E0
1.188631375E0,-2.893719966E-1,-1.445090086E0,8.236238864E0,8.367057555E0
1.198669375E0,-1.756761773E-1,-7.711690995E-1,1.028771050E1,1.031806916E1
1.208706375E0,1.095864327E0,-3.584330770E-1,1.313436429E1,1.318487460E1
1.218743375E0,3.148049983E0,-1.276625371E0,1.789467026E1,1.821425856E1
1.228781375E0,5.327802224E0,-2.955384812E0,2.312882056E1,2.391782006E1
1.238818375E0,6.347656621E0,-4.001327147E0,2.693302842E1,2.795874431E1
1.248855375E0,6.004800453E0,-4.725918496E0,2.872760907E1,2.972654465E1
1.258893375E0,4.869221472E0,-5.868145176E0,3.082407912E1,3.175324077E1
1.268930375E0,3.330531059E0,-6.839965281E0,3.186607166E1,3.276162519E1
1.278967375E0,1.405551213E0,-6.655382132E0,2.913178265E1,2.991538811E1
1.289005375E0,-5.063723838E-1,-5.563968925E0,2.315133234E1,2.381592644E1
1.299042375E0,-1.652023486E0,-3.948747522E0,1.551352851E1,1.609320837E1
1.309079375E0,-2.463627251E0,-2.184172443E0,7.913779539E0,8.571346165E0
1.319117375E0,-2.818040733E0,-6.281061512E-1,1.932676097E0,3.474349983E0
1.329154375E0,-2.369063595E0,4.345132463E-1,-2.376234766E0,3.383453227E0
1.339191375E0,-1.736810452E0,1.369714360E0,-5.583672872E0,6.005833058E0
1.349229375E0,-1.394762077E0,2.160848046E0,-7.849361933E0,8.259970236E0
1.359266375E0,-1.066293642E0,2.391474511E0,-9.588626754E0,9.939713049E0
1.369303375E0,-9.195966489E-1,2.304874908E0,-1.106415291E1,1.133902932E1
1.379341375E0,-8.586729010E-1,2.090752502E0,-1.230588049E1,1.251172490E1
1.389378375E0,-8.859037498E-1,1.852296323E0,-1.322356825E1,1.338202467E1
1.399415375E0,-8.821047407E-1,1.667820324E0,-1.371788133E1,1.384702140E1
1.409453375E0,-7.868730397E-1,1.477321108E0,-1.383226690E1,1.393317101E1
1.419490375E0,-6.408676994E-1,1.325431349E0,-1.407151626E1,1.414832320E1
1.429527375E0,-3.944153072E-1,1.216169327E0,-1.446990226E1,1.452627629E1
1.439564375E0,-1.567582968E-1,1.119012430E0,-1.474331690E1,1.478655318E1
1.449602375E0,1.389438041E-1,9.797630361E-1,-1.473508519E1,1.476827601E1
1.459639375E0,2.580974876E-1,7.357898634E-1,-1.416941034E1,1.419084883E1
1.469676375E0,9.389166534E-2,4.525736144E-1,-1.361898620E1,1.362682735E1
1.479714375E0,-1.899932858E-1,1.802835457E-1,-1.356991403E1,1.357244143E1
1.489751375E0,-5.602117183E-1,-7.429421045E-2,-1.369319205E1,1.370484824E1
1.499789375E0,-1.001977851E0,-3.057191853E-1,-1.364265573E1,1.368281693E1
1.509826375E0,-1.379732102E0,-5.904546140E-1,-1.322196494E1,1.330686493E1
1.519863375E0,-1.599482745E0,-8.218519608E-1,-1.225364848E1,1.238489753E1
1.529900375E0,-1.614737839E0,-9.318456155E-1,-1.116673179E1,1.132129027E1
1.539938375E0,-1.373125041E0,-1.019988956E0,-1.036657658E1,1.050674830E1
1.549975375E0,-1.100311573E0,-7.928528409E-1,-9.700733081E0,9.795076493E0
1.560012375E0,-6.117041266E-1,-5.150065652E-1,-8.610662979E0,8.647712452E0
1.570050375E0,-3.569451068E-1,-7.632974316E-1,-5.949015092E0,6.008395239E0
1.580087375E0,-2.529871673E-1,-1.298182447E0,-1.746727622E0,2.190967265E0
1.590124375E0,-2.082385721E-1,-1.556802603E0,3.670506011E0,3.992444367E0
1.600162375E0,-7.356747463E-3,-1.466891137E0,8.875271122E0,8.995680143E0
1.610199375E0,1.566636157E0,-1.611421298E0,1.359477405E1,1.377929276E1
1.620237375E0,4.911461173E0,-2.355023114E0,1.941654262E1,2.016607825E1
1.630274375E0,8.700420663E0,-3.858872309E0,2.741002322E1,2.901547153E1
1.640311375E0,1.045157755E1,-5.764849434E0,3.550038516E1,3.745325499E1
1.650349375E0,1.025178638E1,-7.561419892E0,4.048417055E1,4.244104452E1
1.660386375E0,8.289415197E0,-8.548197759E0,4.164328048E1,4.331222574E1
1.670423375E0,5.928584921E0,-8.266540305E0,4.049619710E1,4.175435052E1
1.680461375E0,4.154155530E0,-7.211940583E0,3.624553795E1,3.718881709E1
1.690498375E0,2.502712964E0,-5.821582628E0,2.868644467E1,2.937799354E1
1.700535375E0,1.015172532E0,-4.188283096E0,2.004427397E1,2.050232205E1
1.710573375E0,-1.058638394E-2,-2.590004293E0,1.187033426E1,1.214961192E1
1.720610375E0,-7.306630978E-1,-1.099905849E0,4.379899569E0,4.574623665E0
1.730647375E0,-1.075012060E0,1.515095802E-2,-1.325591855E0,1.706773050E0
1.740685375E0,-9.641732629E-1,6.327814387E-1,-5.441614768E0,5.562482693E0
1.750722375E0,-7.473473968E-1,1.137751222E0,-8.996554654E0,9.098956073E0
1.760759375E0,-7.587550221E-1,1.493306372E0,-1.214730283E1,1.226224446E1
1.770797375E0,-6.276700951E-1,1.418319340E0,-1.495953874E1,1.503972736E1
1.780834375E0,-6.892254885E-1,1.318899863E0,-1.726430767E1,1.732832502E1
1.790871375E0,-1.167587663E0,1.148372250E0,-1.907073361E1,1.914092214E1
1.800909375E0,-1.696551788E0,6.073226617E-1,-2.006094789E1,2.014171688E1
1.810946375E0,-2.211396202E0,4.709932208E-2,-2.006306692E1,2.018462647E1
1.820983375E0,-1.717836968E0,-2.864707361E-1,-2.036667073E1,2.044099572E1
1.831021375E0,-1.051998588E0,-2.336018202E-1,-2.073325840E1,2.076124454E1
1.841058375E0,-6.937276983E-1,-4.847780317E-2,-2.068399912E1,2.069568621E1
1.851095375E0,-3.930446468E-1,-5.793421268E-3,-2.058360009E1,2.058735316E1
1.861133375E0,-1.199171837E-1,-1.295335145E-1,-2.038234360E1,2.038310795E1
1.871170375E0,9.800306194E-2,-3.956193951E-1,-1.996982254E1,1.997398137E1
1.881207375E0,2.108198255E-1,-6.068759345E-1,-1.922476331E1,1.923549499E1
1.891245375E0,2.031486440E-1,-7.497773534E-1,-1.815902054E1,1.817562826E1
1.901282375E0,-8.962473281E-2,-9.714327273E-1,-1.674471356E1,1.677310784E1
1.911319375E0,-5.615077537E-1,-1.231935102E0,-1.538644981E1,1.544589890E1
1.921357375E0,-9.250368252E-1,-1.454098160E0,-1.425849618E1,1.436227029E1
1.931394375E0,-1.476807284E0,-1.726008891E0,-1.278515220E1,1.298538345E1
1.941431292E0,-1.928863420E0,-1.800146907E0,-1.131136384E1,1.161499009E1
1.951469292E0,-2.113081118E0,-1.635833715E0,-1.009737662E1,1.044500255E1
1.961506292E0,-2.047618323E0,-1.287954497E0,-8.531180608E0,8.867503039E0
1.971543292E0,-1.218268112E0,-7.409794866E-1,-6.599637702E0,6.751921622E0
1.981581292E0,1.817131899E-2,-4.134284791E-2,-4.108097597E0,4.108345810E0
1.991618292E0,1.073885009E0,3.598984988E-2,-5.370433688E-2,1.075829186E0
2.001655292E0,1.807647716E0,-9.028168210E-1,6.729169316E0,7.025979516E0
2.011693292E0,2.051547652E0,-2.370687367E0,1.548747800E1,1.580161324E1
2.021730292E0,2.767640365E0,-4.505117108E0,2.438899610E1,2.495554135E1
2.031767292E0,4.011505103E0,-7.187879875E0,3.232420101E1,3.335583549E1
2.041805292E0,4.914374841E0,-9.739068012E0,3.688548998E1,3.846478775E1
2.051842292E0,4.938701012E0,-1.127677171E1,3.787515696E1,3.982566838E1
2.061879292E0,5.062059721E0,-1.191557066E1,3.610936332E1,3.836002336E1
2.071917292E0,4.919626810E0,-1.208015926E1,3.538184573E1,3.770952112E1
2.081954292E0,3.348735780E0,-1.162957165E1,3.748543535E1,3.939059319E1
2.091991292E0,1.206222482E0,-1.083734994E1,3.727208917E1,3.883441460E1
2.102029292E0,-1.027215457E-1,-9.297099200E0,3.200219952E1,3.332547643E1
2.112066292E0,-2.159220327E-1,-7.000683605E0,2.251944947E1,2.358350690E1
2.122103292E0,3.737374330E-1,-4.492071970E0,1.245664159E1,1.324712459E1
2.132141292E0,8.026645419E-1,-2.403492439E0,4.393616552E0,5.071973253E0
2.142178292E0,5.940098673E-1,-1.119578806E0,-1.826908736E0,2.223488241E0
2.152215292E0,-3.562508961E-1,-5.953385740E-1,-6.088409205E0,6.127811140E0
2.162253292E0,-1.592769265E0,-2.898745465E-1,-9.073111079E0,9.216413936E0
2.172290292E0,-2.380611115E0,1.317315560E-1,-1.105023186E1,1.130452505E1
2.182327292E0,-2.282867304E0,4.057641681E-1,-1.281085188E1,1.301898820E1
2.192365292E0,-1.568528463E0,3.742421208E-1,-1.518431156E1,1.526969732E1
2.202402292E0,-1.055884136E0,4.227333726E-1,-1.781499026E1,1.785125969E1
2.212439292E0,-8.350304885E-1,3.576007989E-1,-2.023605562E1,2.025643358E1
2.222477292E0,-7.957683358E-1,1.122183010E-1,-2.231367660E1,2.232814375E1
2.232514292E0,-1.207300928E0,-5.235830784E-2,-2.383071799E1,2.386133770E1
2.242551292E0,-1.598294737E0,-7.028259659E-1,-2.427480232E1,2.433751298E1
2.252589292E0,-1.226697897E0,-1.170002417E0,-2.444654206E1,2.450524662E1
2.262626292E0,-1.357807967E0,-1.474055584E0,-2.379996865E1,2.388419959E1
2.272663292E0,-8.829279555E-1,-2.074254437E0,-2.357445090E1,2.368199376E1
2.282701292E0,-9.146134324E-1,-2.366593585E0,-2.245063710E1,2.259354751E1
2.292738292E0,-1.558498295E0,-2.686256479E0,-2.074490138E1,2.097607742E1
2.302776292E0,-2.353960529E0,-3.262283819E0,-1.894855019E1,1.937088486E1
2.312813292E0,-2.974433579E0,-3.813083640E0,-1.728294509E1,1.794678391E1
2.322850292E0,-3.665924717E0,-4.116678678E0,-1.596714381E1,1.689188352E1
2.332888292E0,-4.275908885E0,-4.148087289E0,-1.497429478E1,1.611581612E1
2.342925292E0,-4.738913932E0,-4.120755064E0,-1.408020522E1,1.541720165E1
2.352962292E0,-4.913595992E0,-4.005503520E0,-1.316290923E1,1.460991661E1
2.363000292E0,-4.727705112E0,-3.624085550E0,-1.189070830E1,1.329940358E1
2.373037292E0,-4.394250391E0,-3.031359147E0,-1.074924293E1,1.200186645E1
2.383074292E0,-2.877287938E0,-2.227344483E0,-1.014784627E1,1.078047463E1
2.393112292E0,1.600561264E-1,-9.892790142E-1,-8.926862276E0,8.982937216E0
2.403149292E0,2.403036649E0,-1.027822014E-1,-5.821678523E0,6.298975325E0
2.413186292E0,3.109439064E0,-1.106877484E0,1.213216556E0,3.516487377E0
2.423224292E0,2.645339126E0,-4.273698930E0,1.269342342E1,1.365230090E1
2.433261292E0,2.013507860E0,-9.035422851E0,2.676370475E1,2.831940981E1
2.443298292E0,2.671160430E0,-1.314096697E1,4.064560048E1,4.280052510E1
2.453336292E0,3.119418799E0,-1.470352075E1,4.862217093E1,5.089243364E1
2.463373292E0,3.345355797E0,-1.386190293E1,4.805812044E1,5.012910031E1
2.473410292E0,3.460955250E0,-1.230361645E1,4.148512967E1,4.340936734E1
2.483448292E0,2.967732085E0,-1.038229038E1,3.546388918E1,3.707137471E1
2.493485292E0,1.724506741E0,-7.654371325E0,3.232787306E1,3.326642001E1
2.503522292E0,8.867674566E-1,-5.020438655E0,2.795813420E1,2.841915602E1
2.513560292E0,8.659067108E-1,-2.609790686E0,2.090133311E1,2.108142613E1
2.523597292E0,1.018210818E0,-2.634228393E-1,1.288510918E1,1.292796131E1
2.533634292E0,6.900984047E-1,1.374650287E0,6.455902031E0,6.636608340E0
2.543672292E0,-1.809561948E-1,2.041460620E0,2.818270821E0,3.484674594E0
2.553709292E0,-1.223913233E0,2.030910343E0,1.705036975E0,2.920566984E0
2.563746292E0,-2.389424915E0,1.593833019E0,1.717909035E0,3.346769573E0
2.573784292E0,-2.919867070E0,9.469049732E-1,1.728168560E0,3.522615407E0
2.583821292E0,-2.753927768E0,6.061069160E-1,5.383572382E-1,2.870768583E0
2.593858292E0,-2.191940908E0,6.524416050E-1,-1.913582014E0,2.981959274E0
2.603896292E0,-1.614657293E0,6.467251477E-1,-4.368191689E0,4.701751825E0
2.613933292E0,-9.054493837E-1,5.413083279E-1,-6.762439388E0,6.844226747E0
2.623971292E0,-4.304313782E-1,4.427434216E-1,-8.901419871E0,8.922811700E0
2.634008292E0,-2.077287680E-1,2.518043487E-1,-1.086111654E1,1.086602085E1
2.644045292E0,-4.165796167E-1,7.898053452E-2,-1.291815063E1,1.292510705E1
2.654083292E0,-9.153551517E-1,-2.530224699E-1,-1.511755975E1,1.514735977E1
2.664120292E0,-1.278381582E0,-5.872231503E-1,-1.752928477E1,1.758564515E1
2.674157292E0,-1.642237294E0,-7.030199473E-1,-2.004948501E1,2.012891029E1
2.684195292E0,-1.843187092E0,-7.316828522E-1,-2.257100554E1,2.265795643E1
2.694232292E0,-1.760174464E0,-8.062521011E-1,-2.421165005E1,2.428893276E1
2.704269292E0,-1.570271371E0,-1.066825081E0,-2.479649324E1,2.486905597E1
2.714307292E0,-1.429163440E0,-1.368852480E0,-2.448560146E1,2.456544207E1
2.724344292E0,-1.423702286E0,-1.819184564E0,-2.355487208E1,2.366787611E1
2.734381292E0,-1.616440986E0,-2.406183182E0,-2.243386962E1,2.262036925E1
2.744419292E0,-1.964949219E0,-2.991602758E0,-2.137416937E1,2.167177494E1
2.754456292E0,-2.513602234E0,-3.385323855E0,-2.004701748E1,2.048564189E1
2.764493292E0,-3.143941437E0,-3.563330641E0,-1.828434158E1,1.889176646E1
2.774531292E0,-3.685917225E0,-3.600561617E0,-1.648782316E1,1.727421032E1
2.784568292E0,-4.122828487E0,-3.498435318E0,-1.471268216E1,1.567481358E1
2.794605292E0,-4.633819002E0,-3.473492850E0,-1.289988159E1,1.414016889E1
2.804643292E0,-4.685977920E0,-3.422994249E0,-1.104536464E1,1.247699318E1
2.814680292E0,-3.062637073E0,-3.343236474E0,-8.968776287E0,1.004967283E1
2.824717292E0,2.565112111E-1,-3.212915193E0,-6.090604835E0,6.890869995E0
2.834755292E0,3.989683001E0,-3.587765863E0,-7.711530197E-1,5.420729777E0
2.844792292E0,7.336338927E0,-5.474319414E0,8.360762338E0,1.239727344E1
2.854830292E0,9.138558379E0,-9.719329566E0,2.106012712E1,2.493005356E1
2.864867292E0,1.147852404E1,-1.569001970E1,3.568035077E1,4.063275358E1
2.874904292E0,1.296986808E1,-2.031741378E1,4.763960013E1,5.339050741E1
2.884942292E0,1.269672125E1,-2.004212921E1,5.218973963E1,5.732942173E1
2.894979292E0,1.140040524E1,-1.722288366E1,4.897735887E1,5.315429092E1
2.905016292E0,9.045828556E0,-1.421201432E1,4.351681257E1,4.666391906E1
2.915054292E0,5.574928361E0,-1.125460959E1,3.856243401E1,4.055622492E1
2.925091292E0,3.043236304E0,-8.773030803E0,3.250956008E1,3.380974495E1
2.935128292E0,1.754292457E0,-6.447427077E0,2.415693649E1,2.506400683E1
2.945166625E0,9.271558562E-1,-4.108886679E0,1.513178836E1,1.570711898E1
2.955203625E0,5.487255210E-1,-1.840268601E0,7.776611461E0,8.010204369E0
2.965240625E0,5.444713792E-1,4.455658726E-2,2.368384879E0,2.430572218E0
2.975278625E0,9.228818339E-1,1.367158249E0,-1.808347335E0,2.447642262E0
2.985315625E0,1.321433169E0,2.449760726E0,-4.940054058E0,5.670242264E0
2.995352625E0,1.286931235E0,3.336985215E0,-7.497608058E0,8.306972308E0
3.005390625E0,1.147512271E0,3.806654919E0,-1.005298689E1,1.081064066E1
3.015427625E0,9.649307697E-1,3.780936818E0,-1.243482914E1,1.303271078E1
3.025464625E0,6.353210306E-1,3.764219336E0,-1.433807328E1,1.483756467E1
3.035502625E0,3.609975927E-1,3.799702579E0,-1.566260679E1,1.612095873E1
3.045539625E0,4.089133322E-1,3.687782194E0,-1.652290762E1,1.693438585E1
3.055576625E0,4.603412019E-1,3.462089025E0,-1.708214585E1,1.743552928E1
3.065614625E0,2.110890166E-1,3.057420479E0,-1.722027814E1,1.749086498E1
3.075651625E0,-3.976163654E-1,2.357735492E0,-1.699080650E1,1.715822021E1
3.085689625E0,-1.231773572E0,1.527840466E0,-1.654419851E1,1.666019408E1
3.095726625E0,-2.183036037E0,7.178965795E-1,-1.614037342E1,1.630314927E1
3.105763625E0,-2.999954336E0,-3.026007190E-2,-1.596161000E1,1.624110943E1
3.115801625E0,-3.559271796E0,-6.626734284E-1,-1.622414414E1,1.662318877E1
3.125838625E0,-4.168605169E0,-1.099989464E0,-1.711128136E1,1.764605326E1
3.135875625E0,-4.567653664E0,-1.289219981E0,-1.809066192E1,1.870287670E1
3.145913625E0,-4.532242633E0,-1.381814003E0,-1.854498823E1,1.914072156E1
3.155950625E0,-4.122055193E0,-1.375165426E0,-1.837710882E1,1.888387004E1
3.165987625E0,-3.504796211E0,-1.168865864E0,-1.769669874E1,1.807824633E1
3.176025625E0,-2.765197983E0,-9.466203600E-1,-1.668752078E1,1.694153947E1
3.186062625E0,-2.110153417E0,-7.525936648E-1,-1.560576015E1,1.576575069E1
3.196099625E0,-1.748174662E0,-4.480661421E-1,-1.469316884E1,1.480358363E1
3.206137625E0,-1.515530323E0,-5.821794882E-2,-1.404561075E1,1.412725744E1
3.216174625E0,-1.160668068E0,3.426678872E-1,-1.342492179E1,1.347935818E1
3.226211625E0,-6.513447404E-1,5.064611519E-1,-1.229079351E1,1.231845599E1
3.236249625E0,8.847802073E-2,2.906244885E-1,-1.044150397E1,1.044592246E1
3.246286625E0,1.695665496E0,-1.060789000E0,-6.849196866E0,7.135268214E0
3.256324625E0,4.447356557E0,-3.910037200E0,7.404843736E-1,5.967888099E0
3.266361625E0,7.698456992E0,-7.204991167E0,1.237591026E1,1.625857597E1
3.276398625E0,1.141982852E1,-1.121034617E1,2.518468755E1,2.983878066E1
3.286436625E0,1.600302233E1,-1.706282198E1,4.047004367E1,4.674463661E1
3.296473625E0,1.806843431E1,-2.161260479E1,5.306327622E1,6.007731925E1
3.306510625E0,1.579321253E1,-2.050103039E1,5.546896575E1,6.120885533E1
3.316548625E0,1.152920536E1,-1.771558642E1,5.124374434E1,5.543181318E1
3.326585625E0,7.958146457E0,-1.484661615E1,4.446362180E1,4.754753169E1
3.336622625E0,5.344422934E0,-1.141914205E1,3.408518356E1,3.634225364E1
3.346660625E0,3.353543068E0,-8.239071840E0,2.200810578E1,2.373784481E1
3.356697625E0,1.581471128E0,-5.101434871E0,1.113023113E1,1.234535271E1
3.366734625E0,-3.494607438E-1,-2.197748801E0,3.452675593E0,4.107699034E0
3.376772625E0,-1.749728121E0,-4.153360601E-1,-1.416768073E0,2.289385139E0
3.386809625E0,-2.139550733E0,8.203894991E-1,-3.629636897E0,4.292432908E0
3.396847625E0,-1.873928244E0,1.819711983E0,-5.117537518E0,5.745619985E0
3.406884625E0,-1.118120072E0,2.602377001E0,-6.729517225E0,7.301298558E0
3.416921625E0,-5.001604481E-1,3.089422291E0,-8.701062103E0,9.246792540E0
3.426959625E0,-4.431253910E-1,3.217549111E0,-1.073114813E1,1.121189202E1
3.436996625E0,-6.695873223E-1,3.154843571E0,-1.226846767E1,1.268529401E1
3.447033625E0,-8.298206194E-1,2.878317340E0,-1.318608642E1,1.352206301E1
3.457071625E0,-7.372587571E-1,2.528557073E0,-1.352411630E1,1.377820282E1
3.467108625E0,-3.719408029E-1,2.363063182E0,-1.359353210E1,1.380241003E1
3.477145625E0,-7.644181967E-2,2.351212776E0,-1.382797739E1,1.402665332E1
3.487183625E0,1.265776008E-3,2.169948945E0,-1.404658139E1,1.421320262E1
3.497220625E0,-4.352798894E-2,1.896014639E0,-1.439152034E1,1.451594378E1
3.507257625E0,-1.796190096E-1,1.583654040E0,-1.494908977E1,1.503381216E1
3.517295625E0,-3.421685350E-1,1.106393189E0,-1.524795500E1,1.529187094E1
3.527332625E0,-5.182742451E-1,6.654293673E-1,-1.523677278E1,1.526009991E1
3.537369625E0,-6.017876874E-1,3.363901703E-1,-1.525901793E1,1.527458461E1
3.547407625E0,-6.965602358E-1,4.692858338E-2,-1.572483519E1,1.574032529E1
3.557444625E0,-8.002084190E-1,-1.710477224E-1,-1.647881260E1,1.649911681E1
3.567482625E0,-9.050072611E-1,-4.299869898E-1,-1.719764357E1,1.722680676E1
3.577519625E0,-1.314136575E0,-6.806207259E-1,-1.781340917E1,1.787477960E1
3.587556625E0,-1.954686186E0,-9.252625278E-1,-1.817360233E1,1.830182315E1
3.597594625E0,-2.531298832E0,-1.147521188E0,-1.810343808E1,1.831553300E1
3.607631625E0,-2.766864440E0,-1.230119395E0,-1.724147429E1,1.750534685E1
3.617668625E0,-2.821442058E0,-1.047402238E0,-1.588607684E1,1.616864324E1
3.627706625E0,-2.839688002E0,-6.516977660E-1,-1.464873701E1,1.493566316E1
3.637743625E0,-2.866576424E0,-4.229686499E-1,-1.342921833E1,1.373827019E1
3.647780625E0,-2.665454717E0,-5.013821873E-1,-1.213982074E1,1.243910288E1
3.657818625E0,-1.855172130E0,-1.541463456E0,-8.645610033E0,8.975764372E0
3.667855625E0,9.488846943E-2,-3.737221279E0,2.145822895E-1,3.744579051E0
3.677893625E0,2.740033321E0,-6.051972281E0,1.321744738E1,1.479307494E1
3.687930625E0,6.167674060E0,-8.359161955E0,2.558974523E1,2.761794440E1
3.697967625E0,9.417253634E0,-1.258227955E1,3.632309542E1,3.957733803E1
3.708005625E0,1.129481622E1,-1.726608406E1,4.511928646E1,4.961290702E1
3.718042625E0,1.155553888E1,-1.811182416E1,4.852980363E1,5.307269066E1
3.728079625E0,1.113557081E1,-1.645078573E1,4.758637176E1,5.156638503E1
3.738117625E0,1.014858887E1,-1.383239437E1,4.577819750E1,4.888734352E1
3.748154625E0,8.128954736E0,-1.057749968E1,4.094213851E1,4.306067940E1
3.758191625E0,5.701249854E0,-8.000314237E0,3.170540889E1,3.319250263E1
3.768229625E0,3.277588906E0,-5.972529670E0,2.061362671E1,2.171025808E1
3.778266625E0,7.657088234E-1,-3.995773754E0,1.110557927E1,1.182735849E1
3.788304625E0,-4.585610171E-1,-1.878084006E0,4.149712231E0,4.577945974E0
3.798341625E0,-9.261241881E-1,-3.271354532E-2,-4.334184283E-1,1.023048250E0
3.808378625E0,-1.122123295E0,7.116374275E-1,-3.431511596E0,3.679790803E0
3.818416625E0,-1.079010020E0,8.710827392E-1,-5.818460215E0,5.981431855E0
3.828453625E0,-6.775002862E-1,1.028196400E0,-8.017496281E0,8.111500545E0
3.838490625E0,-5.889015935E-2,1.159101453E0,-1.021876715E1,1.028446335E1
3.848528625E0,6.205315950E-1,1.213427933E0,-1.225590317E1,1.233144879E1
3.858565625E0,1.209026588E0,1.147617082E0,-1.395138404E1,1.405061874E1
3.868602625E0,1.532501136E0,9.113372375E-1,-1.523720314E1,1.534116862E1
3.878640625E0,1.463635261E0,6.094197656E-1,-1.635513814E1,1.643180344E1
3.888677625E0,1.014978258E0,2.068765363E-1,-1.758758268E1,1.761806015E1
3.898714625E0,1.740934639E-1,-3.211425322E-1,-1.924179507E1,1.924526224E1
3.908752625E0,-5.532645683E-1,-8.197205776E-1,-2.051332357E1,2.053714896E1
3.918789625E0,-9.038741438E-1,-1.231837892E0,-2.114942813E1,2.120454487E1
3.928827625E0,-7.767129909E-1,-1.371577867E0,-2.151860496E1,2.157625705E1
3.938864792E0,-3.768241782E-1,-1.258353260E0,-2.160258968E1,2.164248901E1
3.948901792E0,-9.094708063E-2,-1.195886286E0,-2.152212966E1,2.155552088E1
3.958939792E0,6.868373394E-2,-1.211650087E0,-2.135239434E1,2.138685478E1
3.968976792E0,9.775645562E-2,-1.256027823E0,-2.085128094E1,2.088930538E1
3.979013792E0,7.541402534E-2,-1.267452551E0,-2.020640556E1,2.024625766E1
3.989051792E0,1.067708887E-2,-1.281017507E0,-1.932449575E1,1.936691137E1
3.999088792E0,-1.412663913E-1,-1.331842090E0,-1.811530325E1,1.816474529E1
4.009125792E0,-2.882861504E-1,-1.278312877E0,-1.672404366E1,1.677530414E1
4.019163792E0,-4.136834177E-1,-1.088309066E0,-1.542552207E1,1.546939824E1
4.029200792E0,-4.854837175E-1,-7.428367815E-1,-1.431067790E1,1.433816595E1
4.039238792E0,-4.538543008E-1,-3.638402165E-1,-1.311120347E1,1.312410073E1
4.049275792E0,-4.414431471E-1,-2.522088115E-1,-1.118787064E1,1.119941654E1
4.059312792E0,-6.493471123E-1,-6.115451189E-1,-8.169701058E0,8.218251303E0
4.069350792E0,-6.759697775E-1,-1.466726976E0,-3.958210071E0,4.275002939E0
4.079387792E0,-1.175942384E0,-3.450934292E0,2.838845419E0,4.620695975E0
4.089424792E0,-2.088284538E0,-6.778488241E0,1.173118924E1,1.370874306E1
4.099462792E0,-2.017085625E0,-9.432628303E0,2.027098221E1,2.244896058E1
4.109499792E0,3.096264410E-1,-1.100353015E1,2.726223134E1,2.940072791E1
4.119536792E0,5.231744750E0,-1.308308889E1,3.421978179E1,3.700718624E1
4.129574792E0,9.820330861E0,-1.556118215E1,4.105458748E1,4.498964816E1
4.139611792E0,1.128391233E1,-1.726159690E1,4.450967447E1,4.905507646E1
4.149649792E0,1.028816892E1,-1.747489982E1,4.425459085E1,4.867943462E1
4.159686792E0,7.809103854E0,-1.598416622E1,4.396721190E1,4.742985763E1
4.169723792E0,5.696536998E0,-1.336325940E1,4.189883187E1,4.434568014E1
4.179761792E0,4.243795100E0,-1.035976340E1,3.453940930E1,3.630847407E1
4.189798792E0,3.168051261E0,-7.431671346E0,2.315445475E1,2.452335749E1
4.199835792E0,1.896021802E0,-4.631440355E0,1.183360790E1,1.284832341E1
4.209873792E0,4.312597825E-1,-2.060537161E0,4.234019140E0,4.728500446E0
4.219910792E0,-5.621106747E-1,-5.530189122E-1,-2.273514390E-2,7.888695802E-1
4.229947792E0,-1.183826331E0,2.055895641E-2,-2.502931650E0,2.768850718E0
4.239985792E0,-1.475669123E0,-2.523782529E-2,-4.359613239E0,4.602658352E0
4.250022792E0,-1.365297081E0,-3.799218868E-1,-6.221663741E0,6.381024719E0
4.260060792E0,-8.680274959E-1,-5.090724818E-1,-8.503429137E0,8.562764368E0
4.270097792E0,-3.557215769E-2,-2.494860008E-1,-1.120456093E1,1.120739463E1
4.280134792E0,7.205739465E-1,6.118818820E-3,-1.379216553E1,1.381097731E1
4.290172792E0,1.209050854E0,1.603132577E-1,-1.643130982E1,1.647651197E1
4.300209792E0,1.442658960E0,3.726332594E-1,-1.888041961E1,1.893912260E1
4.310246792E0,1.571193039E0,3.585388385E-1,-2.050552105E1,2.056875279E1
4.320284792E0,1.643589609E0,2.062682797E-1,-2.127143146E1,2.133583206E1
4.330321792E0,1.446510374E0,1.019330487E-1,-2.138461016E1,2.143371956E1
4.340359792E0,1.414811887E0,-2.473597339E-1,-2.109436841E1,2.114320832E1
4.350396792E0,1.499868410E0,-6.280073333E-1,-2.070219800E1,2.076595773E1
4.360433792E0,1.551291456E0,-7.729560086E-1,-2.025051696E1,2.032455174E1
4.370471792E0,1.556644289E0,-9.072969577E-1,-1.988660731E1,1.996806148E1
4.380508792E0,1.254826659E0,-1.068295655E0,-1.995586407E1,2.002379475E1
4.390545792E0,8.665360174E-1,-1.212803158E0,-2.035490613E1,2.040940910E1
4.400583792E0,6.884464931E-1,-1.328618959E0,-2.026556067E1,2.032073169E1
4.410620792E0,6.243286306E-1,-1.453304547E0,-1.957993605E1,1.964372103E1
4.420657792E0,4.997650301E-1,-1.580763615E0,-1.873072036E1,1.880394809E1
4.430695792E0,2.978383446E-1,-1.783625892E0,-1.779398940E1,1.788563915E1
4.440732792E0,2.606396377E-2,-1.925094451E0,-1.670899409E1,1.681954671E1
4.450770792E0,-2.268158706E-1,-1.802073857E0,-1.565022706E1,1.575526968E1
4.460807792E0,-3.592217567E-1,-1.438699225E0,-1.483146835E1,1.490541342E1
4.470844792E0,-5.385183290E-1,-9.225634530E-1,-1.412265600E1,1.416299890E1
4.480882792E0,-7.328118765E-1,-3.730579500E-1,-1.317650985E1,1.320214367E1
4.490919792E0,-9.060740125E-1,-1.554971986E-1,-1.141125650E1,1.144822800E1
4.500956792E0,-7.311310212E-1,-9.578527882E-1,-8.620938292E0,8.704746496E0
4.510994792E0,-1.447632455E-1,-3.933567273E0,-1.962873457E0,4.398497482E0
4.521031792E0,5.827878910E-1,-8.643112103E0,1.060124054E1,1.369048318E1
4.531069792E0,1.998735308E0,-1.385666032E1,2.647273560E1,2.994674787E1
4.541106792E0,5.728696684E0,-1.951222763E1,4.423322279E1,4.868390895E1
4.551143792E0,1.006562624E1,-2.294301476E1,5.803874219E1,6.321545976E1
4.561181792E0,1.223634190E1,-2.175399515E1,5.982225523E1,6.482026372E1
4.571218792E0,1.302132826E1,-1.945445831E1,5.122043967E1,5.631664388E1
4.581255792E0,1.142523485E1,-1.688879364E1,4.227352612E1,4.693419173E1
4.591293792E0,7.628339521E0,-1.331383639E1,3.599665707E1,3.913066730E1
4.601330792E0,4.163923888E0,-9.909760516E0,3.005419495E1,3.191858784E1
4.611367792E0,1.149057252E0,-7.135011106E0,2.244576286E1,2.358052133E1
4.621405792E0,-1.033540098E0,-4.575779539E0,1.409266797E1,1.485292073E1
4.631442792E0,-2.283779031E0,-2.335703768E0,7.039427841E0,7.760457659E0
4.641480792E0,-2.725519947E0,-9.102321137E-1,1.531193991E0,3.256000080E0
4.651517792E0,-2.895899625E0,1.019389690E-1,-2.662082335E0,3.934883550E0
4.661554792E0,-2.757034101E0,6.988597995E-1,-6.325258276E0,6.935310686E0
4.671592792E0,-2.308348300E0,1.006054384E0,-9.497180979E0,9.825327671E0
4.681629792E0,-1.817750242E0,1.174122365E0,-1.213702343E1,1.232842719E1
4.691666792E0,-1.450226426E0,1.323133978E0,-1.418958090E1,1.432473547E1
4.701704792E0,-9.479889008E-1,1.529248184E0,-1.559852364E1,1.570194965E1
4.711741792E0,2.021075472E-2,1.874727266E0,-1.668640396E1,1.679139922E1
4.721779792E0,1.097020102E0,2.273342336E0,-1.750341552E1,1.768448737E1
4.731816792E0,1.739305459E0,2.637673718E0,-1.813313726E1,1.840633513E1
4.741853792E0,1.911466930E0,2.802341251E0,-1.851394770E1,1.882214339E1
4.751891792E0,1.631054201E0,2.452477488E0,-1.838457221E1,1.861900854E1
4.761928792E0,1.091648119E0,1.757426126E0,-1.774017864E1,1.786040818E1
4.771965792E0,5.747222418E-1,9.649610290E-1,-1.685408690E1,1.689146828E1
4.782003792E0,1.429677118E-1,2.210482867E-1,-1.614877704E1,1.615092264E1
4.792040792E0,-1.296932166E-1,-2.876029032E-1,-1.607799532E1,1.608109043E1
4.802078792E0,-3.244977377E-1,-5.387533870E-1,-1.649896328E1,1.651094616E1
4.812115792E0,-4.932449462E-1,-7.168787254E-1,-1.682026193E1,1.684275563E1
4.822152792E0,-5.829536596E-1,-8.225513609E-1,-1.700316634E1,1.703302943E1
4.832190792E0,-5.877200905E-1,-8.598856866E-1,-1.716598206E1,1.719755094E1
4.842227792E0,-6.992891313E-1,-9.544696623E-1,-1.694516547E1,1.698642548E1
4.852264792E0,-8.584192050E-1,-9.886795284E-1,-1.626181775E1,1.631444413E1
4.862302792E0,-9.241723875E-1,-1.017688296E0,-1.542785043E1,1.548897521E1
4.872339792E0,-9.589636130E-1,-1.011683790E0,-1.450902598E1,1.457583446E1
4.882377792E0,-1.084316441E0,-9.240776626E-1,-1.354295135E1,1.361767943E1
4.892414792E0,-1.214441109E0,-8.464414760E-1,-1.287310134E1,1.295793458E1
4.902451792E0,-1.441871632E0,-8.978871066E-1,-1.211685755E1,1.223533539E1
4.912489792E0,-1.665284971E0,-1.087301518E0,-1.065683821E1,1.084083019E1
4.922526792E0,-1.327355375E0,-1.881321756E0,-8.211645475E0,8.528327225E0
4.932563792E0,-5.583988622E-1,-3.566901828E0,-2.141404738E0,4.197643648E0
4.942601875E0,1.039260283E0,-5.801210929E0,8.059874561E0,9.984772812E0
4.952638875E0,3.853825285E0,-8.657537184E0,1.891773420E1,2.115858187E1
4.962676875E0,8.876065174E0,-1.331846388E1,3.200766784E1,3.578626571E1
4.972713875E0,1.271731164E1,-1.919997579E1,4.477923579E1,5.035423560E1
4.982750875E0,1.292420718E1,-2.029271514E1,4.973919026E1,5.525229829E1
4.992788875E0,1.002138386E1,-1.736258884E1,4.703715448E1,5.113102314E1
5.002825875E0,7.006138473E0,-1.537222236E1,4.270815200E1,4.592795929E1
5.012862875E0,3.979824303E0,-1.303169303E1,3.765539988E1,4.004488937E1
5.022900875E0,1.674459399E0,-9.661559075E0,3.079811515E1,3.232140830E1
5.032937875E0,4.429343332E-1,-6.573464980E0,2.266566728E1,2.360379432E1
5.042975875E0,-5.992729461E-1,-4.102915210E0,1.504326736E1,1.560426013E1
5.053012875E0,-1.629440808E0,-1.817554068E0,8.740493971E0,9.074955372E0
5.063049875E0,-2.184266145E0,-1.244300647E-1,3.400735361E0,4.043699102E0
5.073087875E0,-2.190627477E0,8.733621300E-1,-9.938290250E-1,2.559161246E0
5.083124875E0,-1.998382136E0,1.632760127E0,-4.108164840E0,4.851438461E0
5.093161875E0,-1.893323312E0,2.207461026E0,-6.194405192E0,6.843114278E0
5.103199875E0,-1.727097642E0,2.436732983E0,-8.288837492E0,8.810525573E0
5.113236875E0,-1.562631253E0,2.474160718E0,-1.060318767E1,1.099958528E1
5.123274875E0,-1.336763691E0,2.444892772E0,-1.246522063E1,1.277286824E1
5.133311875E0,-1.069276526E0,2.353566719E0,-1.363707164E1,1.387992621E1
5.143348875E0,-6.376318502E-1,2.181425714E0,-1.440547413E1,1.458365103E1
5.153386875E0,-2.916325119E-1,2.015264071E0,-1.493614053E1,1.507430372E1
5.163423875E0,-1.183767347E-1,1.689862134E0,-1.516855215E1,1.526285102E1
5.173460875E0,3.046136230E-2,1.254559441E0,-1.485391464E1,1.490683157E1
5.183498875E0,3.334582302E-1,8.227649304E-1,-1.427872988E1,1.430630154E1
5.193535875E0,6.510323529E-1,2.678222112E-1,-1.384404320E1,1.386193002E1
5.203573875E0,9.151037215E-1,-1.940307882E-1,-1.369801366E1,1.372991774E1
5.213610875E0,1.079951568E0,-4.138606614E-1,-1.400266880E1,1.405034909E1
5.223647875E0,1.149006454E0,-3.653099142E-1,-1.506339816E1,1.511157276E1
5.233685875E0,9.894383508E-1,-3.159107360E-1,-1.631796505E1,1.635098686E1
5.243722875E0,6.659108124E-1,-3.651688501E-1,-1.738738221E1,1.740396063E1
5.253760875E0,1.438242558E-1,-4.916029018E-1,-1.795208641E1,1.795939212E1
5.263797875E0,-4.597116760E-1,-8.167420059E-1,-1.801996791E1,1.804432448E1
5.273834875E0,-1.046772639E0,-1.432987519E0,-1.754559149E1,1.763510609E1
5.283872875E0,-1.497649245E0,-1.976689843E0,-1.684168847E1,1.702329952E1
5.293909875E0,-1.719496554E0,-2.146985175E0,-1.600553663E1,1.624017908E1
5.303946875E0,-1.689742851E0,-1.976829738E0,-1.516499704E1,1.538636480E1
5.313984875E0,-1.598706674E0,-1.380057792E0,-1.455872731E1,1.471111701E1
5.324021875E0,-1.427588200E0,-5.176525399E-1,-1.433042629E1,1.441065890E1
5.334059875E0,-9.576839498E-1,9.989076242E-2,-1.430316423E1,1.433553779E1
5.344096875E0,-5.478106510E-1,6.888794795E-2,-1.292199342E1,1.293378351E1
5.354133875E0,3.534729570E-2,-1.207407932E0,-8.406721453E0,8.493058868E0
5.364171875E0,5.534677590E-1,-3.718745540E0,1.232829287E0,3.956673224E0
5.374208875E0,7.432727645E-1,-6.392132297E0,1.430750403E1,1.568809999E1
5.384245875E0,3.286788915E0,-8.664081972E0,2.629086848E1,2.787613788E1
5.394283875E0,7.504742830E0,-1.143210065E1,3.614300352E1,3.864363846E1
5.404320875E0,1.094373886E1,-1.389984084E1,4.319666114E1,4.667893025E1
5.414358875E0,1.201779870E1,-1.471429483E1,4.525943720E1,4.908517713E1
5.424395875E0,1.070791247E1,-1.466300422E1,4.563232584E1,4.911183405E1
5.434432875E0,8.518973960E0,-1.358466305E1,4.591371725E1,4.863317200E1
5.444470875E0,5.762302387E0,-1.122260778E1,4.137473423E1,4.325528508E1
5.454507875E0,3.182607320E0,-9.109031110E0,3.116234990E1,3.262200927E1
5.464544875E0,1.218778282E0,-7.153453808E0,1.892532271E1,2.026882241E1
5.474582875E0,-1.865228172E-1,-4.464480421E0,8.193730776E0,9.332930955E0
5.484619875E0,-1.094993457E0,-1.789583327E0,3.734084541E-1,2.130974667E0
5.494657875E0,-1.460278375E0,7.580604460E-2,-4.895188957E0,5.108917147E0
5.504694875E0,-1.033142779E0,1.430075752E0,-7.372320353E0,7.580475450E0
5.514731875E0,-1.119821466E-1,2.271365684E0,-8.457506860E0,8.757914384E0
5.524769875E0,8.505424207E-1,2.741250127E0,-9.353947585E0,9.784386035E0
5.534806875E0,1.367640352E0,2.802765759E0,-1.019887025E1,1.066503119E1
5.544844875E0,1.544388818E0,2.567224710E0,-1.093348635E1,1.133652960E1
5.554881875E0,1.566168965E0,2.344552944E0,-1.187797190E1,1.220803138E1
5.564918875E0,1.375594027E0,2.131141121E0,-1.262742239E1,1.287966683E1
5.574956875E0,8.992849566E-1,1.874775652E0,-1.341790514E1,1.357805860E1
5.584993875E0,3.181287311E-2,1.641563110E0,-1.522612617E1,1.531439387E1
5.595030875E0,-7.843854880E-1,1.519521048E0,-1.720444739E1,1.728922250E1
5.605068875E0,-9.221012306E-1,1.562857248E0,-1.798456887E1,1.807588202E1
5.615105875E0,-5.942645136E-1,1.591202796E0,-1.774598259E1,1.782708542E1
5.625143875E0,-1.998098107E-1,1.441478261E0,-1.698916460E1,1.705137817E1
5.635180875E0,5.677953377E-2,1.241377332E0,-1.608097273E1,1.612891582E1
5.645217875E0,1.788400874E-1,1.019419949E0,-1.550787426E1,1.554237320E1
5.655255875E0,2.535856298E-1,8.592397155E-1,-1.534620225E1,1.537232976E1
5.665292875E0,1.964380869E-1,7.448872539E-1,-1.529059289E1,1.530998615E1
5.675330875E0,4.563357130E-2,6.277567070E-1,-1.518993424E1,1.520296890E1
5.685367875E0,-1.188869774E-1,5.310785510E-1,-1.515212381E1,1.516189416E1
5.695404875E0,-2.016767536E-1,4.075773896E-1,-1.505529626E1,1.506216247E1
5.705442875E0,-2.856223051E-1,4.294335508E-1,-1.472480461E1,1.473383399E1
5.715479875E0,-2.936068974E-1,6.320052208E-1,-1.423698310E1,1.425402833E1
5.725516875E0,-2.810800418E-1,8.354020060E-1,-1.363344754E1,1.366191034E1
5.735554875E0,-4.085852303E-1,7.891895603E-1,-1.237735803E1,1.240922051E1
5.745591875E0,-5.559527526E-1,5.835465307E-1,-1.033072262E1,1.036211561E1
5.755629875E0,-3.778831820E-1,3.247216860E-1,-7.826030374E0,7.841874220E0
5.765666875E0,-3.393224759E-1,-4.934795657E-1,-4.320103018E0,4.361416274E0
5.775703875E0,-6.692065224E-3,-2.070772566E0,5.711794138E-1,2.148113062E0
5.785741875E0,8.809359553E-1,-4.062654206E0,7.348257306E0,8.442635418E0
5.795778875E0,3.566554211E0,-6.585940014E0,1.704565806E1,1.861852232E1
5.805816875E0,9.111872857E0,-1.054707662E1,3.052670845E1,3.355811348E1
5.815853875E0,1.471098296E1,-1.444449143E1,4.544492024E1,4.990287695E1
5.825890875E0,1.541572915E1,-1.579178113E1,5.158816873E1,5.611028613E1
5.835928875E0,1.175648664E1,-1.484521983E1,4.914328414E1,5.266552863E1
5.845965875E0,7.268256286E0,-1.399045514E1,4.425081589E1,4.697547330E1
5.856003875E0,3.147859071E0,-1.212104884E1,3.850818822E1,4.049332539E1
5.866040875E0,8.194647619E-1,-8.801300336E0,3.093645793E1,3.217450605E1
5.876077875E0,2.421187283E-1,-5.431019028E0,2.164012881E1,2.231254723E1
5.886115875E0,-9.977104068E-3,-2.721052090E0,1.232617384E1,1.262294679E1
5.896152875E0,-7.200195573E-1,-5.974641830E-1,4.413780091E0,4.511856193E0
5.906189875E0,-1.888130838E0,5.954043552E-1,-1.187522137E0,2.308625832E0
5.916227875E0,-2.640792623E0,8.346587518E-1,-3.985818284E0,4.853574796E0
5.926264875E0,-2.702113836E0,7.063720098E-1,-4.883195733E0,5.625476083E0
5.936302875E0,-2.168081929E0,4.096283736E-1,-5.648255369E0,6.063923101E0
5.946339167E0,-1.376491429E0,1.253444961E-1,-7.046764342E0,7.181039451E0
5.956376167E0,-6.419323312E-1,-5.286149729E-2,-8.985076570E0,9.008133681E0
5.966414167E0,-2.984815018E-1,-1.243162633E-1,-1.107726588E1,1.108198381E1
5.976451167E0,-5.304844008E-1,-2.707508623E-1,-1.355380144E1,1.356688075E1
5.986489167E0,-9.658005430E-1,-4.652921855E-1,-1.614110783E1,1.617666930E1
5.996526167E0,-1.366961783E0,-6.625624774E-1,-1.817699372E1,1.824035839E1
6.006563167E0,-1.431391521E0,-6.299519710E-1,-1.956076537E1,1.962318177E1
6.016601167E0,-1.263587688E0,-4.965727428E-1,-2.027399938E1,2.031940671E1
6.026638167E0,-1.086999802E0,-4.585586782E-1,-2.041036346E1,2.044443155E1
6.036676167E0,-9.460276716E-1,-6.074467689E-1,-1.997509205E1,2.000670544E1
6.046713167E0,-8.359925748E-1,-8.426076029E-1,-1.926672760E1,1.930325526E1
6.056750167E0,-7.770285943E-1,-1.069498720E0,-1.853936438E1,1.858643679E1
6.066788167E0,-7.624802101E-1,-1.228788422E0,-1.785061383E1,1.790909577E1
6.076825167E0,-7.331194400E-1,-1.317050827E0,-1.733751130E1,1.740291312E1
6.086862167E0,-1.152388045E0,-1.369510877E0,-1.729349814E1,1.738587462E1
6.096900167E0,-1.800695230E0,-1.467569706E0,-1.816602551E1,1.831394952E1
6.106937167E0,-1.772372048E0,-1.380734607E0,-1.828097592E1,1.841851816E1
6.116975167E0,-1.558866524E0,-1.191343292E0,-1.722948633E1,1.734083513E1
6.127012167E0,-1.327611776E0,-9.147888489E-1,-1.592172732E1,1.600314945E1
6.137049167E0,-1.250853183E0,-6.260561174E-1,-1.464843997E1,1.471507301E1
6.147087167E0,-1.373104575E0,-3.856403907E-1,-1.362528833E1,1.369973054E1
6.157124167E0,-1.520179591E0,-3.186247943E-1,-1.300803403E1,1.310043576E1
6.167162167E0,-1.540902708E0,-5.188010062E-1,-1.208341148E1,1.219230776E1
6.177199167E0,-1.090941702E0,-1.619659586E0,-9.525665690E0,9.723772818E0
6.187236167E0,6.957638450E-2,-3.893281711E0,-3.530969810E0,5.256446628E0
6.197274167E0,1.107965797E0,-6.659516698E0,7.716876306E0,1.025314248E1
6.207311167E0,3.542524493E0,-9.698173170E0,2.226193575E1,2.453971936E1
6.217349167E0,9.010105577E0,-1.309360920E1,3.665070322E1,3.994870024E1
6.227386167E0,1.342599417E1,-1.606030399E1,4.667276068E1,5.115209940E1
6.237423167E0,1.358961096E1,-1.591712556E1,4.958508572E1,5.382112167E1
6.247461167E0,1.147194943E1,-1.524089273E1,4.552745954E1,4.936233389E1
6.257498167E0,8.738110061E0,-1.513954762E1,4.088208059E1,4.446239965E1
6.267536167E0,4.965833847E0,-1.327701530E1,3.703615168E1,3.965621228E1
6.277573167E0,1.990030412E0,-1.035133873E1,3.186588923E1,3.356404819E1
6.287610167E0,2.017688473E-1,-8.065237627E0,2.437685027E1,2.567721943E1
6.297648167E0,-1.231572574E0,-6.078290598E0,1.594647039E1,1.711000601E1
6.307685167E0,-2.504811238E0,-4.414256347E0,9.107716656E0,1.042642034E1
6.317723167E0,-3.001417017E0,-2.913827773E0,4.452793883E0,6.109522876E0
6.327760167E0,-2.321467113E0,-1.461716497E0,9.864995402E-1,2.915305476E0
6.337797167E0,-8.507885885E-1,-1.177468434E-2,-2.159820544E0,2.321379902E0
6.347835167E0,4.091574535E-1,1.084362927E0,-4.712647070E0,4.853070697E0
6.357872167E0,1.192037210E0,1.436923426E0,-6.688339378E0,6.944032350E0
6.367910167E0,1.606086006E0,1.211005359E0,-8.428019351E0,8.664730603E0
6.377947167E0,1.861744985E0,8.656358385E-1,-1.014099684E1,1.034675006E1
6.387984167E0,2.005725362E0,4.529574841E-1,-1.188083001E1,1.205745523E1
6.398022167E0,1.968157732E0,-3.890518025E-2,-1.412905754E1,1.426553277E1
6.408059167E0,1.731145377E0,6.978651881E-4,-1.741620430E1,1.750202951E1
6.418096167E0,1.411981835E0,6.474392389E-1,-2.073942137E1,2.079751113E1
6.428134167E0,7.835881470E-1,1.193675162E0,-2.267960471E1,2.272450969E1
6.438171167E0,5.551207669E-2,9.786540386E-1,-2.320492324E1,2.322561749E1
6.448209167E0,-2.783449336E-1,2.870330921E-1,-2.270997281E1,2.271349222E1
6.458246167E0,-3.257514538E-1,-1.710752043E-1,-2.140300784E1,2.140617026E1
6.468283167E0,5.154320598E-3,-4.459219681E-1,-1.974375515E1,1.974879086E1
6.478321167E0,1.069492288E-1,-5.220961314E-1,-1.854181436E1,1.854947176E1
6.488358167E0,-7.946804613E-3,-5.943259093E-1,-1.769579360E1,1.770577300E1
6.498396167E0,3.361447334E-2,-6.252551951E-1,-1.726908485E1,1.728043302E1
6.508433167E0,-1.558597259E-1,-6.284030436E-1,-1.677908116E1,1.679156774E1
6.518470167E0,-4.296143029E-1,-7.552782677E-1,-1.620181362E1,1.622509718E1
6.528508167E0,-6.607715484E-1,-1.038703335E0,-1.542517241E1,1.547421945E1
6.538545167E0,-8.810110190E-1,-1.213318883E0,-1.449093002E1,1.456830038E1
6.548583167E0,-9.198764382E-1,-1.193090879E0,-1.356625134E1,1.364964519E1
6.558620167E0,-8.070814555E-1,-1.069980823E0,-1.279151982E1,1.286154029E1
6.568657167E0,-6.623182100E-1,-8.854268362E-1,-1.200888287E1,1.205968133E1
6.578695167E0,-3.643033891E-1,-4.608090522E-1,-1.114372884E1,1.115920044E1
6.588732167E0,4.245553650E-2,1.410890745E-1,-1.028531782E1,1.028637309E1
6.598770167E0,8.802908613E-1,-8.494173434E-2,-8.627943256E0,8.673150058E0
6.608807167E0,2.104489219E0,-1.639302722E0,-4.016174104E0,4.821394272E0
6.618844167E0,3.029686258E0,-3.741917471E0,4.504038881E0,6.592974399E0
6.628882167E0,3.759043673E0,-6.651818254E0,1.539585681E1,1.718748097E1
6.638919167E0,6.960476981E0,-1.055904587E1,2.646808589E1,2.933430177E1
6.648957167E0,1.095699333E1,-1.464822129E1,3.587516830E1,4.026976273E1
6.658994167E0,1.270916296E1,-1.738810258E1,4.061600421E1,4.597313055E1
6.669031167E0,1.177638120E1,-1.754113006E1,4.061635972E1,4.578278143E1
6.679069167E0,9.915172698E0,-1.761779642E1,3.860374575E1,4.357690428E1
6.689106167E0,6.902409452E0,-1.694544848E1,3.878623735E1,4.288547176E1
6.699144167E0,2.990662526E0,-1.437637371E1,3.734059748E1,4.012411250E1
6.709181167E0,3.132685255E-1,-1.138147663E1,3.167512967E1,3.365932244E1
6.719218167E0,-9.002368833E-1,-8.757200051E0,2.319791360E1,2.481213764E1
6.729256167E0,-1.242741195E0,-6.280515967E0,1.463935106E1,1.597810646E1
6.739293167E0,-1.371649496E0,-3.721263058E0,7.794150184E0,8.745169992E0
6.749331167E0,-1.334986723E0,-1.499307370E0,3.003415888E0,3.612564066E0
6.759368167E0,-7.544615579E-1,7.668023989E-2,-2.417496228E-1,7.959491074E-1
6.769405167E0,3.157477814E-1,1.054409249E0,-2.979121292E0,3.175946976E0
6.779443167E0,1.049278025E0,1.620350873E0,-5.562284927E0,5.887744469E0
6.789480167E0,1.316334397E0,1.753518432E0,-8.081508089E0,8.373669216E0
6.799518167E0,1.339745479E0,1.606366380E0,-1.050100173E1,1.070730443E1
6.809555167E0,1.425365966E0,1.500446407E0,-1.278440610E1,1.295083190E1
6.819592167E0,1.421094136E0,1.431013206E0,-1.469113050E1,1.482891171E1
6.829630167E0,1.244743574E0,1.101348650E0,-1.659985698E1,1.668285369E1
6.839667167E0,1.161937571E0,9.533655618E-1,-1.880091969E1,1.886090099E1
6.849705167E0,8.319487135E-1,9.052273357E-1,-2.016035523E1,2.019780924E1
6.859742167E0,4.753802405E-1,4.858157663E-1,-2.036358808E1,2.037492878E1
6.869779167E0,3.784233917E-1,-1.448907879E-1,-1.999360901E1,1.999771484E1
6.879817167E0,4.719836660E-1,-5.291747707E-1,-1.920046345E1,1.921355228E1
6.889854167E0,6.005333135E-1,-8.051958016E-1,-1.827437325E1,1.830195886E1
6.899892167E0,7.359490538E-1,-1.094039776E0,-1.754889517E1,1.759835974E1
6.909929167E0,8.363108826E-1,-1.202507381E0,-1.714818080E1,1.721062302E1
6.919966167E0,8.215598193E-1,-1.275327727E0,-1.708478997E1,1.715201065E1
6.930004167E0,7.135447893E-1,-1.431841611E0,-1.703551665E1,1.711046884E1
6.940041167E0,3.601269422E-1,-1.619707972E0,-1.727759722E1,1.735708821E1
6.950079000E0,-8.998550601E-2,-1.805073479E0,-1.784854158E1,1.793981115E1
6.960116000E0,-4.066182635E-1,-1.986951122E0,-1.784402051E1,1.795890813E1
6.970153000E0,-5.343842744E-1,-2.128741277E0,-1.701498941E1,1.715596021E1
6.980191000E0,-5.871519604E-1,-2.083501955E0,-1.591406746E1,1.606061241E1
6.990228000E0,-4.562213999E-1,-1.730490050E0,-1.498088225E1,1.508739762E1
7.000266000E0,-2.769129140E-1,-1.368869145E0,-1.385456584E1,1.392477929E1
7.010303000E0,-3.421694486E-1,-1.312737482E0,-1.220309931E1,1.227827318E1
7.020340000E0,-3.264855352E-1,-1.425228994E0,-1.011258172E1,1.021773847E1
7.030378000E0,2.159816743E-1,-2.273976028E0,-6.801047384E0,7.174389212E0
7.040415000E0,7.420479921E-1,-4.127771723E0,1.858011246E-2,4.193981383E0
7.050453000E0,3.859112629E-1,-6.822465734E0,1.093522415E1,1.289473122E1
7.060490000E0,1.864879093E0,-1.108756283E1,2.244022438E1,2.509931261E1
7.070527000E0,5.663422462E0,-1.551881674E1,3.427061982E1,3.804449250E1
7.080565000E0,8.523914273E0,-1.858579829E1,4.250116057E1,4.716394452E1
7.090602000E0,9.397782406E0,-1.826082642E1,4.520957215E1,4.965562918E1
7.100640000E0,9.443668431E0,-1.674370317E1,4.357171559E1,4.762382669E1
7.110677000E0,8.428681841E0,-1.512491905E1,4.188225852E1,4.532029824E1
7.120714000E0,5.901454425E0,-1.258931959E1,3.926362743E1,4.165273786E1
7.130752000E0,3.359255213E0,-9.814757295E0,3.317222270E1,3.475644422E1
7.140789000E0,1.302290993E0,-7.473156171E0,2.471956493E1,2.585731841E1
7.150827000E0,1.038129285E-1,-5.169362560E0,1.625062735E1,1.705332741E1
7.160864000E0,-8.002361932E-1,-2.658394496E0,8.852256482E0,9.277385627E0
7.170902000E0,-1.379320750E0,-2.641864125E-1,3.037485275E0,3.346436461E0
7.180939000E0,-1.276712348E0,1.518618384E0,-8.255660391E-1,2.148896345E0
7.190976000E0,-7.282136992E-1,2.700805229E0,-3.316268238E0,4.338465063E0
7.201014000E0,-2.145781964E-2,3.403608098E0,-5.243949058E0,6.251720583E0
7.211051000E0,4.091107488E-1,3.683925955E0,-7.115563851E0,8.023087371E0
7.221089000E0,4.571467949E-1,3.695018416E0,-8.909176202E0,9.655856507E0
7.231126000E0,5.652925833E-1,3.510487599E0,-1.045171204E1,1.103998928E1
7.241163000E0,8.647492544E-1,3.345989343E0,-1.182704849E1,1.232162782E1
7.251201000E0,1.293572210E0,3.150801390E0,-1.304134912E1,1.347878576E1
7.261238000E0,1.665670303E0,2.917778152E0,-1.403166982E1,1.442829321E1
7.271276000E0,1.834912551E0,2.498989750E0,-1.461874314E1,1.494387850E1
7.281313000E0,1.867284784E0,1.904750526E0,-1.476232269E1,1.500136654E1
7.291350000E0,1.868500566E0,1.385947984E0,-1.477916734E1,1.496114747E1
7.301388000E0,1.819041015E0,8.136749952E-1,-1.489044337E1,1.502319143E1
7.311425000E0,1.614122565E0,2.080287302E-1,-1.511090562E1,1.519829386E1
7.321463000E0,1.323546499E0,-1.742423487E-1,-1.553575027E1,1.559300075E1
7.331500000E0,1.123598913E0,-3.085406131E-1,-1.628592465E1,1.632755382E1
7.341537000E0,1.023772763E0,-3.587693650E-1,-1.695020577E1,1.698488451E1
7.351575000E0,8.606742568E-1,-4.183903532E-1,-1.723256899E1,1.725912062E1
7.361612000E0,7.426137833E-1,-5.813835360E-1,-1.728450980E1,1.731022129E1
7.371650000E0,6.407677120E-1,-8.507378639E-1,-1.705070304E1,1.708393433E1
7.381687000E0,4.309220327E-1,-1.225989360E0,-1.653181410E1,1.658281102E1
7.391725000E0,7.386528064E-2,-1.509868757E0,-1.595729710E1,1.602873951E1
7.401762000E0,-1.401346810E-1,-1.542545337E0,-1.537188322E1,1.544972096E1
7.411799000E0,-3.067367836E-1,-1.329929904E0,-1.470782897E1,1.477102008E1
7.421837000E0,-3.651199893E-1,-9.010516928E-1,-1.413988190E1,1.417326592E1
7.431874000E0,-3.262117758E-1,-4.766392922E-1,-1.384594705E1,1.385798863E1
7.441912000E0,-6.515648881E-1,-1.710804668E-1,-1.388534208E1,1.390167364E1
7.451949000E0,-1.135820106E0,-1.621200474E-1,-1.375467669E1,1.380244547E1
7.461986000E0,-1.325628985E0,-1.268307560E0,-1.189927096E1,1.203987316E1
7.472024000E0,-9.827846579E-1,-3.759055952E0,-5.537916071E0,6.764974630E0
7.482061000E0,-2.232947504E-1,-6.821826049E0,6.505051387E0,9.428831568E0
7.492099000E0,1.747884055E0,-9.557679781E0,2.117164989E1,2.329470113E1
7.502136000E0,5.168680775E0,-1.291396870E1,3.399232977E1,3.672824978E1
7.512173000E0,8.446272020E0,-1.631238096E1,4.201603814E1,4.585608732E1
7.522211000E0,9.834154848E0,-1.633161596E1,4.493053834E1,4.880763831E1
7.532248000E0,9.768809289E0,-1.520269053E1,4.312523623E1,4.675828734E1
7.542286000E0,9.059504024E0,-1.428691716E1,4.217825861E1,4.544442886E1
7.552323000E0,7.232642065E0,-1.216156302E1,4.093598256E1,4.331246235E1
7.562361000E0,4.841089933E0,-9.451758054E0,3.664547581E1,3.815314901E1
7.572398000E0,2.530680782E0,-7.321903321E0,2.915356469E1,3.016529376E1
7.582435000E0,8.508453065E-1,-5.130185630E0,2.042800100E1,2.107951535E1
7.592473000E0,-4.351764668E-1,-2.812425359E0,1.194400099E1,1.227836613E1
7.602510000E0,-1.359961058E0,-5.173249497E-1,4.863976520E0,5.076946599E0
7.612548000E0,-1.513842086E0,1.147552032E0,-1.357577294E-1,1.904474649E0
7.622585000E0,-1.138319132E0,2.125539781E0,-3.733660617E0,4.444537255E0
7.632622000E0,-7.532270645E-1,2.704955290E0,-6.336225314E0,6.930503976E0
7.642660000E0,-4.674001068E-1,2.836619676E0,-8.210950826E0,8.699688932E0
7.652697000E0,-2.411621969E-1,2.571083288E0,-9.806458926E0,1.014077241E1
7.662735000E0,-6.889109083E-2,2.212512728E0,-1.115240377E1,1.136996343E1
7.672772000E0,2.715150934E-1,1.996004366E0,-1.214299461E1,1.230894276E1
7.682809000E0,6.380252948E-1,1.686780213E0,-1.300531157E1,1.312975372E1
7.692847000E0,9.123598424E-1,1.161345468E0,-1.350768562E1,1.358818217E1
7.702884000E0,1.158939046E0,7.248226064E-1,-1.377707386E1,1.384472000E1
7.712922000E0,1.524445134E0,4.318499127E-1,-1.445911883E1,1.454567099E1
7.722959000E0,1.648599941E0,1.579337333E-1,-1.537500564E1,1.546394591E1
7.732997000E0,1.542039845E0,-3.336818862E-1,-1.596338054E1,1.604115796E1
7.743034000E0,1.293629512E0,-7.581417954E-1,-1.655539475E1,1.662315709E1
7.753071000E0,9.662409845E-1,-1.109438126E0,-1.721812987E1,1.728087008E1
7.763109000E0,5.980189742E-1,-1.427835976E0,-1.757198699E1,1.764004164E1
7.773146000E0,2.108673341E-1,-1.633121777E0,-1.763133389E1,1.770806275E1
7.783184000E0,-8.091340475E-3,-1.668907614E0,-1.761092009E1,1.768982263E1
7.793221000E0,4.841165654E-2,-1.597140643E0,-1.744846339E1,1.752147473E1
7.803258000E0,1.195157723E-1,-1.434452392E0,-1.702441629E1,1.708515987E1
7.813296000E0,2.541214541E-1,-1.216090463E0,-1.647668772E1,1.652345884E1
7.823333000E0,3.357608272E-1,-1.037579062E0,-1.617424985E1,1.621097356E1
7.833371000E0,3.807214570E-1,-9.098466361E-1,-1.595394431E1,1.598440204E1
7.843408000E0,3.837731189E-1,-1.035101451E0,-1.528691382E1,1.532672343E1
7.853445000E0,1.758950642E-1,-1.180502554E0,-1.424799926E1,1.429790223E1
7.863483000E0,-2.376277378E-1,-1.046833889E0,-1.347394953E1,1.351664322E1
7.873520000E0,-4.997164252E-1,-6.454333515E-1,-1.317802896E1,1.320328550E1
7.883558000E0,-3.123949514E-1,-2.817405579E-1,-1.330829440E1,1.331494154E1
7.893595000E0,-6.478820924E-2,-8.999943700E-1,-1.269727557E1,1.272929669E1
7.903633000E0,1.851194123E-1,-3.264283275E0,-8.321451507E0,8.940714159E0
7.913670000E0,2.535668091E-1,-6.320868187E0,1.793234621E0,6.575208071E0
7.923707000E0,1.970423967E-2,-8.909179126E0,1.641871258E1,1.868014946E1
7.933745000E0,2.987519063E0,-1.140721022E1,3.128259906E1,3.343128354E1
7.943783000E0,5.809913340E0,-1.492513724E1,4.003166622E1,4.311669184E1
7.953821000E0,5.951744573E0,-1.679677016E1,4.318180454E1,4.671426971E1
7.963858000E0,4.982494318E0,-1.733538175E1,4.171013052E1,4.544310397E1
7.973896000E0,4.233357820E0,-1.774254092E1,3.986598887E1,4.384080457E1
7.983933000E0,2.779771291E0,-1.640890914E1,3.891878438E1,4.232790102E1
7.993970000E0,1.171241003E0,-1.341184391E1,3.617521700E1,3.859916693E1
8.004008000E0,1.644639038E-2,-1.043888442E1,3.061958562E1,3.235010976E1
8.014045000E0,-7.274998272E-1,-7.961110411E0,2.322059144E1,2.455818401E1
8.024083000E0,-1.432421801E0,-5.559879967E0,1.575706388E1,1.677048477E1
8.034120000E0,-1.880792583E0,-3.522602445E0,9.203315123E0,1.003230372E1
8.044157000E0,-1.332249641E0,-1.957573102E0,3.798944780E0,4.476490031E0
8.054195000E0,-4.155959688E-2,-5.276396573E-1,-6.254456681E-1,8.193369831E-1
8.064232000E0,7.182047278E-1,8.163596711E-1,-4.200546754E0,4.338992300E0
8.074270000E0,8.258119145E-1,1.497876117E0,-6.916309453E0,7.124670843E0
8.084307000E0,8.471000187E-1,1.355114593E0,-9.202163222E0,9.339899462E0
8.094345000E0,8.336359276E-1,1.010867373E0,-1.154300479E1,1.161713223E1
8.104382000E0,9.078438185E-1,7.656401917E-1,-1.340400396E1,1.345651172E1
8.114419000E0,1.269381109E0,4.660313467E-1,-1.460740772E1,1.466986278E1
8.124457000E0,1.706578885E0,2.013550106E-1,-1.553201975E1,1.562679087E1
8.134494000E0,2.085275269E0,2.108068885E-1,-1.667492354E1,1.680612649E1
8.144532000E0,2.184619024E0,4.109265286E-1,-1.759256217E1,1.773244666E1
8.154569000E0,2.096641964E0,3.175298300E-1,-1.786758947E1,1.799298436E1
8.164606000E0,2.028481556E0,-1.343500122E-1,-1.762268235E1,1.773955243E1
8.174644000E0,1.945900306E0,-5.793590838E-1,-1.725742667E1,1.737644843E1
8.184681000E0,1.803412285E0,-7.934367585E-1,-1.724078666E1,1.735299866E1
8.194719000E0,1.495357137E0,-8.365152428E-1,-1.759541795E1,1.767864768E1
8.204756000E0,1.207077053E0,-8.643342483E-1,-1.772923265E1,1.779128436E1
8.214794000E0,9.847102191E-1,-8.769364598E-1,-1.741164932E1,1.746150634E1
8.224831000E0,6.799338242E-1,-8.401583505E-1,-1.677221887E1,1.680700752E1
8.234868000E0,4.170420949E-1,-8.599713483E-1,-1.589110428E1,1.591982004E1
8.244906000E0,1.378808534E-1,-8.488123758E-1,-1.504417485E1,1.506873222E1
8.254943000E0,-7.269659582E-2,-7.081352377E-1,-1.431486802E1,1.433255688E1
8.264981000E0,3.426807100E-2,-4.139822835E-1,-1.372668607E1,1.373297004E1
8.275018000E0,3.117854888E-1,-1.612267390E-2,-1.332236631E1,1.332602395E1
8.285055000E0,4.309225443E-1,2.900556640E-1,-1.293354752E1,1.294397458E1
8.295093000E0,4.644384190E-1,5.264555231E-1,-1.241150810E1,1.243134715E1
8.305130000E0,7.457607548E-1,8.423105644E-1,-1.207480789E1,1.212710319E1
8.315168000E0,9.745625956E-1,1.452105137E0,-1.214404009E1,1.226931503E1
8.325205000E0,1.038239359E0,2.210946844E0,-1.262192718E1,1.285609865E1
8.335243000E0,1.278584919E0,2.281331386E0,-1.254195715E1,1.281171110E1
8.345280000E0,1.828683512E0,6.921294350E-1,-1.012789090E1,1.031490671E1
8.355317000E0,2.020932508E0,-3.112007453E0,-2.452221088E0,4.447712542E0
8.365355000E0,7.979464236E-1,-8.185855746E0,1.125651461E1,1.394109300E1
8.375392000E0,1.034095072E0,-1.511751180E1,2.712290388E1,3.106864063E1
8.385430000E0,2.213009303E0,-2.283098678E1,4.355590940E1,4.922670628E1
8.395467000E0,9.951817053E-1,-2.581737031E1,5.325632322E1,5.919259210E1
8.405505000E0,-1.031163789E-2,-2.410432090E1,5.365979981E1,5.882510100E1
8.415542000E0,8.612672375E-1,-2.249690027E1,4.806828524E1,5.307930245E1
8.425579000E0,4.225708200E-1,-1.942007902E1,4.058928945E1,4.499787165E1
8.435617000E0,-1.396073900E-1,-1.564122703E1,3.219647677E1,3.579497995E1
8.445654000E0,-2.713413580E-1,-1.193557165E1,2.358890755E1,2.643800401E1
8.455692000E0,-6.004812732E-1,-8.179489297E0,1.652973016E1,1.845255001E1
8.465729000E0,-5.752074145E-1,-4.690349298E0,1.189077496E1,1.279534170E1
8.475767000E0,7.056503903E-2,-1.816827552E0,8.247551472E0,8.445587432E0
8.485804000E0,7.389057715E-1,4.427975084E-1,4.382814991E0,4.466667507E0
8.495841000E0,9.035747664E-1,1.743632837E0,4.160393339E-1,2.007434073E0
8.505879000E0,6.975326277E-1,2.180507408E0,-3.125016339E0,3.873872925E0
8.515916000E0,3.352368436E-1,2.407483748E0,-5.911433868E0,6.391667397E0
8.525954000E0,-1.666457557E-1,2.752981103E0,-8.244704463E0,8.693780964E0
8.535991000E0,-4.899232160E-1,2.986523282E0,-1.033063608E1,1.076482178E1
8.546028000E0,-4.820014083E-1,2.931047823E0,-1.198786330E1,1.235039405E1
8.556066000E0,-2.619414472E-1,2.833570353E0,-1.334771750E1,1.364768466E1
8.566103000E0,1.399721101E-2,2.757518835E0,-1.431177952E1,1.457501763E1
8.576141000E0,1.833606429E-1,2.490562743E0,-1.467440395E1,1.488538395E1
8.586178000E0,1.445555963E-1,1.958558358E0,-1.445653903E1,1.458932377E1
8.596216000E0,-8.595629934E-2,1.307022998E0,-1.386149830E1,1.392324793E1
8.606253000E0,-2.783368206E-1,6.417434661E-1,-1.332558228E1,1.334392930E1
8.616290000E0,-2.196325662E-1,8.052916959E-2,-1.332471689E1,1.332677019E1
8.626328000E0,-5.707874676E-2,-4.717513123E-1,-1.345833746E1,1.346672397E1
8.636365000E0,9.804932803E-2,-9.179559933E-1,-1.383842987E1,1.386918880E1
8.646403000E0,1.361792680E-1,-1.139794531E0,-1.448740766E1,1.453281311E1
8.656440000E0,2.745182233E-1,-1.220075486E0,-1.511363276E1,1.516528403E1
8.666478000E0,6.564020703E-1,-1.111992190E0,-1.569493019E1,1.574795936E1
8.676515000E0,8.737903655E-1,-7.598728636E-1,-1.613165639E1,1.617316463E1
8.686552000E0,9.221081742E-1,-4.604319799E-1,-1.644893567E1,1.648119430E1
8.696590000E0,9.627793597E-1,-4.069261560E-1,-1.667173680E1,1.670447069E1
8.706627000E0,1.039544092E0,-3.298390961E-1,-1.674023460E1,1.677572353E1
8.716665000E0,1.373662107E0,-1.459380242E-1,-1.644563082E1,1.650354564E1
8.726702000E0,1.720672137E0,5.152858794E-3,-1.571340973E1,1.580733958E1
8.736740000E0,1.996726497E0,7.670582145E-2,-1.483498837E1,1.496895723E1
8.746777000E0,2.092314878E0,9.078503966E-2,-1.403496414E1,1.419035736E1
8.756814000E0,2.129278929E0,1.109839538E-1,-1.329468091E1,1.346457154E1
8.766852000E0,1.990446880E0,2.488248999E-1,-1.273659692E1,1.289359119E1
8.776889000E0,1.448896477E0,4.276214987E-1,-1.237815091E1,1.246999523E1
8.786927000E0,8.666987161E-1,7.924307451E-2,-1.209913581E1,1.213039709E1
8.796964000E0,1.955929450E-1,-1.581064893E0,-1.041318590E1,1.053434684E1
8.807002000E0,-8.298214965E-1,-4.117068687E0,-4.554030236E0,6.195001992E0
8.817039000E0,-1.818234684E0,-7.122857668E0,5.787313852E0,9.355964960E0
8.827076000E0,-1.467389466E0,-1.150171877E1,1.763961355E1,2.110920966E1
8.837114000E0,2.663966601E-1,-1.734943261E1,2.868500158E1,3.352466397E1
8.847151000E0,8.735259982E-1,-2.168043016E1,3.948720157E1,4.505600057E1
8.857189000E0,3.766003029E-1,-2.328472838E1,4.475041603E1,5.044720149E1
8.867226000E0,2.782466273E-1,-2.265706720E1,4.479732941E1,5.020180114E1
8.877264000E0,1.944517878E-1,-2.046303284E1,4.208862781E1,4.679985166E1
8.887301000E0,1.700779617E-1,-1.694392820E1,3.688009885E1,4.058654112E1
8.897338000E0,3.546353835E-1,-1.312766104E1,2.938500217E1,3.218601565E1
8.907376000E0,5.157656434E-1,-9.442971443E0,2.167292701E1,2.364638427E1
8.917413000E0,4.554306371E-1,-5.789173851E0,1.604961528E1,1.706786752E1
8.927451000E0,3.981334054E-1,-2.873261545E0,1.240256186E1,1.273725571E1
8.937488000E0,2.576641358E-1,-7.860284825E-1,9.341442729E0,9.377994660E0
8.947525000E0,5.484818017E-2,6.918001637E-1,5.903864647E0,5.944511213E0
8.957562000E0,4.945852742E-2,1.478041631E0,2.025904103E0,2.508254501E0
8.967599000E0,8.287695001E-3,2.115381559E0,-1.853829317E0,2.812755049E0
8.977637000E0,-3.718866796E-1,2.682421875E0,-5.354900560E0,6.000720525E0
8.987674000E0,-6.369776930E-1,3.029689182E0,-8.096895622E0,8.668591341E0
8.997712000E0,-3.808964715E-1,3.141970341E0,-9.944843810E0,1.043632973E1
9.007749000E0,1.621879482E-1,3.133662324E0,-1.115378137E1,1.158675897E1
9.017787000E0,7.583571191E-1,3.199946069E0,-1.205835967E1,1.249875187E1
9.027824000E0,1.651113221E0,3.230982504E0,-1.272977205E1,1.323678659E1
9.037861000E0,2.225222967E0,3.116424440E0,-1.311851249E1,1.366598290E1
9.047899000E0,2.154269928E0,2.634301044E0,-1.298803421E1,1.342644605E1
9.057936000E0,1.805541110E0,1.779235218E0,-1.248871240E1,1.274337452E1
9.067974000E0,1.419197592E0,9.894521648E-1,-1.200860454E1,1.213258919E1
9.078011000E0,1.540633589E0,3.924074464E-1,-1.191156649E1,1.201719400E1
9.088049000E0,2.232286257E0,6.047205046E-2,-1.212421101E1,1.232814874E1
9.098086000E0,3.381668175E0,2.571998669E-1,-1.282531205E1,1.326613963E1
9.108123000E0,4.365606635E0,8.698122123E-1,-1.399519138E1,1.468606402E1
9.118161000E0,4.627884078E0,1.396225197E0,-1.547162035E1,1.620918851E1
9.128198000E0,4.420868963E0,1.659904802E0,-1.691216963E1,1.755906740E1
9.138236000E0,3.991304727E0,1.621027104E0,-1.798274921E1,1.849155244E1
9.148273000E0,3.622093696E0,1.336899785E0,-1.854269028E1,1.894038612E1
9.158311000E0,3.538704800E0,1.000069466E0,-1.847036490E1,1.883286887E1
9.168348000E0,3.506842737E0,7.433512634E-1,-1.800703387E1,1.836038632E1
9.178385000E0,3.892432403E0,6.947155854E-1,-1.764095841E1,1.807863582E1
9.188423000E0,3.688592910E0,4.697907409E-1,-1.670842340E1,1.711717949E1
9.198460000E0,3.502906099E0,4.405777591E-1,-1.552254375E1,1.591897686E1
9.208498000E0,3.466615063E0,6.380266835E-1,-1.451184434E1,1.493379135E1
9.218535000E0,3.073035761E0,8.366194694E-1,-1.384496004E1,1.420656184E1
9.228573000E0,2.649272255E0,1.294359245E0,-1.350136595E1,1.381958364E1
9.238610000E0,2.424197868E0,1.722722755E0,-1.387130291E1,1.418652718E1
9.248647000E0,2.615718301E0,1.159258450E0,-1.511410170E1,1.538252036E1
9.258685000E0,2.832205613E0,-2.042759433E0,-1.429475827E1,1.471510682E1
9.268722000E0,2.856439398E0,-9.821303837E0,-4.518465132E0,1.118185057E1
9.278760000E0,1.793734997E0,-2.070867905E1,1.742711404E1,2.712510234E1
9.288797000E0,1.007567058E0,-3.127926381E1,4.472182549E1,5.458433118E1
9.298835000E0,-7.784700792E-1,-3.292128827E1,6.250466775E1,7.064878433E1
9.308872000E0,-1.773064943E0,-2.914567329E1,6.234806528E1,6.884689735E1
9.318909000E0,2.564375362E-1,-2.430233335E1,5.178572977E1,5.720516563E1
9.328947000E0,2.032277568E0,-1.888724331E1,3.848746101E1,4.292019066E1
9.338984000E0,3.720558177E0,-1.343055266E1,2.832370914E1,3.156667226E1
9.349022000E0,4.238662414E0,-7.757877567E0,2.115640971E1,2.292912111E1
9.359059000E0,3.693765065E0,-3.435704049E0,1.777397087E1,1.847598450E1
9.369097000E0,2.915220580E0,-1.140240235E0,1.635047557E1,1.664742353E1
9.379134000E0,1.672391092E0,4.312906265E-1,1.336708231E1,1.347819695E1
9.389172000E0,8.595063485E-1,1.472025869E0,8.291625445E0,8.465025921E0
9.399209000E0,5.984353690E-1,1.901899423E0,3.101847332E0,3.687384327E0
9.409246000E0,4.327184800E-1,2.665482491E0,-1.199619441E0,2.954848388E0
9.419284000E0,2.446954135E-1,3.521985564E0,-4.770010595E0,5.934413133E0
9.429321000E0,5.187183777E-2,3.901299121E0,-7.606865621E0,8.549106977E0
9.439359000E0,3.044160054E-2,3.929138884E0,-9.677033731E0,1.044433056E1
9.449396000E0,2.109054872E-1,3.788477095E0,-1.095497838E1,1.159347192E1
9.459434000E0,6.972189246E-1,3.562539220E0,-1.164944751E1,1.220194358E1
9.469471000E0,1.233748469E0,3.219024071E0,-1.171255533E1,1.220934903E1
9.479508000E0,1.803643835E0,2.588671420E0,-1.146043275E1,1.188679392E1
9.489546000E0,2.196909725E0,1.943163224E0,-1.166443743E1,1.202752660E1
9.499583000E0,2.141193362E0,1.245363086E0,-1.255026487E1,1.279237220E1
9.509621000E0,1.918696573E0,4.050530005E-1,-1.369436383E1,1.383405455E1
9.519658000E0,1.808447615E0,-1.974071167E-1,-1.525659016E1,1.536466712E1
9.529696000E0,1.777354168E0,-3.850751111E-1,-1.696585877E1,1.706304880E1
9.539733000E0,2.113670810E0,-3.790152030E-1,-1.823649381E1,1.836248794E1
9.549771000E0,2.502336696E0,-4.808878791E-1,-1.904187643E1,1.921161108E1
9.559808000E0,2.413429490E0,-6.230968416E-1,-1.958957109E1,1.974751091E1
9.569845000E0,2.117579527E0,-6.738863415E-1,-2.025518070E1,2.037671737E1
9.579883000E0,2.054421558E0,-6.890160120E-1,-2.073506402E1,2.084798002E1
9.589920000E0,2.133439661E0,-6.499399468E-1,-2.076186766E1,2.088131068E1
9.599958000E0,1.998527147E0,-6.929631749E-1,-2.022554233E1,2.033585187E1
9.609995000E0,1.704229474E0,-9.232136634E-1,-1.926299942E1,1.936026519E1
9.620033000E0,1.377427714E0,-1.395056777E0,-1.809639453E1,1.820227967E1
9.630070000E0,8.774390280E-1,-1.911854600E0,-1.694035204E1,1.707046029E1
9.640107000E0,3.629493567E-1,-2.172121039E0,-1.592532102E1,1.607686821E1
9.650145000E0,-1.088538131E-1,-2.216537659E0,-1.501264316E1,1.517578146E1
9.660182000E0,-7.001495491E-1,-1.872033746E0,-1.433234651E1,1.447103577E1
9.670220000E0,-1.173162252E0,-1.365654345E0,-1.408789782E1,1.420247113E1
9.680257000E0,-7.657577938E-1,-1.477044681E0,-1.317143798E1,1.327609974E1
9.690295000E0,1.423175014E-1,-1.928547378E0,-9.758013575E0,9.947782577E0
9.700332000E0,8.687206833E-1,-3.312801424E0,-3.188467399E0,4.679279138E0
9.710370000E0,1.720932630E0,-7.592290267E0,8.424718598E0,1.147084845E1
9.720407000E0,1.839555971E0,-1.452820719E1,2.418529080E1,2.827332774E1
9.730444000E0,1.872975148E0,-2.158942643E1,4.196845583E1,4.723306739E1
9.740482000E0,1.423283041E0,-2.466523260E1,5.546309047E1,6.071699794E1
9.750519000E0,2.081717969E0,-2.375815404E1,5.748411273E1,6.223509179E1
9.760557000E0,4.107674843E0,-2.190340320E1,5.143165514E1,5.605218296E1
9.770594000E0,4.785423563E0,-1.966193389E1,4.481547449E1,4.917233650E1
9.780632000E0,3.480048164E0,-1.674320498E1,4.041725969E1,4.388622254E1
9.790669000E0,1.783404429E0,-1.339686802E1,3.565540187E1,3.813088363E1
9.800706000E0,7.321051674E-1,-9.976982446E0,2.807810971E1,2.980698578E1
9.810744000E0,7.983326322E-1,-6.596046926E0,1.914841972E1,2.026837803E1
9.820781000E0,1.322936050E0,-3.534107426E0,1.075087781E1,1.139392157E1
9.830819000E0,1.944107549E0,-1.340290440E0,3.509169052E0,4.229680846E0
9.840856000E0,1.843236209E0,7.947228536E-2,-2.042013182E0,2.752027144E0
9.850894000E0,1.402738849E0,9.173630856E-1,-6.601718141E0,6.811160967E0
9.860931000E0,8.611694428E-1,1.420576950E0,-1.028459394E1,1.041789442E1
9.870969000E0,2.747398328E-1,1.548561975E0,-1.305522106E1,1.314961304E1
9.881006000E0,1.695410411E-1,1.545516161E0,-1.482216777E1,1.490349025E1
9.891043000E0,3.685300490E-1,1.265798374E0,-1.590735135E1,1.596188858E1
9.901081000E0,6.586908167E-1,5.879156068E-1,-1.716992075E1,1.719260588E1
9.911118000E0,1.163598108E0,1.386963938E-1,-1.853552627E1,1.857253163E1
9.921156000E0,1.478397726E0,-1.994331770E-1,-1.910190863E1,1.916007168E1
9.931193000E0,1.759264199E0,-8.001062389E-1,-1.878157710E1,1.888075261E1
9.941231000E0,2.355822136E0,-1.116147514E0,-1.775268233E1,1.794306030E1
9.951268625E0,3.039468066E0,-1.171668288E0,-1.682783524E1,1.714022204E1
9.961306625E0,3.558989376E0,-1.125834889E0,-1.662516607E1,1.703907440E1
9.971343625E0,3.741615754E0,-1.231370699E0,-1.661219227E1,1.707281155E1
9.981380625E0,3.658814503E0,-1.393235369E0,-1.696152949E1,1.740751306E1
9.991418625E0,3.648326352E0,-1.394895101E0,-1.758436671E1,1.801293897E1
1.000145562E1,3.405337120E0,-1.475166847E0,-1.800203801E1,1.838058243E1
1.001149363E1,2.920426649E0,-2.053107981E0,-1.766107985E1,1.801826533E1
1.002153062E1,2.660596558E0,-2.819572996E0,-1.701965198E1,1.745558133E1
1.003156863E1,2.515771259E0,-3.286193669E0,-1.627124346E1,1.678932809E1
1.004160562E1,2.488473532E0,-3.478471754E0,-1.556216331E1,1.613918193E1
1.005164263E1,2.448928959E0,-3.564270288E0,-1.509585254E1,1.570305829E1
1.006168062E1,2.360709678E0,-3.450307178E0,-1.478348610E1,1.536323635E1
1.007171762E1,2.090338665E0,-3.197032401E0,-1.441960685E1,1.491695658E1
1.008175562E1,1.861259520E0,-2.770859842E0,-1.412864472E1,1.451759460E1
1.009179262E1,1.593570333E0,-2.045713592E0,-1.428052849E1,1.451405885E1
1.010183062E1,1.648253786E0,-1.217807059E0,-1.469494990E1,1.483716102E1
1.011186762E1,1.935671333E0,-3.054071633E-1,-1.531854960E1,1.544338237E1
1.012190562E1,2.067843842E0,-2.516565238E-1,-1.530860466E1,1.544968238E1
1.013194262E1,2.224350416E0,-2.745415976E0,-1.195279404E1,1.246412167E1
1.014197962E1,2.771905909E0,-7.675135957E0,-2.486316202E0,8.530705867E0
1.015201762E1,2.685829048E0,-1.335050545E1,1.336345586E1,1.907961284E1
1.016205462E1,2.739688336E0,-1.906617044E1,3.384170082E1,3.893951030E1
1.017209262E1,1.397843852E0,-2.478158518E1,5.083460764E1,5.657064844E1
1.018212962E1,-1.854391819E0,-2.738517255E1,5.998952302E1,6.597067013E1
1.019216762E1,-3.825520083E0,-2.674014514E1,5.939379933E1,6.524793763E1
1.020220463E1,-3.677126521E0,-2.367855005E1,5.429890048E1,5.935120542E1
1.021224262E1,-1.959512916E0,-1.874581904E1,4.844044882E1,5.197809639E1
1.022227963E1,9.220239012E-1,-1.319913975E1,4.043498377E1,4.254474504E1
1.023231662E1,3.017037854E0,-8.018884410E0,2.883871318E1,3.008448774E1
1.024235462E1,3.878686768E0,-3.762610182E0,1.634535809E1,1.721546333E1
1.025239162E1,3.751482931E0,-6.701072860E-1,7.347902965E0,8.277339303E0
1.026242962E1,3.960053698E0,1.572684956E0,1.840866625E0,4.641567967E0
1.027246662E1,3.903595322E0,3.136678318E0,-2.192035779E0,5.466427368E0
1.028250462E1,3.126937734E0,3.222202325E0,-4.434434211E0,6.310668284E0
1.029254162E1,2.553211565E0,1.762778814E0,-5.590310631E0,6.393578919E0
1.030257962E1,2.161024486E0,2.932972142E-1,-6.498838720E0,6.854994879E0
1.031261662E1,2.016766367E0,-5.613599653E-1,-7.915526687E0,8.187675758E0
1.032265462E1,2.270992340E0,-1.248842033E0,-9.929645727E0,1.026230368E1
1.033269162E1,3.167723525E0,-1.503015674E0,-1.192893272E1,1.243354190E1
1.034272862E1,4.076998303E0,-1.354647693E0,-1.382422347E1,1.447639942E1
1.035276663E1,5.216965912E0,-1.072513837E0,-1.603202919E1,1.689357805E1
1.036280362E1,6.049703561E0,-3.911766806E-1,-1.867802291E1,1.963722160E1
1.037284163E1,5.680126787E0,7.685726434E-2,-2.144918213E1,2.218867192E1
1.038287862E1,4.905248507E0,-6.834225655E-2,-2.364209383E1,2.414569804E1
1.039291663E1,4.461671126E0,-7.501635620E-1,-2.453409359E1,2.494776549E1
1.040295362E1,4.628990956E0,-1.670100446E0,-2.407157883E1,2.456944648E1
1.041299162E1,5.283109615E0,-2.306086305E0,-2.250855728E1,2.323498293E1
1.042302862E1,6.059072555E0,-2.358460692E0,-2.098396128E1,2.196818901E1
1.043306562E1,6.924710147E0,-1.807717590E0,-2.024015569E1,2.146819405E1
1.044310362E1,7.027673768E0,-1.230686283E0,-2.026533614E1,2.148456740E1
1.045314062E1,6.411443312E0,-1.249673069E0,-2.054081952E1,2.155443237E1
1.046317862E1,5.447285982E0,-1.646854840E0,-2.036088900E1,2.114121227E1
1.047321562E1,4.624492985E0,-2.006090813E0,-2.008610027E1,2.070897776E1
1.048325362E1,4.129019519E0,-2.007589162E0,-1.952389984E1,2.005646732E1
1.049329062E1,4.082648760E0,-1.910739828E0,-1.820056501E1,1.875045371E1
1.050332862E1,3.876220413E0,-1.877593717E0,-1.667721331E1,1.722439800E1
1.051336562E1,3.149399813E0,-2.021359062E0,-1.508274660E1,1.554007260E1
1.052340262E1,2.469984344E0,-1.985277502E0,-1.331239096E1,1.368436708E1
1.053344062E1,1.987598262E0,-1.401051342E0,-1.145250510E1,1.170783348E1
1.054347763E1,1.137257863E0,-7.445402947E-1,-9.622644686E0,9.718178144E0
1.055351562E1,7.330676191E-1,-8.527973995E-1,-8.323823723E0,8.399445988E0
1.056355263E1,2.327397213E0,-2.014298842E0,-6.439619874E0,7.137428230E0
1.057359062E1,3.914963187E0,-6.600489056E0,4.165586836E0,8.731867282E0
1.058362762E1,2.981405506E0,-1.532355014E1,2.042546565E1,2.570796792E1
1.059366562E1,2.633770117E0,-2.655077020E1,4.313486309E1,5.071978467E1
1.060370262E1,2.781533350E0,-3.428207334E1,6.454904145E1,7.314079732E1
1.061374062E1,7.061251842E-1,-3.235776870E1,7.426587426E1,8.101199842E1
1.062377762E1,1.083680118E0,-2.837989620E1,6.690644701E1,7.268469937E1
1.063381462E1,-8.864620127E-2,-2.342736769E1,5.134050406E1,5.643311769E1
1.064385262E1,-1.818389489E0,-1.806857581E1,3.803088936E1,4.214413978E1
1.065388962E1,-1.630583939E0,-1.235345227E1,2.633623820E1,2.913527123E1
1.066392762E1,-7.952607974E-1,-6.432975098E0,1.597542581E1,1.724035493E1
1.067396462E1,-8.722013115E-1,-2.190158676E0,8.837520913E0,9.146546127E0
1.068400262E1,-1.830167390E0,3.052699730E-2,4.754642358E0,5.094807997E0
1.069403962E1,-2.532636675E0,9.120536676E-1,2.831479096E0,3.906835586E0
1.070407762E1,-2.247563570E0,1.283767599E0,8.077454799E-1,2.711467132E0
1.071411463E1,-1.207363128E0,1.372834142E0,-1.336955334E0,2.264916967E0
1.072415162E1,-7.874065250E-2,1.348678124E0,-2.616411488E0,2.944612343E0
1.073418963E1,7.452333359E-1,1.358071530E0,-4.278708240E0,4.550502742E0
1.074422662E1,1.733047330E0,1.517760451E0,-6.837314739E0,7.214979049E0
1.075426462E1,2.806997682E0,1.769947793E0,-9.412581709E0,9.980413098E0
1.076430162E1,3.671907588E0,1.989105528E0,-1.164466682E1,1.237084118E1
1.077433962E1,4.367735899E0,2.212648091E0,-1.367043936E1,1.452080717E1
1.078437662E1,4.582966352E0,2.175088501E0,-1.525202700E1,1.607354715E1
1.079441462E1,4.179837086E0,1.686950513E0,-1.661903000E1,1.721943664E1
1.080445162E1,3.703964071E0,1.004911399E0,-1.790670734E1,1.831336574E1
1.081448962E1,3.207278477E0,2.010765369E-1,-1.884552693E1,1.911755613E1
1.082452662E1,2.941022004E0,-2.456893305E-1,-1.928368921E1,1.950821988E1
1.083456362E1,3.020145357E0,-5.836079630E-1,-1.971012898E1,1.994871075E1
1.084460162E1,3.124718131E0,-7.683624360E-1,-2.052552087E1,2.077621840E1
1.085463862E1,3.233250932E0,-6.427367619E-1,-2.153363464E1,2.178450006E1
1.086467663E1,2.968746577E0,-7.697596282E-1,-2.172794697E1,2.194332850E1
1.087471362E1,2.700621334E0,-7.810470933E-1,-2.252115686E1,2.269594449E1
1.088475163E1,2.650451639E0,-6.489684319E-1,-2.262232772E1,2.278630653E1
1.089478862E1,2.577967215E0,-5.818529212E-1,-2.198064726E1,2.213895485E1
1.090482662E1,2.360062099E0,-6.471420541E-1,-2.079147328E1,2.093499575E1
1.091486362E1,2.034725359E0,-8.975120808E-1,-1.953796356E1,1.966412102E1
1.092490162E1,1.677700510E0,-1.125225462E0,-1.859887968E1,1.870826386E1
1.093493862E1,1.571132813E0,-9.442041443E-1,-1.772646809E1,1.782098905E1
1.094497550E1,1.741345114E0,-5.032211000E-1,-1.694680737E1,1.704346779E1
1.095501350E1,2.042174419E0,-1.926557424E-1,-1.600071501E1,1.613166059E1
1.096505050E1,2.152503923E0,-2.004568052E-2,-1.474867996E1,1.490493997E1
1.097508850E1,2.043852131E0,6.955734450E-2,-1.370856321E1,1.386026244E1
1.098512550E1,1.629660664E0,1.186692417E-2,-1.276986056E1,1.287343286E1
1.099516350E1,1.052057499E0,-9.441154128E-1,-1.118272275E1,1.127171092E1
1.100520050E1,1.038356303E0,-4.248490414E0,-7.278191290E0,8.491167356E0
1.101523850E1,1.550774269E0,-1.000923452E1,3.056417974E0,1.057976216E1
1.102527550E1,1.217598898E0,-1.653221171E1,2.075099652E1,2.655937551E1
1.103531350E1,2.898222139E0,-2.293774291E1,3.905820305E1,4.538813685E1
1.104535050E1,5.721155530E0,-2.698858164E1,5.211723883E1,5.896882009E1
1.105538750E1,6.495470139E0,-2.743633803E1,5.758686936E1,6.411857219E1
1.106542550E1,7.175686677E0,-2.651765391E1,5.387680168E1,6.047632766E1
1.107546250E1,5.926895660E0,-2.525453839E1,4.603578372E1,5.284139650E1
1.108550050E1,3.049053406E0,-2.198198744E1,3.917936671E1,4.502807207E1
1.109553750E1,1.079993887E0,-1.749965927E1,3.258687197E1,3.700417120E1
1.110557550E1,5.243298409E-1,-1.277888866E1,2.472848310E1,2.784012920E1
1.111561250E1,6.867863224E-1,-8.492518818E0,1.637770489E1,1.846141297E1
1.112565050E1,8.476891257E-1,-5.210819319E0,9.370131508E0,1.075502577E1
1.113568750E1,2.594922130E-1,-2.803517711E0,4.470348394E0,5.283092137E0
1.114572550E1,-6.301984312E-1,-1.088340934E0,1.020997528E0,1.619898763E0
1.115576250E1,-1.152535980E0,-1.806131825E-1,-1.348491306E0,1.783084156E0
1.116580050E1,-9.173055636E-1,4.052705169E-2,-2.952901207E0,3.092364383E0
1.117583750E1,-1.286443723E-1,9.329298355E-2,-4.606503149E0,4.609243346E0
1.118587450E1,6.653002900E-1,3.391401889E-1,-6.591457447E0,6.633622827E0
1.119591250E1,1.358549686E0,3.203754506E-1,-8.252302920E0,8.369516184E0
1.120594950E1,2.201095601E0,2.385050942E-1,-9.706340561E0,9.955639287E0
1.121598750E1,3.156195447E0,4.135063932E-1,-1.145654435E1,1.189054102E1
1.122602450E1,3.832315425E0,4.439874168E-1,-1.311702379E1,1.367260324E1
1.123606250E1,4.112009092E0,4.185185534E-1,-1.494776362E1,1.550868833E1
1.124609950E1,3.631960873E0,6.681401365E-1,-1.748465532E1,1.787038675E1
1.125613750E1,3.064270785E0,1.083782006E0,-1.992687591E1,2.019021353E1
1.126617450E1,2.880630499E0,1.152105844E0,-2.109690376E1,2.132380661E1
1.127621250E1,2.909919202E0,9.639459524E-1,-2.138543345E1,2.160401781E1
1.128624950E1,3.133983629E0,7.803656003E-1,-2.108196764E1,2.132792027E1
1.129628750E1,3.281091973E0,6.799215451E-1,-2.029560133E1,2.057034981E1
1.130632450E1,3.390708848E0,5.075044048E-1,-1.917704535E1,1.948110714E1
1.131636150E1,3.364567993E0,3.597028729E-1,-1.826530538E1,1.857608906E1
1.132639950E1,3.224078697E0,4.321109909E-1,-1.770391187E1,1.800027497E1
1.133643650E1,2.927339519E0,3.827172214E-1,-1.741507345E1,1.766353794E1
1.134647450E1,2.547255884E0,2.380448270E-1,-1.725648994E1,1.744510313E1
1.135651150E1,2.138080596E0,2.915494815E-1,-1.728120496E1,1.741540796E1
1.136654950E1,1.871135906E0,4.343441887E-1,-1.745707049E1,1.756243476E1
1.137658650E1,1.652986376E0,5.503232726E-1,-1.747966881E1,1.756627568E1
1.138662450E1,1.205094701E0,3.626599561E-1,-1.712573334E1,1.717191072E1
1.139666150E1,7.231087144E-1,6.338717982E-2,-1.645779303E1,1.647379299E1
1.140669950E1,3.941814917E-1,1.188504323E-1,-1.576700531E1,1.577237969E1
1.141673650E1,6.135892689E-2,3.366383115E-1,-1.517885728E1,1.518271381E1
1.142677350E1,-3.464367101E-1,4.165427792E-1,-1.445262842E1,1.446277962E1
1.143681150E1,-6.737953442E-1,4.155351943E-1,-1.377631607E1,1.379904178E1
1.144684850E1,-4.648159298E-1,-6.988157261E-1,-1.246541242E1,1.249363454E1
1.145688650E1,4.607983080E-1,-4.487907583E0,-6.969717336E0,8.302445982E0
1.146692350E1,1.601825871E0,-1.042123869E1,5.954169413E0,1.210868264E1
1.147696150E1,1.667744018E0,-1.811177855E1,2.533916631E1,3.119120455E1
1.148699850E1,2.058708298E0,-2.733048004E1,4.644528528E1,5.392919380E1
1.149703650E1,8.616030139E-1,-3.237524019E1,6.342782148E1,7.121788451E1
1.150707350E1,-1.441313077E0,-3.232275792E1,6.649131809E1,7.394547616E1
1.151711150E1,-5.213786781E-2,-3.092989501E1,5.661008965E1,6.450863023E1
1.152714850E1,1.370061830E0,-2.748665683E1,4.383187459E1,5.175544998E1
1.153718650E1,1.125202658E0,-2.206914370E1,3.458770497E1,4.104415329E1
1.154722350E1,6.501514699E-1,-1.627780053E1,2.781240521E1,3.223227219E1
1.155726050E1,-3.994948565E-1,-1.156353086E1,2.148193122E1,2.439975842E1
1.156729850E1,-4.144396454E-1,-8.719416513E0,1.509414282E1,1.743654587E1
1.157733550E1,2.541161916E-1,-6.478931290E0,9.011629361E0,1.110182820E1
1.158737350E1,6.669143408E-1,-4.059218967E0,3.612433219E0,5.474642191E0
1.159741050E1,1.821676940E0,-1.988213682E0,-1.741963896E0,3.210286394E0
1.160744850E1,2.632753871E0,-1.989845128E-1,-6.302582774E0,6.833266964E0
1.161748550E1,3.288959987E0,1.048179699E0,-9.727109871E0,1.032146331E1
1.162752350E1,4.125627257E0,1.547265501E0,-1.233099311E1,1.309458751E1
1.163756050E1,4.798144473E0,1.731868093E0,-1.431832489E1,1.519986793E1
1.164759850E1,5.222796755E0,1.542187341E0,-1.587902393E1,1.678688026E1
1.165763550E1,5.453986307E0,1.190396482E0,-1.755659712E1,1.842273359E1
1.166767350E1,5.194112654E0,8.668029428E-1,-1.966026860E1,2.035328758E1
1.167771050E1,4.570724621E0,6.022696441E-1,-2.127162792E1,2.176548660E1
1.168774750E1,3.953363314E0,5.322889978E-1,-2.237554482E1,2.272833955E1
1.169778550E1,3.511244521E0,6.612186411E-1,-2.344950058E1,2.372014177E1
1.170782250E1,3.471054853E0,6.710603821E-1,-2.381801316E1,2.407895958E1
1.171786050E1,3.415562730E0,5.684224516E-1,-2.331330255E1,2.356903156E1
1.172789750E1,3.296288887E0,5.018568715E-1,-2.216499827E1,2.241438220E1
1.173793550E1,3.265647722E0,3.127836451E-1,-2.076706467E1,2.102458712E1
1.174797250E1,3.159417263E0,4.373600364E-2,-1.930806976E1,1.956490194E1
1.175801050E1,2.934189532E0,-3.328425184E-2,-1.787482715E1,1.811408352E1
1.176804750E1,2.773682293E0,-3.279717878E-2,-1.669156705E1,1.692048462E1
1.177808550E1,2.645178912E0,-9.968947202E-2,-1.579571982E1,1.601598183E1
1.178812250E1,2.393246948E0,-1.306560338E-1,-1.508318748E1,1.527243420E1
1.179816050E1,2.051045084E0,-1.476707004E-1,-1.455532774E1,1.469986933E1
1.180819750E1,1.682257684E0,-1.660546388E-1,-1.415224292E1,1.425284339E1
1.181823550E1,1.364198973E0,-1.911739118E-1,-1.375212730E1,1.382094757E1
1.182827250E1,1.211118722E0,-2.696048080E-1,-1.329853306E1,1.335628978E1
1.183831050E1,8.732891860E-1,-3.833327505E-1,-1.266255714E1,1.269842239E1
1.184834750E1,7.242377387E-1,-1.024846238E-1,-1.207156034E1,1.209370053E1
1.185838450E1,6.890059255E-1,2.048324594E-1,-1.148133538E1,1.150381448E1
1.186842250E1,4.565872894E-1,2.380165411E-1,-1.067560543E1,1.068801549E1
1.187845950E1,2.672700879E-1,-2.343873936E-1,-8.893460641E0,8.900562506E0
1.188849750E1,1.646776195E-1,-1.845430377E0,-5.328042544E0,5.640990103E0
1.189853450E1,-1.118974350E-1,-4.861764226E0,1.289573007E0,5.031130187E0
1.190857250E1,-1.477936381E0,-8.535077192E0,1.144720518E1,1.435515047E1
1.191860950E1,-3.226316719E0,-1.245308882E1,2.287092093E1,2.624057097E1
1.192864750E1,-3.628306071E0,-1.567593259E1,3.258217315E1,3.633864987E1
1.193868450E1,-2.267581513E0,-1.793754205E1,3.848870296E1,4.252384738E1
1.194872242E1,-5.606287710E-1,-1.953878919E1,4.043215839E1,4.490921977E1
1.195875942E1,9.865379126E-1,-2.053085587E1,3.796460064E1,4.317175236E1
1.196879742E1,2.008423852E0,-2.060229013E1,3.452407557E1,4.025419132E1
1.197883442E1,1.141087351E0,-1.907424779E1,3.481059381E1,3.971028142E1
1.198887242E1,-3.073048040E-1,-1.681839316E1,3.606261600E1,3.979277645E1
1.199890942E1,-1.647745809E0,-1.420882525E1,3.377308959E1,3.667734126E1
1.200894642E1,-2.428770829E0,-1.152677292E1,2.692059256E1,2.938509359E1
1.201898442E1,-2.621920442E0,-8.711951957E0,1.782719223E1,2.001452863E1
1.202902142E1,-2.715912972E0,-5.736393959E0,9.606664830E0,1.151392236E1
1.203905942E1,-2.659847237E0,-3.452162207E0,3.590702042E0,5.646711644E0
1.204909642E1,-2.010097617E0,-1.927547504E0,-3.815875393E-1,2.810967958E0
1.205913442E1,-9.687221043E-1,-8.485697895E-1,-2.875957696E0,3.151130888E0
1.206917142E1,-2.042310367E-1,-3.047409827E-1,-4.813091710E0,4.827051812E0
1.207920942E1,5.292789608E-1,-3.938447651E-1,-6.548846447E0,6.581993597E0
1.208924642E1,1.417212316E0,-5.716595433E-1,-7.983313458E0,8.128258064E0
1.209928442E1,2.218223996E0,-5.813193628E-1,-9.364262073E0,9.640946741E0
1.210932142E1,2.620392857E0,-9.017537241E-1,-1.090263528E1,1.124931440E1
1.211935942E1,2.857041077E0,-1.153350424E0,-1.271103290E1,1.307911534E1
1.212939642E1,2.817895137E0,-9.635215907E-1,-1.507529023E1,1.536662885E1
1.213943442E1,2.565604154E0,-8.329364544E-1,-1.777581391E1,1.797931222E1
1.214947142E1,2.431927741E0,-7.294976015E-1,-1.988030869E1,2.004178417E1
1.215950942E1,2.476126260E0,-4.985686898E-1,-2.099993822E1,2.115129256E1
1.216954642E1,2.444758579E0,-3.325998589E-1,-2.139633734E1,2.153812245E1
1.217958342E1,2.334661940E0,-5.535331017E-1,-2.109959816E1,2.123558541E1
1.218962142E1,2.282349533E0,-9.412005758E-1,-2.026517008E1,2.041499685E1
1.219965842E1,2.235477814E0,-1.150507800E0,-1.944011158E1,1.960201437E1
1.220969642E1,2.262194180E0,-1.217201434E0,-1.900826196E1,1.918106161E1
1.221973342E1,2.254327775E0,-1.225339296E0,-1.884127367E1,1.901517929E1
1.222977142E1,2.086687371E0,-1.142721355E0,-1.880601145E1,1.895589995E1
1.223980842E1,2.156375072E0,-8.560940596E-1,-1.896196838E1,1.910337916E1
1.224984642E1,2.350343588E0,-3.366233280E-1,-1.915595444E1,1.930253923E1
1.225988342E1,2.143762336E0,-1.953063583E-1,-1.911928889E1,1.924009016E1
1.226992142E1,1.750472764E0,-4.715602545E-1,-1.884011241E1,1.892713289E1
1.227995842E1,1.234920982E0,-7.887304808E-1,-1.828452167E1,1.834314200E1
1.228999642E1,7.803176531E-1,-9.828337745E-1,-1.743943763E1,1.748453152E1
1.230003342E1,5.000378758E-1,-9.896912429E-1,-1.656814168E1,1.660520537E1
1.231007142E1,2.840854376E-1,-5.690668148E-1,-1.585561636E1,1.586836827E1
1.232010842E1,2.407015094E-1,-4.794636436E-2,-1.549365500E1,1.549559877E1
1.233014642E1,4.006920374E-1,3.240733760E-1,-1.568560505E1,1.569406842E1
1.234018342E1,6.067743391E-1,-3.730066042E-1,-1.555310481E1,1.556940520E1
1.235022042E1,8.271560432E-1,-3.834482695E0,-1.240644909E1,1.301181862E1
1.236025842E1,1.912927272E0,-9.948531064E0,-8.372546232E-1,1.016531143E1
1.237029542E1,3.348362143E0,-1.625577524E1,1.944079103E1,2.556180967E1
1.238033342E1,7.756193569E0,-2.341394015E1,4.242482868E1,4.907379362E1
1.239037042E1,1.286209688E1,-2.811940041E1,6.127151336E1,6.863186260E1
1.240040842E1,1.224725163E1,-2.905925378E1,6.637776516E1,7.348770721E1
1.241044542E1,8.669652615E0,-2.728901158E1,5.850754387E1,6.513820476E1
1.242048342E1,4.834663551E0,-2.548678044E1,4.632532848E1,5.309412404E1
1.243052042E1,1.531733689E0,-2.146051638E1,3.855781237E1,4.415433009E1
1.244055842E1,1.430433601E-1,-1.585388441E1,3.223469651E1,3.592271943E1
1.245059542E1,3.077275577E-1,-1.086212810E1,2.559195080E1,2.780338952E1
1.246063342E1,3.725219431E-1,-6.913496357E0,1.880290190E1,2.003707375E1
1.247067042E1,-1.086477719E-1,-4.067726081E0,1.227682568E1,1.293362473E1
1.248070842E1,-8.974955624E-1,-2.229498743E0,6.821031997E0,7.232056446E0
1.249074542E1,-1.450275981E0,-1.096029438E0,2.467078278E0,3.064483020E0
1.250078342E1,-9.827778605E-1,-4.540903822E-1,-9.969374049E-1,1.471711448E0
1.251082042E1,2.005173604E-1,3.077111855E-1,-3.876314553E0,3.893675372E0
1.252085842E1,9.909658628E-1,8.893071216E-1,-6.304873129E0,6.443935573E0
1.253089542E1,1.311251997E0,7.902174278E-1,-8.377222250E0,8.515966064E0
1.254093342E1,1.611889806E0,3.385559059E-1,-1.000578700E1,1.014044291E1
1.255097042E1,2.178283274E0,-2.532359298E-1,-1.125001134E1,1.146175386E1
1.256100742E1,2.858874471E0,-5.571051657E-1,-1.233751978E1,1.267666848E1
1.257104542E1,3.640373554E0,-3.531189081E-1,-1.412624152E1,1.459204276E1
1.258108242E1,4.115784346E0,1.208620937E-1,-1.664532961E1,1.714704891E1
1.259112042E1,3.844744266E0,2.341600831E-1,-1.895913599E1,1.934646549E1
1.260115742E1,3.151677303E0,8.570380926E-2,-2.081872131E1,2.105610534E1
1.261119542E1,2.343305002E0,-2.291921425E-1,-2.220059612E1,2.232509968E1
1.262123242E1,2.091672707E0,-4.325890008E-1,-2.271606794E1,2.281626549E1
1.263127042E1,2.334493540E0,-5.265309522E-1,-2.241433290E1,2.254172608E1
1.264130742E1,2.856181536E0,-4.287850946E-1,-2.180917883E1,2.199958888E1
1.265134542E1,3.444489199E0,-2.234604093E-1,-2.108591568E1,2.136656922E1
1.266138242E1,3.805925771E0,-1.334659132E-1,-2.046994659E1,2.082118146E1
1.267142042E1,3.836210840E0,-1.786198667E-1,-2.005251153E1,2.041694485E1
1.268145742E1,3.399337292E0,-2.996578154E-1,-1.969369831E1,1.998717193E1
1.269149542E1,2.677086291E0,-6.091844152E-1,-1.938292815E1,1.957640928E1
1.270153242E1,1.934987501E0,-9.705781567E-1,-1.897597247E1,1.909905049E1
1.271157042E1,1.357724352E0,-1.269503316E0,-1.821116952E1,1.830578459E1
1.272160742E1,9.901103421E-1,-1.512345637E0,-1.724472301E1,1.733920354E1
1.273164542E1,7.185066634E-1,-1.573415712E0,-1.609598487E1,1.618865707E1
1.274168242E1,3.695918302E-1,-1.620714278E0,-1.475909502E1,1.485241390E1
1.275172042E1,6.486243233E-2,-1.394946557E0,-1.374415989E1,1.381491998E1
1.276175742E1,9.046519697E-3,-8.601751238E-1,-1.287094372E1,1.289965795E1
1.277179542E1,-3.413940713E-1,-6.955828737E-1,-1.141792349E1,1.144418465E1
1.278183242E1,-1.184251570E-1,-1.171111049E0,-9.415953214E0,9.489241304E0
1.279187042E1,1.148216349E0,-3.156440738E0,-4.455805199E0,5.579938968E0
1.280190742E1,1.962904447E0,-6.414066373E0,6.094760451E0,9.063075982E0
1.281194542E1,2.469151993E0,-1.001499169E1,2.016935760E1,2.265391260E1
1.282198242E1,5.420296989E0,-1.333749539E1,3.410930683E1,3.702314432E1
1.283201942E1,9.669934042E0,-1.684404606E1,4.261006847E1,4.682784905E1
1.284205742E1,1.250183121E1,-1.906534716E1,4.588597338E1,5.123773803E1
1.285209442E1,1.280627468E1,-1.965848403E1,4.552287532E1,5.121317060E1
1.286213242E1,1.074272796E1,-1.964369292E1,4.332961279E1,4.877228947E1
1.287216942E1,6.589647149E0,-1.876664565E1,4.228739572E1,4.673151266E1
1.288220742E1,2.059292289E0,-1.646091661E1,4.067002780E1,4.392326971E1
1.289224442E1,-3.702853100E-1,-1.357919590E1,3.514262678E1,3.767672875E1
1.290228242E1,-8.493305122E-1,-1.066065410E1,2.589314087E1,2.801473992E1
1.291231942E1,-5.251689894E-1,-7.732638645E0,1.601862504E1,1.779510750E1
1.292235742E1,1.137516968E-1,-4.923753775E0,8.327153712E0,9.674594546E0
1.293239442E1,1.615402521E0,-2.426271729E0,2.636485564E0,3.930314992E0
1.294243242E1,2.964205922E0,-2.565534938E-1,-1.967338391E0,3.566897361E0
1.295246967E1,3.457392834E0,1.347198925E0,-6.174724633E0,7.203869408E0
1.296250767E1,3.506813208E0,2.283786778E0,-1.048944412E1,1.129344318E1
1.297254467E1,3.208130124E0,3.000250498E0,-1.397586516E1,1.464986038E1
1.298258267E1,2.582070206E0,3.165297807E0,-1.613250073E1,1.664162782E1
1.299261967E1,2.149050850E0,2.881358185E0,-1.736043941E1,1.772866326E1
1.300265767E1,2.088936795E0,2.674684839E0,-1.819458097E1,1.850838655E1
1.301269467E1,2.293223600E0,2.582066697E0,-1.878698695E1,1.910174917E1
1.302273267E1,2.108901236E0,2.357677019E0,-1.940747944E1,1.966357962E1
1.303276967E1,1.916795497E0,1.962051777E0,-1.970289013E1,1.989290405E1
1.304280767E1,1.878571518E0,1.238826922E0,-1.922103512E1,1.935231031E1
1.305284467E1,1.702580852E0,4.432737641E-1,-1.817997112E1,1.826490140E1
1.306288267E1,1.516819634E0,-1.121696229E-1,-1.702566292E1,1.709346430E1
1.307291967E1,1.430328351E0,-3.186380236E-1,-1.610421424E1,1.617074784E1
1.308295767E1,1.540560353E0,-3.261256756E-1,-1.570466932E1,1.578341923E1
1.309299467E1,1.823398945E0,-1.684879576E-1,-1.579564497E1,1.590143302E1
1.310303267E1,2.160721600E0,1.533223267E-1,-1.604418906E1,1.618975689E1
1.311306967E1,2.500203632E0,5.503609872E-1,-1.640392848E1,1.660249334E1
1.312310767E1,2.779685630E0,9.323758118E-1,-1.690819236E1,1.716050540E1
1.313314467E1,3.096931577E0,1.333157275E0,-1.740072789E1,1.772437939E1
1.314318167E1,3.104030097E0,1.474262137E0,-1.755886818E1,1.789196198E1
1.315321967E1,2.890896748E0,1.343463724E0,-1.736069201E1,1.765094348E1
1.316325767E1,2.627198431E0,1.145356403E0,-1.676564660E1,1.700884825E1
1.317329467E1,2.480763686E0,1.006060962E0,-1.590469087E1,1.612840782E1
1.318333167E1,2.512194225E0,1.147449487E0,-1.494508794E1,1.519813849E1
1.319336967E1,2.538951961E0,1.533151492E0,-1.391015649E1,1.422284375E1
1.320340667E1,2.565089892E0,1.905429972E0,-1.251413843E1,1.291564982E1
1.321344467E1,2.723879219E0,1.768985633E0,-1.008981967E1,1.059968345E1
1.322348167E1,3.430038975E0,1.200401214E-1,-5.489902244E0,6.474457788E0
1.323351967E1,3.957223061E0,-2.887040801E0,4.003986168E0,6.326651893E0
1.324355667E1,3.248516550E0,-5.764412062E0,1.711255956E1,1.834723415E1
1.325359467E1,3.887725394E0,-9.670322882E0,2.941182218E1,3.120392342E1
1.326363167E1,6.545084934E0,-1.545547502E1,4.119993991E1,4.448758134E1
1.327366967E1,8.343864470E0,-2.094790735E1,5.016461028E1,5.499930019E1
1.328370667E1,7.889887816E0,-2.291000138E1,5.141790248E1,5.684117512E1
1.329374467E1,6.633752697E0,-2.177523925E1,4.598392126E1,5.130973332E1
1.330378167E1,4.144174333E0,-1.932628500E1,4.060808942E1,4.516299812E1
1.331381967E1,1.181545259E0,-1.610243786E1,3.689122961E1,4.026968309E1
1.332385667E1,-8.059248032E-1,-1.244498809E1,3.045008653E1,3.290493904E1
1.333389467E1,-2.180689842E0,-8.816403109E0,2.055056566E1,2.246797990E1
1.334393167E1,-2.943189274E0,-5.362234722E0,1.031416331E1,1.199157575E1
1.335396967E1,-3.342393013E0,-2.213624576E0,2.320127224E0,4.631923483E0
1.336400667E1,-3.274983679E0,7.888975650E-2,-1.901808060E0,3.787956651E0
1.337404467E1,-2.239951957E0,1.558286480E0,-3.250752525E0,4.244176422E0
1.338408167E1,-9.623693968E-1,2.260578595E0,-3.828677287E0,4.549191160E0
1.339411967E1,-1.390644760E-1,2.577422839E0,-4.845881726E0,5.490447807E0
1.340415667E1,2.644545074E-1,2.690146924E0,-6.390600911E0,6.938775588E0
1.341419467E1,4.644796418E-1,2.802408494E0,-8.354288301E0,8.824022196E0
1.342423167E1,6.518244313E-1,2.877549893E0,-1.014378246E1,1.056416069E1
1.343426967E1,7.967405815E-1,2.916239165E0,-1.126253491E1,1.166121516E1
1.344430667E1,8.302069011E-1,2.809535373E0,-1.208290394E1,1.243299241E1
1.345434467E1,7.684059978E-1,2.507482831E0,-1.291659644E1,1.318015104E1
1.346438167E1,6.278399567E-1,2.090265283E0,-1.417975523E1,1.434673658E1
1.347441967E1,7.533956105E-1,1.819714030E0,-1.612061802E1,1.624048304E1
1.348445667E1,9.293337978E-1,1.743542644E0,-1.760145228E1,1.771199381E1
1.349449467E1,1.053998263E0,1.613826404E0,-1.819363138E1,1.829545219E1
1.350453167E1,1.300354103E0,1.448747081E0,-1.837346718E1,1.847631146E1
1.351456967E1,1.838766159E0,1.533197539E0,-1.859837682E1,1.875183660E1
1.352460667E1,2.517079281E0,1.892144367E0,-1.889145096E1,1.915209696E1
1.353464467E1,2.777449070E0,2.066520178E0,-1.900583887E1,1.931855689E1
1.354468167E1,2.724913006E0,1.766065680E0,-1.878820083E1,1.906674144E1
1.355471967E1,2.546413008E0,1.225784415E0,-1.818176037E1,1.840008632E1
1.356475667E1,2.253565883E0,5.776534510E-1,-1.720155185E1,1.735815741E1
1.357479467E1,1.932261821E0,1.374389501E-1,-1.621302624E1,1.632834178E1
1.358483167E1,1.645514366E0,-1.479301706E-1,-1.532378637E1,1.541259321E1
1.359486967E1,1.404310434E0,-2.919147862E-1,-1.469261686E1,1.476246227E1
1.360490667E1,1.134179889E0,-3.868198837E-1,-1.411930087E1,1.417006178E1
1.361494467E1,6.605753012E-1,-5.219229077E-1,-1.350754529E1,1.353375569E1
1.362498167E1,1.604539198E-1,-6.343482732E-1,-1.277292217E1,1.278967098E1
1.363501967E1,-7.442398940E-1,-1.018878935E0,-1.128298379E1,1.135331364E1
1.364505667E1,-1.759987938E0,-2.211520163E0,-8.658331820E0,9.107968428E0
1.365509467E1,-1.899668857E0,-4.717640008E0,-4.079012377E0,6.519448671E0
1.366513167E1,-2.005802106E0,-7.339956599E0,3.503716523E0,8.377006293E0
1.367516967E1,-2.484179922E0,-9.452822832E0,1.262526126E1,1.596634683E1
1.368520667E1,-1.143488510E0,-1.229009652E1,2.142449285E1,2.472575443E1
1.369524467E1,2.276254980E0,-1.573244593E1,3.013022279E1,3.406642800E1
1.370528167E1,5.888163704E0,-1.790013507E1,3.733896026E1,4.182443378E1
1.371531967E1,8.198164135E0,-1.736631235E1,4.092331048E1,4.520526562E1
1.372535667E1,8.387640234E0,-1.577227833E1,3.937723649E1,4.323984304E1
1.373539467E1,6.581517765E0,-1.430806887E1,3.668206301E1,3.992005708E1
1.374543167E1,2.939498219E0,-1.292660570E1,3.559276181E1,3.798134382E1
1.375546967E1,-5.381252499E-1,-1.122299603E1,3.268287623E1,3.456031854E1
1.376550667E1,-3.008700894E0,-9.209702622E0,2.690479104E1,2.859613059E1
1.377554467E1,-4.330001477E0,-7.013308328E0,1.996100260E1,2.159576420E1
1.378558167E1,-4.454486944E0,-4.487022314E0,1.393330679E1,1.530074708E1
1.379561967E1,-3.728264807E0,-2.260197649E0,8.792098573E0,9.813737779E0
1.380565667E1,-2.609771098E0,-4.551051664E-1,3.795421248E0,4.628525504E0
1.381569467E1,-1.777837441E0,8.059177865E-1,-1.364406257E0,2.381557028E0
1.382573167E1,-1.342667479E0,1.478866673E0,-5.742446412E0,6.079925443E0
1.383576967E1,-1.114432233E0,1.741320263E0,-8.680417339E0,8.923216944E0
1.384580667E1,-7.051606860E-1,1.880266041E0,-1.123783627E1,1.141584933E1
1.385584467E1,-1.560823587E-1,2.034012875E0,-1.383092321E1,1.398055818E1
1.386588167E1,2.394518133E-1,2.201593930E0,-1.624894920E1,1.639916776E1
1.387591967E1,4.315308740E-1,2.424701167E0,-1.830265974E1,1.846761349E1
1.388595667E1,5.065002917E-1,2.521866396E0,-1.981018654E1,1.997648225E1
1.389599467E1,7.233385831E-1,2.683384034E0,-2.076784819E1,2.095297800E1
1.390603167E1,8.512263988E-1,2.872176887E0,-2.116633828E1,2.137727444E1
1.391606967E1,1.003686115E0,2.877313666E0,-2.099242337E1,2.121245292E1
1.392610667E1,1.177976265E0,2.823318138E0,-2.049519019E1,2.072224829E1
1.393614467E1,1.287770456E0,2.750312726E0,-1.976690077E1,1.999882344E1
1.394618167E1,1.258916347E0,2.513381794E0,-1.887752991E1,1.908567772E1
1.395621838E1,1.216428870E0,2.203853294E0,-1.782639934E1,1.800325476E1
1.396625637E1,1.210240981E0,1.979061474E0,-1.665910682E1,1.681984565E1
1.397629437E1,1.231582368E0,1.712768894E0,-1.554544028E1,1.568792803E1
1.398633137E1,1.245187670E0,1.432726879E0,-1.450533522E1,1.462901051E1
1.399636837E1,1.091939383E0,1.159961651E0,-1.367870382E1,1.377115757E1
1.400640637E1,8.461118393E-1,8.441581383E-1,-1.296836886E1,1.302332903E1
1.401644337E1,6.780361104E-1,5.993966878E-1,-1.223059291E1,1.226402921E1
1.402648137E1,7.537812343E-1,4.384821536E-1,-1.129124357E1,1.132486795E1
1.403651937E1,6.234441662E-1,3.216088477E-1,-1.004370970E1,1.006817856E1
1.404655637E1,3.508140819E-1,9.157291543E-2,-8.832201117E0,8.839639850E0
1.405659437E1,-1.119911915E-1,-4.124701204E-1,-7.275569984E0,7.288113076E0
1.406663137E1,-1.003978403E0,-1.256910168E0,-4.962259444E0,5.216494474E0
1.407666837E1,-1.648992874E0,-2.291865584E0,-2.083642434E0,3.509044193E0
1.408670638E1,-1.338099926E0,-3.807941306E0,8.870489269E-1,4.132527580E0
1.409674437E1,-7.030179007E-1,-6.010372850E0,4.116268496E0,7.318639374E0
1.410678138E1,-3.271559184E-1,-8.048517514E0,8.056454524E0,1.139263467E1
1.411681937E1,6.751893204E-1,-9.517931578E0,1.224794277E1,1.552607498E1
1.412685637E1,3.588672473E0,-1.203293247E1,1.686379094E1,2.102516299E1
1.413689437E1,7.669702724E0,-1.557178082E1,2.251033249E1,2.842568850E1
1.414693137E1,1.033598979E1,-1.792336255E1,2.892743415E1,3.556509605E1
1.415696937E1,9.221048559E0,-1.866419308E1,3.355775067E1,3.949053646E1
1.416700637E1,5.757060943E0,-1.874841170E1,3.666555047E1,4.158135740E1
1.417704437E1,1.503684011E0,-1.774593464E1,3.852454873E1,4.244196174E1
1.418708137E1,-2.070818174E0,-1.587547350E1,3.612216404E1,3.951113364E1
1.419711937E1,-3.524308370E0,-1.321432847E1,3.058947480E1,3.350753937E1
1.420715637E1,-3.184234892E0,-9.760663533E0,2.421535953E1,2.630196839E1
1.421719437E1,-2.045137642E0,-6.328896414E0,1.759674176E1,1.881177393E1
1.422723137E1,-7.999558923E-1,-3.272478147E0,1.156606972E1,1.204670127E1
1.423726938E1,4.675645597E-1,-9.684630726E-1,6.349867453E0,6.440291454E0
1.424730637E1,1.353100520E0,8.907407127E-1,1.958878639E0,2.541949165E0
1.425734438E1,1.660304898E0,2.202533870E0,-1.709982550E0,3.245274737E0
1.426738137E1,1.777143522E0,2.736468859E0,-4.880334690E0,5.870619014E0
1.427741937E1,1.536905259E0,2.586891235E0,-7.729485826E0,8.294518381E0
1.428745637E1,1.101642253E0,2.022986635E0,-1.004933589E1,1.030995841E1
1.429749437E1,9.081301859E-1,1.361404151E0,-1.192761008E1,1.203935230E1
1.430753137E1,9.074055697E-1,6.784348905E-1,-1.354133050E1,1.358864565E1
1.431756937E1,1.183334653E0,3.280376420E-1,-1.506565518E1,1.511561629E1
1.432760637E1,1.671517226E0,5.003523099E-1,-1.641086328E1,1.650335590E1
1.433764437E1,2.220426642E0,9.353103101E-1,-1.774107092E1,1.790392966E1
1.434768137E1,2.654121351E0,1.461251644E0,-1.913918346E1,1.937751171E1
1.435771937E1,3.158770268E0,1.899930519E0,-2.003856475E1,2.037477957E1
1.436775637E1,3.430540373E0,2.016705702E0,-2.027749835E1,2.066428437E1
1.437779437E1,3.426844933E0,1.810566646E0,-2.004583868E1,2.041707781E1
1.438783138E1,3.363999936E0,1.501520395E0,-1.951368476E1,1.985837234E1
1.439786937E1,3.298789156E0,1.195924147E0,-1.885881181E1,1.918246666E1
1.440790638E1,3.104829412E0,7.804454148E-1,-1.831127502E1,1.858902509E1
1.441794437E1,2.756312554E0,3.216465622E-1,-1.788225429E1,1.809629061E1
1.442798137E1,2.334786047E0,-8.403983787E-2,-1.735316196E1,1.750972640E1
1.443801937E1,1.949908426E0,-4.389180270E-1,-1.693448612E1,1.705202662E1
1.444805637E1,1.513014705E0,-5.946723568E-1,-1.659703395E1,1.667646199E1
1.445809437E1,1.005430778E0,-7.382627971E-1,-1.621562241E1,1.626352770E1
1.446813137E1,6.464668469E-1,-9.641713625E-1,-1.569344968E1,1.573632449E1
1.447816937E1,3.092539734E-1,-1.179495225E0,-1.495483641E1,1.500446531E1
1.448820637E1,3.413622770E-2,-1.397236619E0,-1.422625697E1,1.429474809E1
1.449824437E1,-1.665806689E-1,-1.634907809E0,-1.343295236E1,1.353310318E1
1.450828137E1,-7.904423263E-1,-2.160697626E0,-1.198078115E1,1.219969386E1
1.451831937E1,-1.358336117E0,-3.752625477E0,-8.674140937E0,9.548193336E0
1.452835637E1,-1.371946680E0,-6.279957558E0,-1.819512008E0,6.680623367E0
1.453839438E1,-1.744797602E0,-8.325561515E0,9.399838872E0,1.267739185E1
1.454843137E1,-2.050087894E0,-9.309210538E0,2.042966863E1,2.254408174E1
1.455846938E1,2.529210207E-1,-1.062615787E1,2.726263596E1,2.926141691E1
1.456850637E1,4.022055234E0,-1.197301956E1,3.064607818E1,3.314682841E1
1.457854437E1,7.513724154E0,-1.262820475E1,3.224874152E1,3.543880550E1
1.458858137E1,9.259802735E0,-1.317633093E1,3.312002109E1,3.682791659E1
1.459861937E1,9.515374591E0,-1.346241063E1,3.419431131E1,3.796089804E1
1.460865637E1,7.752456028E0,-1.377008644E1,3.668019190E1,3.993935819E1
1.461869437E1,4.493220655E0,-1.341689591E1,3.871803309E1,4.122242368E1
1.462873137E1,1.509974445E0,-1.200830633E1,3.681406273E1,3.875247939E1
1.463876937E1,-3.679740518E-2,-9.844463489E0,3.106172868E1,3.258444113E1
1.464880637E1,-1.788734166E-1,-7.605690916E0,2.315328531E1,2.437115407E1
1.465884437E1,3.375234338E-1,-5.351655355E0,1.517456542E1,1.609414716E1
1.466888137E1,1.041832400E0,-3.323443356E0,9.029228311E0,9.677688483E0
1.467891937E1,1.968102037E0,-1.866285348E0,3.801549130E0,4.669927453E0
1.468895638E1,2.719599642E0,-7.458531408E-1,-1.098099498E0,3.026275207E0
1.469899437E1,3.204158403E0,1.404417511E-1,-5.515372131E0,6.380100681E0
1.470903138E1,3.018238872E0,3.993704570E-1,-9.288126063E0,9.774382252E0
1.471906937E1,2.400731384E0,-4.043075535E-2,-1.211122084E1,1.234693549E1
1.472910638E1,1.858859384E0,-1.032344123E0,-1.378212235E1,1.394517799E1
1.473914437E1,1.600598979E0,-2.136351575E0,-1.479669028E1,1.503555647E1
1.474918137E1,1.662821247E0,-2.721967764E0,-1.570258069E1,1.602326819E1
1.475921937E1,1.934092000E0,-2.988844042E0,-1.615288880E1,1.654054767E1
1.476925637E1,2.663182781E0,-3.316883365E0,-1.615043999E1,1.670122659E1
1.477929437E1,3.552643100E0,-3.478553323E0,-1.645561904E1,1.719037533E1
1.478933137E1,4.271586331E0,-3.414754061E0,-1.737420258E1,1.821455216E1
1.479936937E1,4.809508829E0,-2.851214326E0,-1.926089091E1,2.005598955E1
1.480940637E1,5.044836747E0,-1.914361740E0,-2.141314224E1,2.208252293E1
1.481944437E1,4.968925855E0,-1.273382359E0,-2.303808580E1,2.360222710E1
1.482948137E1,4.724283029E0,-1.096339486E0,-2.377960864E1,2.426912849E1
1.483951938E1,4.215558311E0,-1.140982978E0,-2.379772799E1,2.419513653E1
1.484955637E1,3.861895319E0,-1.573546835E0,-2.329312966E1,2.366347765E1
1.485959438E1,3.674148241E0,-2.387744426E0,-2.220440617E1,2.263263887E1
1.486963137E1,3.453712304E0,-2.953574806E0,-2.041507164E1,2.091475276E1
1.487966937E1,3.365778367E0,-3.006552919E0,-1.833886219E1,1.888601839E1
1.488970637E1,3.286579585E0,-2.793517218E0,-1.648084042E1,1.703594566E1
1.489974437E1,3.214491017E0,-2.766340529E0,-1.500853256E1,1.559620602E1
1.490978237E1,2.835884389E0,-2.670329833E0,-1.386300689E1,1.439985630E1
1.491981937E1,2.518940157E0,-2.208412076E0,-1.295889637E1,1.338488470E1
1.492985737E1,2.269208354E0,-1.882369284E0,-1.189279225E1,1.225280083E1
1.493989437E1,1.419434258E0,-2.489724544E0,-9.644591625E0,1.006139501E1
1.494993242E1,2.917210241E-1,-4.057145544E0,-4.795771673E0,6.288478120E0
1.495996942E1,-6.882999473E-1,-6.011501362E0,4.020172430E0,7.264550352E0
1.497000742E1,-2.328896585E0,-7.918598229E0,1.634281572E1,1.830889355E1
1.498004442E1,-2.588118273E0,-1.027945657E1,2.703973542E1,2.904329312E1
1.499008242E1,-8.235483111E-1,-1.268987299E1,3.223837090E1,3.465578836E1
1.500011942E1,2.465641617E0,-1.400942350E1,3.455101018E1,3.736463087E1
1.501015742E1,6.520487452E0,-1.526145856E1,3.653923190E1,4.013158783E1
1.502019442E1,9.403020342E0,-1.573034093E1,3.862463435E1,4.275187476E1
1.503023242E1,1.030544394E1,-1.499848939E1,4.087403482E1,4.474196667E1
1.504026942E1,9.302289773E0,-1.369532862E1,4.163923888E1,4.480982968E1
1.505030742E1,7.404620957E0,-1.125575097E1,3.927200532E1,4.151879988E1
1.506034442E1,5.512263751E0,-8.248915043E0,3.306012923E1,3.451668866E1
1.507038242E1,3.999714192E0,-5.645382632E0,2.434641434E1,2.531039213E1
1.508041942E1,3.416921623E0,-3.168395078E0,1.509911763E1,1.580181743E1
1.509045742E1,3.235307105E0,-8.295642190E-1,6.522579585E0,7.327989718E0
1.510049442E1,3.043071705E0,9.141596885E-1,-8.970505893E-2,3.178682169E0
1.511053242E1,2.485577407E0,1.871273462E0,-5.163275024E0,6.028197772E0
1.512056942E1,1.511245045E0,2.316521392E0,-9.165194786E0,9.573449138E0
1.513060742E1,6.992269316E-1,2.437335392E0,-1.140901000E1,1.168738770E1
1.514064442E1,2.550481281E-1,1.857380331E0,-1.263179845E1,1.277017005E1
1.515068242E1,-2.318677279E-2,8.526276840E-1,-1.360680762E1,1.363351478E1
1.516071942E1,-2.530908275E-1,-6.928676460E-2,-1.424317414E1,1.424559108E1
1.517075742E1,-3.386454414E-1,-9.074308589E-1,-1.443142641E1,1.446389228E1
1.518079442E1,-2.920206209E-1,-1.716997747E0,-1.413277403E1,1.423968606E1
1.519083242E1,9.702036425E-2,-2.495085272E0,-1.356594377E1,1.379382811E1
1.520086942E1,8.297117881E-1,-3.049455695E0,-1.318890712E1,1.356225913E1
1.521090742E1,1.679017157E0,-3.563772106E0,-1.326291767E1,1.383562631E1
1.522094442E1,2.368911275E0,-3.845344775E0,-1.389165123E1,1.460740877E1
1.523098242E1,3.232007521E0,-3.389837905E0,-1.531472552E1,1.601492090E1
1.524101942E1,4.044285471E0,-1.921429416E0,-1.758513621E1,1.814621590E1
1.525105742E1,4.466193070E0,-2.084814508E-1,-1.993799030E1,2.043315448E1
1.526109442E1,4.503619928E0,8.613010052E-1,-2.148130908E1,2.196522414E1
1.527113242E1,4.081917858E0,1.163180909E0,-2.201790104E1,2.242326937E1
1.528116942E1,3.393318753E0,8.806364317E-1,-2.184129174E1,2.212085345E1
1.529120742E1,2.778546592E0,3.074886990E-1,-2.143941494E1,2.162090155E1
1.530124442E1,2.306636674E0,-7.163716257E-2,-2.107991175E1,2.120585731E1
1.531128242E1,2.241203407E0,-5.019980818E-2,-2.021087517E1,2.033482206E1
1.532132042E1,2.436442815E0,3.156122357E-2,-1.878967199E1,1.894700565E1
1.533135742E1,2.819171292E0,-1.518944366E-1,-1.672622233E1,1.696282147E1
1.534139542E1,3.041812799E0,-6.468676735E-1,-1.407256876E1,1.441208709E1
1.535143242E1,2.549481042E0,-1.193754684E0,-1.156935118E1,1.190692196E1
1.536147042E1,1.544337216E0,-2.132855232E0,-9.554349207E0,9.910582104E0
1.537150742E1,5.639529862E-1,-3.992791674E0,-6.305632682E0,7.484746611E0
1.538154542E1,-7.383202460E-2,-6.620559039E0,1.938397012E0,6.898886587E0
1.539158242E1,-2.055943004E0,-8.080635100E0,1.653917692E1,1.852209325E1
1.540162042E1,-2.918005317E0,-9.001057595E0,3.102982861E1,3.244046942E1
1.541165742E1,-1.884728636E-1,-1.080667428E1,3.644247685E1,3.801149629E1
1.542169542E1,4.202295071E0,-1.127666997E1,3.303451609E1,3.515823975E1
1.543173242E1,8.235140757E0,-1.072358535E1,2.771038767E1,3.083307333E1
1.544177042E1,1.081681101E1,-1.190381425E1,2.661645081E1,3.109886891E1
1.545180742E1,1.225779299E1,-1.375007142E1,3.081146551E1,3.589797153E1
1.546184542E1,1.167732118E1,-1.369633200E1,3.718100826E1,4.130831291E1
1.547188242E1,9.205704296E0,-1.159422874E1,4.035880624E1,4.298842138E1
1.548192042E1,6.789212619E0,-9.239159725E0,3.708425555E1,3.881620139E1
1.549195742E1,5.022503307E0,-7.371072557E0,2.881461096E1,3.016355508E1
1.550199542E1,3.996007350E0,-5.313466605E0,1.911063852E1,2.023406797E1
1.551203242E1,3.402194826E0,-3.046199088E0,1.074127668E1,1.167173009E1
1.552207042E1,2.919570616E0,-1.081627453E0,4.255638635E0,5.272975509E0
1.553210742E1,2.754194108E0,1.749997093E-1,-4.723468512E-1,2.799878860E0
1.554214542E1,2.532113349E0,7.953312564E-1,-3.778626875E0,4.617593625E0
1.555218242E1,2.052100068E0,1.005965287E0,-6.352671778E0,6.751260590E0
1.556222042E1,1.729278215E0,9.619980986E-1,-8.870541894E0,9.088583882E0
1.557225742E1,1.495025600E0,6.750300568E-1,-1.128007188E1,1.139871873E1
1.558229542E1,1.118945553E0,1.189564679E-1,-1.342958436E1,1.347664372E1
1.559233242E1,4.083913586E-1,-5.179112061E-1,-1.538112299E1,1.539525771E1
1.560237042E1,-1.199502935E-1,-1.084399691E0,-1.706153676E1,1.709638404E1
1.561240742E1,5.411159545E-3,-1.615040724E0,-1.804435314E1,1.811648603E1
1.562244542E1,7.250591994E-1,-1.821826044E0,-1.866717984E1,1.876987917E1
1.563248342E1,1.929415689E0,-1.256723349E0,-1.934863657E1,1.948516706E1
1.564252042E1,3.046290304E0,-3.910198291E-1,-2.013508824E1,2.036797878E1
1.565255842E1,3.402161789E0,-6.520449445E-2,-2.056685600E1,2.084645107E1
1.566259542E1,3.164486214E0,-3.339469112E-1,-2.088366750E1,2.112470265E1
1.567263342E1,2.463047792E0,-9.169466177E-1,-2.113110296E1,2.129391715E1
1.568267042E1,1.532325865E0,-1.636107658E0,-2.126990182E1,2.138769727E1
1.569270842E1,5.375772196E-1,-2.169391559E0,-2.134167757E1,2.145838881E1
1.570274542E1,-8.090880007E-2,-2.315893109E0,-2.152424167E1,2.164862320E1
1.571278342E1,3.619677188E-1,-1.962947424E0,-2.089557945E1,2.099069851E1
1.572282042E1,1.193428263E0,-1.342044020E0,-1.923379024E1,1.931745428E1
1.573285842E1,1.787620417E0,-7.985210587E-1,-1.731143272E1,1.742179455E1
1.574289542E1,2.084055540E0,-5.103196929E-1,-1.558818342E1,1.573515733E1
1.575293342E1,2.070692605E0,-1.942153410E-1,-1.435987754E1,1.450970608E1
1.576297042E1,1.925723172E0,1.638930693E-1,-1.375299152E1,1.388812610E1
1.577300842E1,1.803353520E0,2.404446157E-1,-1.347863432E1,1.360086323E1
1.578304542E1,1.835499904E0,-2.420172060E-1,-1.320450398E1,1.333366258E1
1.579308342E1,1.868327781E0,-1.927760489E0,-1.092123761E1,1.124634785E1
1.580312042E1,1.251950705E0,-4.812209950E0,-4.584829275E0,6.763534923E0
1.581315842E1,1.681151610E-1,-7.480338306E0,6.178285587E0,9.703346675E0
1.582319542E1,1.017167528E0,-9.402347327E0,2.067129897E1,2.273194594E1
1.583323342E1,3.814238465E0,-1.101520821E1,3.523531451E1,3.711348293E1
1.584327042E1,6.060294623E0,-1.249275049E1,4.296840456E1,4.515617096E1
1.585330842E1,9.373910564E0,-1.349500886E1,4.372211065E1,4.670769127E1
1.586334642E1,9.585715426E0,-1.427631966E1,3.934195205E1,4.293586420E1
1.587338342E1,9.449615049E0,-1.586744294E1,3.549621493E1,4.001315089E1
1.588342142E1,9.595413033E0,-1.686313371E1,3.549402105E1,4.045074487E1
1.589345842E1,8.048323971E0,-1.531641069E1,3.764970937E1,4.143511278E1
1.590349642E1,6.041567745E0,-1.305817624E1,3.678634459E1,3.950002096E1
1.591353342E1,4.222364470E0,-1.133545436E1,3.168857826E1,3.391882780E1
1.592357142E1,3.014425026E0,-9.597906870E0,2.347498040E1,2.553979795E1
1.593360842E1,2.650738445E0,-7.571578844E0,1.503989235E1,1.704563236E1
1.594364642E1,2.963500163E0,-5.491789141E0,7.822489300E0,1.000666878E1
1.595368329E1,3.484295873E0,-4.135371057E0,1.772765273E0,5.690721240E0
1.596372129E1,3.856627855E0,-3.617146075E0,-2.658075823E0,5.917997230E0
1.597375829E1,4.626106524E0,-3.465183957E0,-5.979541651E0,8.316446344E0
1.598379629E1,5.213038922E0,-3.299967370E0,-9.393450204E0,1.123843700E1
1.599383329E1,4.820333487E0,-3.180069921E0,-1.355258990E1,1.473163781E1
1.600387129E1,3.967719690E0,-3.542368957E0,-1.771974613E1,1.850082648E1
1.601390829E1,3.193741588E0,-3.593550221E0,-2.152562161E1,2.205597367E1
1.602394629E1,2.789590228E0,-3.306431467E0,-2.473277262E1,2.510825251E1
1.603398329E1,2.785733697E0,-3.345633540E0,-2.660436344E1,2.695822194E1
1.604402129E1,3.260934282E0,-3.243908359E0,-2.729263218E1,2.767750721E1
1.605405829E1,3.945337133E0,-2.552002069E0,-2.779552547E1,2.818988535E1
1.606409629E1,4.616000197E0,-1.661100411E0,-2.814247118E1,2.856685836E1
1.607413329E1,5.042798408E0,-1.261183313E0,-2.788696657E1,2.836729285E1
1.608417129E1,5.100632633E0,-1.203337101E0,-2.710184455E1,2.760388472E1
1.609420929E1,4.878595144E0,-1.286314353E0,-2.587595942E1,2.636324280E1
1.610424629E1,4.542833403E0,-1.682924998E0,-2.415630265E1,2.463729956E1
1.611428429E1,4.098923315E0,-2.267077775E0,-2.216889486E1,2.265834754E1
1.612432129E1,3.606269669E0,-2.878997371E0,-2.004725605E1,2.057149197E1
1.613435929E1,3.000154896E0,-3.293062978E0,-1.802675770E1,1.856903838E1
1.614439629E1,2.506188549E0,-3.233282799E0,-1.634300049E1,1.684721828E1
1.615443429E1,2.155378707E0,-2.836021798E0,-1.500982948E1,1.542671896E1
1.616447129E1,1.829674469E0,-2.479792464E0,-1.421480345E1,1.454502376E1
1.617450929E1,1.704297594E0,-2.129692619E0,-1.355045918E1,1.382227061E1
1.618454629E1,1.778923853E0,-1.933904304E0,-1.201782911E1,1.230173859E1
1.619458429E1,1.743093578E0,-2.607925424E0,-8.830215987E0,9.370825183E0
1.620462129E1,1.105366198E0,-4.362531585E0,-3.145989717E0,5.490971458E0
1.621465929E1,-6.601327401E-1,-6.851885415E0,5.788969198E0,8.994235563E0
1.622469629E1,-2.747350819E0,-9.466538061E0,1.692549778E1,1.958662182E1
1.623473429E1,-2.517428360E0,-1.185278794E1,2.736614571E1,2.992878144E1
1.624477129E1,1.069596807E0,-1.316500838E1,3.533248353E1,3.772062931E1
1.625480929E1,6.424196674E0,-1.267476730E1,4.025262081E1,4.268715862E1
1.626484629E1,1.095209219E1,-1.220377524E1,4.079648203E1,4.396855012E1
1.627488429E1,1.290303207E1,-1.226340047E1,3.781215204E1,4.179279925E1
1.628492129E1,1.194966110E1,-1.227067558E1,3.476976153E1,3.875951750E1
1.629495929E1,9.197108889E0,-1.205214408E1,3.357191497E1,3.683631990E1
1.630499729E1,5.943785343E0,-1.049771676E1,3.274349315E1,3.489508540E1
1.631503429E1,3.234124798E0,-8.015109447E0,2.995882452E1,3.118064639E1
1.632507229E1,1.512350607E0,-5.808734542E0,2.460251537E1,2.532414586E1
1.633510929E1,7.252998854E-1,-3.832656902E0,1.751975498E1,1.794873626E1
1.634514729E1,5.708046073E-1,-2.161362747E0,1.032936724E1,1.056849726E1
1.635518429E1,3.715991063E-1,-1.141777030E0,4.666009678E0,4.818027293E0
1.636522229E1,-7.128455719E-2,-8.971067226E-1,7.942495215E-1,1.200297572E0
1.637525929E1,-5.396720577E-1,-1.161575117E0,-1.998530948E0,2.373737271E0
1.638529729E1,-7.373198605E-1,-1.550131660E0,-4.010347354E0,4.362274022E0
1.639533429E1,-3.092059166E-1,-1.724221981E0,-5.830035948E0,6.087517466E0
1.640537229E1,3.690511820E-1,-1.808310351E0,-8.212690372E0,8.417509623E0
1.641540929E1,9.102870045E-1,-1.838687367E0,-1.056862711E1,1.076593111E1
1.642544729E1,1.728407126E0,-1.624270408E0,-1.269340237E1,1.291309836E1
1.643548429E1,2.738374466E0,-1.222579630E0,-1.483647707E1,1.513652694E1
1.644552229E1,3.315414544E0,-6.151229936E-1,-1.706724364E1,1.739715941E1
1.645555929E1,3.623327751E0,-1.888274972E-1,-1.901084409E1,1.935397512E1
1.646559729E1,3.888327073E0,9.410786614E-2,-2.046288783E1,2.082925160E1
1.647563429E1,4.077708448E0,1.136295265E-1,-2.142480392E1,2.180969603E1
1.648567229E1,4.023554167E0,-5.384978637E-2,-2.194177497E1,2.230769770E1
1.649570929E1,3.919329010E0,-5.035687901E-1,-2.214219881E1,2.249203614E1
1.650574729E1,3.717283151E0,-1.168486380E0,-2.172099814E1,2.206774376E1
1.651578529E1,3.408859482E0,-1.788081324E0,-2.061070310E1,2.096708469E1
1.652582229E1,3.171564853E0,-2.217825654E0,-1.905759375E1,1.944657949E1
1.653586029E1,3.059856137E0,-2.428899176E0,-1.760103947E1,1.802938882E1
1.654589729E1,3.040407713E0,-2.392929883E0,-1.652814205E1,1.697497193E1
1.655593529E1,2.907160486E0,-2.328808000E0,-1.580541450E1,1.623841299E1
1.656597229E1,2.573159049E0,-2.190274013E0,-1.533750861E1,1.570533725E1
1.657601029E1,2.251426241E0,-1.868619557E0,-1.507463300E1,1.535595061E1
1.658604729E1,1.915944581E0,-1.570598669E0,-1.502449897E1,1.522738300E1
1.659608529E1,1.713499357E0,-1.199299891E0,-1.502807162E1,1.517291458E1
