"Time (s)","Linear Acceleration x (m/s^2)","Linear Acceleration y (m/s^2)","Linear Acceleration z (m/s^2)","Absolute acceleration (m/s^2)"
1.754050003E-2,-1.088926971E-2,-1.994251370E-2,5.459340602E-1,5.464066967E-1
2.757949999E-2,-4.637229390E-1,2.217948300E-1,6.749581361E-1,8.484105116E-1
3.761850006E-2,-7.288535307E-1,6.752452344E-1,5.138404477E-1,1.118577490E0
4.765850003E-2,-6.194702522E-1,1.338386148E0,2.112908918E-1,1.489853924E0
5.769749999E-2,-5.763949840E-1,1.851350098E0,-2.246032476E-2,1.939131978E0
6.773650006E-2,-1.292646157E0,1.208069252E0,1.923323914E-1,1.779707042E0
7.777550002E-2,-1.111129434E0,-3.956103319E-1,6.690307405E-1,1.355993468E0
8.781450009E-2,-6.018983459E-1,-4.381032175E-1,2.165919409E-1,7.753245236E-1
9.785450005E-2,-1.628015842E0,-8.115970409E-1,7.072739428E-1,1.951758635E0
1.078935000E-1,-1.856718134E0,-1.103572492E0,1.472454616E0,2.614076715E0
1.179325001E-1,-1.248437552E0,-8.250187397E-1,1.795863529E0,2.337600920E0
1.279715000E-1,-9.029188550E-1,-7.073441094E-1,1.359384668E0,1.778630042E0
1.380105000E-1,-4.076338153E-1,-5.083452344E-1,9.400340563E-1,1.143785046E0
1.480505001E-1,1.626929283E-2,-2.494650239E-1,9.761365199E-1,1.007640806E0
1.580895000E-1,2.826067498E-1,-7.136000454E-2,1.322216842E0,1.353963147E0
1.681285000E-1,5.394486210E-1,1.762362492E-1,1.616615379E0,1.713332809E0
1.781675001E-1,5.493482494E-1,3.466983730E-1,1.935589764E0,2.041688271E0
1.882065000E-1,3.011425696E-1,4.176174974E-1,2.297793199E0,2.354770648E0
1.982465000E-1,2.327104121E-2,4.397030157E-1,2.610597602E0,2.647470514E0
2.082855001E-1,-1.373461255E-1,5.251027697E-1,2.974592623E0,3.023706029E0
2.183245000E-1,-5.377887426E-1,7.553094041E-1,2.933681409E0,3.076718323E0
2.283635001E-1,-7.925327790E-1,1.167024722E0,2.350949798E0,2.741718414E0
2.384025001E-1,-9.968628529E-1,1.657064078E0,2.338827350E0,3.034750448E0
2.484425000E-1,-1.304494955E0,2.050554795E0,2.446114256E0,3.448181696E0
2.584815001E-1,-1.308907118E0,2.475188951E0,1.696928056E0,3.274043832E0
2.685205000E-1,-6.899379717E-1,2.860957249E0,1.548019646E-1,2.947041641E0
2.785595000E-1,-1.958720765E-1,3.268316392E0,-1.474325141E0,3.590806668E0
2.885985001E-1,-9.775747888E-1,3.297984579E0,-1.779057755E0,3.872647834E0
2.986385000E-1,-2.348100888E0,2.669054555E0,-2.006287864E0,4.081987383E0
3.086775000E-1,-3.216104557E0,2.075169818E0,-2.554768971E0,4.601793432E0
3.187165001E-1,-3.153632028E0,1.562380700E0,-2.437635501E0,4.281179189E0
3.287555000E-1,-2.200657060E0,7.740707803E-1,-1.207152994E0,2.626650989E0
3.387945000E-1,-1.418671927E0,-1.245889628E-1,-3.325065958E-1,1.462433958E0
3.488345001E-1,-8.902472808E-1,-1.203595548E0,2.981407553E-2,1.497354782E0
3.588735000E-1,3.423493601E-2,-1.927981952E0,1.015304386E0,2.179249741E0
3.689125000E-1,9.719872626E-1,-2.425264839E0,1.071429763E0,2.823938830E0
3.789515001E-1,8.811071326E-1,-3.117466999E0,-3.109104896E-1,3.254476240E0
3.889905000E-1,6.916184615E-1,-3.982363164E0,-1.641498206E0,4.362575940E0
3.990305001E-1,1.137885123E0,-4.716894488E0,-1.065284339E0,4.967766790E0
4.090695000E-1,2.150136093E0,-5.239092945E0,7.974251443E-1,5.719009265E0
4.191085000E-1,2.379835920E0,-5.772821528E0,1.178447258E0,6.354354833E0
4.291475001E-1,1.895199391E0,-6.633489572E0,3.446845919E-1,6.907515624E0
4.391865000E-1,1.408793056E0,-7.574117705E0,-1.013357556E-1,7.704688561E0
4.492265000E-1,1.241912059E0,-8.136575997E0,-4.405774668E-1,8.242592009E0
4.592655001E-1,1.453103549E0,-7.730977451E0,-6.644199917E-1,7.894363572E0
4.693045000E-1,1.364418390E0,-7.022203113E0,-1.418322263E0,7.292778081E0
4.793435000E-1,1.178167030E0,-6.268911583E0,-2.393737822E0,6.813025080E0
4.893825001E-1,9.161606057E-1,-5.447273118E0,-2.859583738E0,6.220076675E0
4.994222084E-1,7.665595932E-1,-4.857428808E0,-2.610491767E0,5.567485563E0
5.094612084E-1,7.086753742E-1,-4.027867366E0,-1.383329163E0,4.317352878E0
5.195002083E-1,5.307441634E-1,-2.334866300E0,2.909866869E-1,2.412045451E0
5.295392084E-1,6.800791276E-1,-7.533353841E-1,1.328359927E0,1.671694325E0
5.395782084E-1,5.986567958E-1,6.326242948E-1,2.072677150E0,2.248242431E0
5.496182083E-1,3.915544108E-2,2.027051911E0,2.672813730E0,3.354758685E0
5.596572084E-1,-4.434433334E-1,2.486536058E0,2.675723305E0,3.679537846E0
5.696962083E-1,-1.455922491E0,2.973292202E0,2.839178125E0,4.361319668E0
5.797352084E-1,-2.578741678E0,4.009817011E0,3.330464693E0,5.815542638E0
5.897742084E-1,-2.789560115E0,5.240137843E0,3.507648776E0,6.895236775E0
5.998142083E-1,-2.361527996E0,6.395852296E0,3.462101889E0,7.646560701E0
6.098532084E-1,-2.768843722E0,7.493188732E0,3.084635468E0,8.563255742E0
6.198922084E-1,-3.039145884E0,8.158165671E0,2.437414184E0,9.040633978E0
6.299312083E-1,-2.631087415E0,8.311460955E0,1.723966751E0,8.886791634E0
6.399702084E-1,-1.844299964E0,7.947229121E0,1.165099819E0,8.241198374E0
6.500102084E-1,-1.220681404E0,7.783737463E0,5.973549132E-1,7.901484979E0
6.600492083E-1,-1.197248103E0,7.950398312E0,3.392895122E-1,8.047195394E0
6.700882084E-1,-1.893157982E0,8.242609406E0,7.041638088E-1,8.486489476E0
6.801272084E-1,-2.736481138E0,8.616148252E0,1.806779696E0,9.219045102E0
6.901662084E-1,-3.344250381E0,8.855940812E0,1.232762044E0,9.546276789E0
7.002062084E-1,-2.934246250E0,9.037614387E0,-2.248890595E0,9.764516567E0
7.102452083E-1,-3.024683965E0,8.873379548E0,-4.960224028E0,1.060610202E1
7.202842084E-1,-3.084496889E0,8.455608269E0,-6.461137043E0,1.107960848E1
7.303232084E-1,-2.546319160E0,8.567915155E0,-7.057515618E0,1.138865392E1
7.403622083E-1,-1.616853215E0,9.096501111E0,-6.544977930E0,1.132242390E1
7.504022084E-1,-7.410060914E-1,8.960324137E0,-5.213853439E0,1.039330392E1
7.604412084E-1,1.781899940E0,7.189256310E0,-9.768466642E-1,7.470930537E0
7.704802083E-1,4.730993879E0,2.303159773E0,9.777301785E0,1.110326430E1
7.805192084E-1,3.976707153E0,-5.367238770E0,1.004933238E1,1.206691896E1
7.905582084E-1,1.494312386E0,-1.386559135E1,-1.204149279E-1,1.394640071E1
8.005982083E-1,1.262735749E0,-2.110896774E1,-3.933104466E0,2.150935451E1
8.106372084E-1,2.162720325E0,-2.608975701E1,-1.650138929E0,2.623119781E1
8.206762084E-1,3.817995009E-1,-2.578699286E1,4.874706160E0,2.624647656E1
8.307152083E-1,-1.179409856E0,-2.050103974E1,5.975341011E0,2.138663925E1
8.407542084E-1,3.463887337E0,-1.519531719E1,4.623416805E0,1.625644989E1
8.507942084E-1,4.045025436E0,-1.277126156E1,8.671806729E-1,1.342458025E1
8.608332084E-1,1.935125203E0,-1.084774512E1,-2.226542245E0,1.124169801E1
8.708722084E-1,1.209308570E0,-1.142673759E1,-2.197026085E0,1.169870432E1
8.809112083E-1,1.468545168E0,-1.250133303E1,-2.969163483E-1,1.259079472E1
8.909502084E-1,3.159434220E0,-1.198734874E1,2.973200109E0,1.274827335E1
9.009902084E-1,3.165170046E0,-9.708071921E0,2.169631149E0,1.043897798E1
9.110292083E-1,3.437969261E0,-6.350525265E0,8.271770932E-1,7.268633002E0
9.210682084E-1,5.535876562E0,-3.740029405E0,-2.241452645E-1,6.684608467E0
9.311072084E-1,4.877028382E0,-3.043644732E0,2.480030738E-1,5.754188441E0
9.411462083E-1,-4.568166465E-2,1.894345259E0,3.279389849E0,3.787483143E0
9.511862084E-1,-3.740722592E-1,4.230225466E0,2.530082027E0,4.943283586E0
9.612252084E-1,-1.141615793E0,5.109715698E0,4.131829691E-1,5.251971182E0
9.712642083E-1,-2.134433688E0,6.949454979E0,1.792318947E0,7.487532229E0
9.813032084E-1,-1.924453888E0,8.228249229E0,2.923059942E0,8.941581938E0
9.913432084E-1,-2.242028888E0,9.042890330E0,1.508888617E0,9.438077342E0
1.001382208E0,-3.072407185E0,9.367711346E0,-3.001001573E-1,9.863253108E0
1.011421208E0,-3.652947991E0,9.985552125E0,-8.235632946E-1,1.066459267E1
1.021460208E0,-4.000321425E0,1.063265880E1,-6.374891782E-1,1.137815438E1
1.031499208E0,-4.108782598E0,1.077365388E1,-4.380500078E-1,1.153887344E1
1.041539208E0,-3.840598590E0,1.063614374E1,-4.983441567E-1,1.131927993E1
1.051578208E0,-3.710769353E0,1.072756847E1,-5.156220943E-1,1.136293979E1
1.061617208E0,-3.511241890E0,1.079439747E1,-5.660128140E-1,1.136521917E1
1.071656208E0,-3.282185987E0,1.072330936E1,-6.408296925E-1,1.123266536E1
1.081695208E0,-3.391192120E0,1.040586402E1,-9.927595693E-1,1.098943864E1
1.091735208E0,-3.094979777E0,9.508124628E0,-1.514722384E0,1.011324467E1
1.101774208E0,-2.177766380E0,8.772079461E0,-2.209796696E0,9.304581985E0
1.111813208E0,-1.472431374E0,8.568450760E0,-2.860253829E0,9.152456203E0
1.121852208E0,-8.592489249E-1,8.585604737E0,-2.885675769E0,9.098243899E0
1.131891208E0,-4.629389736E-1,8.642843716E0,-2.310346001E0,8.958278776E0
1.141930208E0,-4.514622049E-1,8.712615032E0,-1.903766731E0,8.929602823E0
1.151970208E0,-5.851427110E-1,8.761747431E0,-1.704553264E0,8.945172545E0
1.162009208E0,-5.757747406E-1,8.738485453E0,-1.419437912E0,8.871721848E0
1.172048208E0,-6.216221738E-1,8.596782274E0,-8.982555543E-1,8.665906914E0
1.182087208E0,-4.563903844E-1,8.412531247E0,1.589479329E-1,8.426401284E0
1.192126208E0,1.521205777E-1,7.790456498E0,2.217009675E0,8.101202690E0
1.202166208E0,1.108842587E0,6.164018966E0,3.519620950E0,7.184176593E0
1.212205208E0,2.148018670E0,2.773263633E0,1.410026819E0,3.780628389E0
1.222244208E0,3.084338429E0,-3.077418834E0,1.332121295E0,4.556116479E0
1.232283208E0,4.993958369E0,-1.345528755E1,2.993618586E0,1.466104142E1
1.242323208E0,8.771215242E0,-2.797690610E1,-4.067117094E0,2.960038738E1
1.252362208E0,6.833595325E0,-3.959738650E1,6.923693901E-1,4.018868520E1
1.262401208E0,-2.641950372E0,-3.353148264E1,2.051183604E1,3.939639130E1
1.272440208E0,-4.479223298E0,-2.309324142E1,7.527114862E0,2.469855661E1
1.282479208E0,-1.338881261E0,-1.782916157E1,-4.461746555E0,1.842766365E1
1.292519208E0,1.642943199E0,-1.294679965E1,-2.988962156E0,1.338853159E1
1.302558208E0,3.455518802E0,-1.150587497E1,-4.729349349E-1,1.202287139E1
1.312597208E0,3.993990353E0,-1.189175846E1,3.027050918E-1,1.254820739E1
1.322636208E0,4.023771392E0,-1.164789448E1,3.996982665E-1,1.232979890E1
1.332675208E0,3.930336394E0,-9.907980623E0,1.128176260E0,1.071860093E1
1.342714208E0,3.833453293E0,-6.939760296E0,2.250193940E0,8.241299041E0
1.352754208E0,3.651430639E0,-3.956477541E0,2.923216063E0,6.126324542E0
1.362793208E0,2.731569184E0,-1.208542877E0,2.615059027E0,3.969959673E0
1.372832208E0,1.245569493E0,1.233701692E0,2.586101276E0,3.124321212E0
1.382871208E0,8.711526865E-1,2.775444644E0,2.337349028E0,3.731648490E0
1.392911208E0,7.170971189E-1,2.928066328E0,-1.081906219E0,3.202861497E0
1.402950208E0,-4.613108749E0,3.988174712E0,2.207385305E0,6.485280236E0
1.412989208E0,-3.126564389E0,4.723131713E0,3.405745840E0,6.609272485E0
1.423028208E0,-1.229552215E0,5.885551168E0,2.610763662E0,6.554967437E0
1.433067208E0,-2.565694786E0,6.752576305E0,2.528095143E0,7.653191592E0
1.443107208E0,-2.540861369E0,7.331178174E0,6.133302373E-1,7.783207815E0
1.453146208E0,-2.921043530E0,8.332461814E0,-9.828585521E-1,8.884167160E0
1.463185208E0,-2.759615354E0,9.126667482E0,-1.655754887E0,9.677451135E0
1.473224208E0,-2.415465636E0,9.469354665E0,-2.054715673E0,9.986240960E0
1.483263208E0,-2.028129992E0,1.022946990E1,-2.141422865E0,1.064617572E1
1.493303208E0,-1.708385529E0,1.065264459E1,-2.515427735E0,1.107812234E1
1.503342750E0,-1.479715835E0,1.083214241E1,-2.848393922E0,1.129770845E1
1.513381750E0,-1.280606009E0,1.096426259E1,-3.005125029E0,1.144053243E1
1.523420750E0,-9.708466901E-1,1.115494614E1,-3.224848775E0,1.165225370E1
1.533459750E0,-5.833278814E-1,1.131213801E1,-3.251111544E0,1.178450101E1
1.543499750E0,-2.978790924E-1,1.134536422E1,-3.335853487E0,1.182936769E1
1.553538750E0,2.416917354E-1,1.093340449E1,-3.792787662E0,1.157510203E1
1.563577750E0,8.175812276E-1,9.857508627E0,-4.270283571E0,1.077377544E1
1.573616750E0,5.761901852E-1,8.957929117E0,-4.481563354E0,1.003299055E1
1.583655750E0,2.289645396E-1,8.848571566E0,-4.524535711E0,9.940878579E0
1.593695750E0,-2.179594950E-1,9.256085660E0,-3.964531496E0,1.007174950E1
1.603734750E0,-1.114305933E0,9.552520782E0,-3.025223663E0,1.008188024E1
1.613773750E0,-2.005525972E0,9.754841461E0,-2.324100553E0,1.022646125E1
1.623812750E0,-3.060229189E0,9.726853178E0,1.104392856E-1,1.019749343E1
1.633851750E0,-3.814388446E0,8.191568475E0,1.145199054E1,1.458764685E1
1.643891750E0,-1.378262112E0,5.862727731E0,1.545529960E1,1.658726827E1
1.653930750E0,2.067626618E0,4.640684803E0,-3.810580155E0,6.350713061E0
1.663969750E0,4.977286788E0,9.474997813E-1,-4.897127309E0,7.046488167E0
1.674008750E0,6.500813910E0,-8.622222340E0,8.150766020E0,1.352916429E1
1.684047750E0,8.717941260E0,-2.262356967E1,1.772073255E-1,2.424582040E1
1.694087750E0,1.227446340E1,-4.042758821E1,-8.631948014E0,4.312264912E1
1.704126750E0,2.025402412E-2,-5.320334744E1,1.836452796E1,5.628367860E1
1.714165750E0,-1.034755558E1,-3.698422372E1,1.838661055E1,4.257901077E1
1.724204750E0,-3.003332565E0,-1.908340102E1,-1.997934093E0,1.942132698E1
1.734243750E0,3.786174461E0,-1.078483610E1,-5.335631645E0,1.261414967E1
1.744283750E0,4.903731739E0,-8.827640288E0,-3.826355065E-1,1.010545536E1
1.754322750E0,4.333988986E0,-9.899021519E0,2.877331500E-1,1.081003598E1
1.764361750E0,5.888865954E0,-1.060776604E1,-3.214479031E-1,1.213700009E1
1.774400750E0,7.655359504E0,-8.751552810E0,1.791748698E0,1.176454713E1
1.784439750E0,6.827331203E0,-4.883943592E0,3.845491540E0,9.233263862E0
1.794479750E0,4.278852666E0,-1.773010272E0,3.999066321E0,6.119205586E0
1.804518750E0,2.696970332E0,4.599121624E-1,3.496099940E0,4.439356143E0
1.814557750E0,3.430779524E0,8.365482795E-1,1.026876392E0,3.677572065E0
1.824596750E0,-3.527239287E-1,4.165690917E-1,-1.244971030E0,1.359373696E0
1.834635750E0,-6.103664006E0,5.185353525E0,6.313630503E0,1.019826140E1
1.844675750E0,-3.923587537E0,4.907266966E0,-1.059469795E0,6.371678310E0
1.854714750E0,-2.938893910E0,7.466556419E0,-3.015198612E-1,8.029786822E0
1.864753750E0,-2.422499106E0,8.998034585E0,-8.548103034E-2,9.318821562E0
1.874792750E0,-2.322647666E0,9.489802378E0,-8.254572078E-1,9.804714221E0
1.884831750E0,-3.030116906E0,1.038467488E1,-1.025830909E0,1.086625096E1
1.894871750E0,-3.258713802E0,1.089266577E1,-1.430784580E0,1.145934238E1
1.904910750E0,-3.459895735E0,1.127081924E1,-1.984769526E0,1.195581678E1
1.914949750E0,-3.243469234E0,1.145216713E1,-2.221726917E0,1.210819124E1
1.924988750E0,-3.105883080E0,1.148003496E1,-2.648771149E0,1.218415778E1
1.935027750E0,-3.144463593E0,1.164622452E1,-3.030179179E0,1.243801362E1
1.945067750E0,-2.995891691E0,1.179333462E1,-3.889238654E0,1.277436048E1
1.955106750E0,-2.295057871E0,1.162806307E1,-4.592663375E0,1.271108564E1
1.965145750E0,-1.554901380E0,1.051987771E1,-5.111320174E0,1.179877702E1
1.975184750E0,-1.393063607E0,9.065120859E0,-5.702404679E0,1.079974359E1
1.985223750E0,-1.225055268E0,8.132643160E0,-5.998869038E0,1.017973845E1
1.995263750E0,-1.034849289E0,7.821546729E0,-5.852617310E0,9.823473706E0
2.005302750E0,-6.150798704E-1,8.193172951E0,-5.108136950E0,9.674681873E0
2.015341750E0,-3.291431312E-1,8.975978887E0,-3.296323385E0,9.567772993E0
2.025380750E0,-5.097640613E-1,9.532982896E0,1.036160527E0,9.602668948E0
2.035419750E0,-1.870209853E0,9.040539165E0,6.112255905E0,1.107197839E1
2.045459750E0,-3.271035639E0,7.760113542E0,8.940212054E0,1.228195538E1
2.055498750E0,-4.362821899E0,5.880616118E0,1.092141185E1,1.314888200E1
2.065537750E0,-4.084858131E0,4.249210206E0,1.008540737E1,1.168149370E1
2.075576750E0,-3.071814278E0,2.786694102E0,-4.241540998E-1,4.169126249E0
2.085615750E0,-3.250081265E-1,1.742180243E0,-1.182888101E1,1.196090499E1
2.095655750E0,1.438968489E0,-1.212268138E0,-9.180564192E0,9.371391745E0
2.105694750E0,6.079843619E0,-1.022619896E1,2.412069866E0,1.213909901E1
2.115733750E0,1.099614161E1,-2.558349338E1,6.277829171E0,2.854542701E1
2.125772750E0,8.236113734E0,-4.297657195E1,-7.617664844E-1,4.376527840E1
2.135811750E0,1.776199782E0,-4.141641319E1,1.046506474E1,4.275502014E1
2.145851750E0,2.416041002E0,-2.809248216E1,1.468608435E1,3.179160081E1
2.155890750E0,6.579720331E0,-2.203087718E1,1.604172505E0,2.304833266E1
2.165929750E0,7.052144365E0,-1.454988399E1,-3.954523401E0,1.664542338E1
2.175968750E0,5.905889538E0,-1.020939056E1,-2.257596661E0,1.200866060E1
2.186007750E0,4.133245887E0,-8.614518633E0,-4.950986597E-1,9.567589850E0
2.196047750E0,2.036806237E0,-7.178633088E0,-1.958807011E-1,7.464564415E0
2.206086750E0,1.524192973E0,-4.821387155E0,1.923903519E-1,5.060232442E0
2.216125750E0,1.316998202E0,-1.644938123E0,2.095004743E-1,2.117592062E0
2.226164750E0,7.159082338E-1,1.336651863E0,4.529516369E-1,1.582506868E0
2.236203750E0,2.414957075E-1,3.810609391E0,1.045367553E0,3.958769686E0
2.246243750E0,1.580747974E-1,5.361958149E0,1.827779825E0,5.667129955E0
2.256282750E0,-4.107169059E-1,6.023372380E0,2.106492037E0,6.394295262E0
2.266321750E0,-1.541129433E0,6.091936830E0,1.552337961E0,6.472752693E0
2.276360750E0,-2.138744255E0,6.398265442E0,1.219620281E0,6.855618227E0
2.286399750E0,-2.128787032E0,6.968700505E0,1.392804430E0,7.418519066E0
2.296439750E0,-2.713304529E0,7.116846145E0,3.719049887E-1,7.625603835E0
2.306478750E0,-3.720717513E0,7.644501225E0,-1.044415627E0,8.565800709E0
2.316517750E0,-3.990901269E0,8.796420835E0,-1.542838721E0,9.781853800E0
2.326556750E0,-4.047056758E0,9.685016935E0,-1.798930979E0,1.064961850E1
2.336595750E0,-4.042112645E0,1.020488937E1,-2.208405059E0,1.119622680E1
2.346635750E0,-4.041394899E0,1.044102333E1,-2.451871570E0,1.146121787E1
2.356674750E0,-3.847086953E0,1.070363582E1,-2.325544669E0,1.160930901E1
2.366713750E0,-3.694954389E0,1.099950610E1,-2.435296907E0,1.185632714E1
2.376752750E0,-3.537333335E0,1.116592955E1,-2.471349084E0,1.197072580E1
2.386791750E0,-3.346613825E0,1.114124728E1,-2.368720509E0,1.187173332E1
2.396831750E0,-2.709557926E0,1.048147086E1,-2.104756730E0,1.102873231E1
2.406870750E0,-2.015857709E0,9.099801280E0,-1.585529535E0,9.454309575E0
2.416909750E0,-1.858334743E0,8.162514246E0,-1.325400066E0,8.475655264E0
2.426948750E0,-1.628362874E0,7.758239509E0,-1.382295960E0,8.046899282E0
2.436987750E0,-1.422943464E0,7.729050209E0,-1.417724093E0,7.985795317E0
2.447027750E0,-1.195385618E0,7.936366163E0,-1.289176127E0,8.128765573E0
2.457066750E0,-6.847137769E-1,8.049953005E0,-9.064792246E-1,8.129715919E0
2.467105750E0,-5.440188047E-1,7.634654514E0,-1.482526445E-1,7.655448050E0
2.477144750E0,-7.421755345E-1,6.960644211E0,2.123709017E0,7.315157712E0
2.487183750E0,-5.103346033E-1,6.387008382E0,2.358736973E0,6.827734440E0
2.497223750E0,-9.000619054E-3,5.442001269E0,-4.080173049E0,6.801710883E0
2.507262458E0,1.318849138E0,2.506911850E0,-5.405816360E0,6.103017335E0
2.517301458E0,3.871593219E0,-3.615024705E0,5.158258113E0,7.393596177E0
2.527340458E0,4.402394685E0,-1.536094659E1,1.411499030E1,2.132071083E1
2.537379458E0,2.661145611E0,-2.921878922E1,8.522161862E-1,2.935209723E1
2.547419458E0,3.262563901E0,-3.711024993E1,-5.179131503E0,3.761167872E1
2.557458458E0,1.401671294E0,-3.578519368E1,1.313453386E1,3.814525854E1
2.567497458E0,2.569415077E0,-2.211996536E1,8.652339009E0,2.389053644E1
2.577536458E0,7.326168864E0,-1.524637157E1,-2.339327726E0,1.707621300E1
2.587575458E0,6.987630866E0,-1.222107014E1,-4.771739324E0,1.486442184E1
2.597615458E0,5.050703843E0,-1.244439285E1,-3.456157317E0,1.386786018E1
2.607654458E0,3.365186629E0,-1.319810011E1,-7.019708106E-1,1.363844165E1
2.617693458E0,2.787393137E0,-1.140439771E1,-1.050944335E0,1.178704084E1
2.627732458E0,3.059396838E0,-9.250469409E0,2.354857931E-1,9.746104189E0
2.637771458E0,3.027943496E0,-6.262425851E0,8.567416388E-1,7.008596549E0
2.647811458E0,2.206458521E0,-3.024023815E0,3.888942200E-1,3.763564527E0
2.657850458E0,1.411119371E0,-1.547570872E-1,1.649803591E-1,1.429134757E0
2.667889458E0,5.510104667E-1,2.456053353E0,2.662089644E-1,2.531141604E0
2.677928458E0,-7.867921288E-1,4.543069046E0,1.556111169E0,4.866210043E0
2.687967458E0,-1.612681080E0,4.936760321E0,2.923120753E0,5.959612208E0
2.698007458E0,-1.997312534E0,5.242807682E0,3.261997890E0,6.489755002E0
2.708046458E0,-2.162892379E0,6.090637579E0,3.467278429E0,7.334574921E0
2.718085458E0,-1.716924949E0,7.549161204E0,3.713417557E0,8.586450729E0
2.728124458E0,-1.921753498E0,8.728772058E0,2.658721941E0,9.324880723E0
2.738163458E0,-2.608330928E0,9.741289954E0,1.881873879E0,1.025853642E1
2.748203458E0,-3.055035108E0,1.036323548E1,1.433548413E0,1.089885086E1
2.758242458E0,-3.829300016E0,1.074910143E1,5.584593809E-1,1.142447360E1
2.768281458E0,-4.409145003E0,1.100575677E1,-8.820948735E-2,1.185643381E1
2.778320458E0,-4.433982221E0,1.095388963E1,-8.307914034E-2,1.181756314E1
2.788359458E0,-4.314784683E0,1.047878698E1,3.190607773E-1,1.133684891E1
2.798399458E0,-3.701853518E0,9.857596335E0,1.852396457E-1,1.053139301E1
2.808438458E0,-3.384811054E0,9.443726903E0,-1.199289658E0,1.010342612E1
2.818477458E0,-3.102222723E0,9.161650203E0,-3.487956523E0,1.028228870E1
2.828516458E0,-2.712847862E0,9.027627343E0,-5.177509485E0,1.075472935E1
2.838555458E0,-2.705423652E0,9.196850442E0,-5.912429649E0,1.126313453E1
2.848595458E0,-2.875446065E0,9.296776434E0,-5.550061322E0,1.120274175E1
2.858634458E0,-2.654533288E0,9.349335301E0,-4.734292878E0,1.081064968E1
2.868673458E0,-2.196654202E0,9.432390321E0,-3.940712863E0,1.045583544E1
2.878712458E0,-1.720810570E0,9.458906275E0,-3.265475814E0,1.015359194E1
2.888751458E0,-1.031991901E0,9.155374972E0,-2.484956140E0,9.542583779E0
2.898791458E0,-7.942082986E-2,8.310636497E0,-8.010786308E-1,8.349533737E0
2.908830458E0,6.218326735E-1,6.683548170E0,1.867955459E0,6.967477995E0
2.918869458E0,1.318439687E0,4.351471576E0,3.895144342E0,5.987130993E0
2.928908458E0,2.057787070E0,9.556022680E-1,2.830181599E0,3.627339411E0
2.938947458E0,3.829540921E0,-4.969370243E0,1.196806784E0,6.386890539E0
2.948987458E0,5.789377919E0,-1.267125663E1,3.033845383E-1,1.393447822E1
2.959026458E0,6.481334496E0,-2.043688643E1,-2.005786173E0,2.153362956E1
2.969065458E0,7.901461794E0,-2.990469568E1,2.243314106E0,3.101219728E1
2.979104458E0,3.084779601E0,-3.639614118E1,1.086358874E1,3.810790624E1
2.989143458E0,-4.457604680E0,-2.773183526E1,8.277464073E0,2.928209927E1
2.999183458E0,-2.741715565E-1,-1.770001529E1,2.519365542E0,1.788051772E1
3.009222458E0,5.658024897E0,-1.175816245E1,-2.555386437E0,1.329652698E1
3.019261458E0,5.783095086E0,-8.310661055E0,-5.524871517E0,1.153410080E1
3.029300458E0,4.993023984E0,-7.469382378E0,-3.880552907E0,9.786759039E0
3.039339458E0,5.264620720E0,-7.666802505E0,-2.070184190E0,9.527945978E0
3.049379458E0,5.421376970E0,-7.520806886E0,-8.037266886E-1,9.305903559E0
3.059418458E0,4.818126163E0,-6.437576857E0,-7.998026222E-2,8.041338965E0
3.069457458E0,3.870314725E0,-4.095816690E0,-2.868015423E-2,5.635234953E0
3.079496458E0,2.287220848E0,-1.920020968E0,-3.682985723E-1,3.008904047E0
3.089535458E0,7.169547392E-1,3.534945917E-1,7.206009167E-1,1.076219404E0
3.099575458E0,-3.474754679E0,2.295520386E0,1.569115962E0,4.450332440E0
3.109614458E0,-1.096843282E1,1.809181733E0,4.126078954E0,1.185766354E1
3.119653458E0,-1.724436428E0,3.913135055E0,4.720824986E0,6.369654269E0
3.129692458E0,-1.561726104E0,6.257240540E0,2.333996235E0,6.858541101E0
3.139731458E0,-5.090616937E0,6.716093772E0,1.502422181E0,8.560231817E0
3.149771458E0,-7.815797746E-2,8.878583570E0,1.260186070E-1,8.879821821E0
3.159810458E0,9.625899830E-1,1.061634507E1,8.135729612E-1,1.069089627E1
3.169849458E0,-1.293565339E0,1.110225688E1,5.157285136E-1,1.118925355E1
3.179888458E0,-2.351443303E0,1.098177266E1,2.716850281E-1,1.123398545E1
3.189927458E0,-3.051130045E0,1.104042023E1,-1.617690682E-1,1.145541107E1
3.199967458E0,-3.231790882E0,1.118079551E1,-3.006170511E-1,1.164238082E1
3.210006458E0,-3.240500017E0,1.129980155E1,1.750467794E-1,1.175657250E1
3.220045458E0,-3.447694058E0,1.148578862E1,1.379396179E0,1.207115025E1
3.230084458E0,-3.174722642E0,1.156296251E1,3.439370838E0,1.247438325E1
3.240123458E0,-1.422535036E0,1.098203228E1,4.431725780E0,1.192764991E1
3.250163458E0,-3.114408320E-1,1.014472971E1,2.469283848E0,1.044556839E1
3.260202458E0,-1.017797931E0,9.435113955E0,-2.004966393E0,9.699339060E0
3.270241458E0,-2.237576672E0,8.712847166E0,-7.050877858E0,1.142958152E1
3.280280458E0,-2.572974862E0,7.885110056E0,-9.401895338E0,1.253757537E1
3.290319458E0,-2.567396910E0,6.882462260E0,-8.283791930E0,1.107163142E1
3.300359458E0,-2.355041533E0,6.580486901E0,-6.534482762E0,9.568097692E0
3.310398458E0,-2.310549192E0,6.716735212E0,-5.176418395E0,8.789111268E0
3.320437458E0,-1.431833278E0,6.479945782E0,-2.760767548E0,7.187606092E0
3.330476458E0,3.303720698E-1,3.657756157E0,8.733308913E0,9.474123198E0
3.340515458E0,2.097112080E0,-3.446634834E0,1.619912741E1,1.669397795E1
3.350555458E0,2.999787398E0,-1.150373723E1,2.375762311E0,1.212348717E1
3.360594458E0,5.246563933E0,-2.188338000E1,-8.887881812E-1,2.252107230E1
3.370633458E0,7.770730332E0,-3.164765711E1,1.152739097E0,3.260808577E1
3.380672458E0,5.535449131E0,-3.518597804E1,4.961778803E0,3.596266809E1
3.390711458E0,1.123313277E0,-2.758292071E1,8.944967594E0,2.901881791E1
3.400751458E0,3.774765959E0,-1.809237749E1,1.183307171E0,1.851980554E1
3.410790458E0,5.670142082E0,-1.252761977E1,-3.865764129E0,1.428411358E1
3.420829458E0,4.913759129E0,-9.622171061E0,-2.281074255E0,1.104239578E1
3.430868458E0,3.765282944E0,-8.960660936E0,-2.045315689E0,9.932477855E0
3.440907458E0,2.970184407E0,-9.222519718E0,-9.541050884E-1,9.735870885E0
3.450947458E0,2.804079629E0,-7.482555571E0,1.397449458E-1,7.991935253E0
3.460986458E0,2.127262809E0,-5.199977996E0,7.122420296E-1,5.663241733E0
3.471025458E0,1.043999159E0,-2.685191701E0,-3.205129333E-1,2.898778580E0
3.481064458E0,4.996900396E-1,3.405663979E-1,-7.308295973E-1,9.485712980E-1
3.491103458E0,3.043081060E-2,3.292929077E0,3.609930611E-1,3.312796995E0
3.501143833E0,-7.935570650E-1,5.241568657E0,1.799410012E0,5.598361473E0
3.511182833E0,-1.979136172E0,6.704166037E0,2.277402204E0,7.351828550E0
3.521221833E0,-2.402857139E0,7.389929827E0,2.052082234E0,8.037152903E0
3.531260833E0,-2.292232497E0,7.466204417E0,2.233149745E0,8.123145696E0
3.541299833E0,-2.432663906E0,7.671103717E0,2.780525874E0,8.514400158E0
3.551339833E0,-2.835817438E0,8.034508170E0,3.134171909E0,9.078447865E0
3.561378833E0,-3.355976972E0,8.670012803E0,2.485849594E0,9.623468795E0
3.571417833E0,-3.835999463E0,9.495021018E0,1.503132033E0,1.035034888E1
3.581456833E0,-4.476992877E0,1.014378947E1,1.020595824E0,1.113470008E1
3.591495833E0,-4.879676294E0,1.058419474E1,7.020617348E-1,1.167601429E1
3.601535833E0,-4.965532715E0,1.096301713E1,1.489414465E0,1.212693759E1
3.611574833E0,-4.142790004E0,1.126667006E1,3.521162276E0,1.250996191E1
3.621613833E0,-2.045707599E0,1.109206986E1,4.742680709E0,1.223568362E1
3.631652833E0,-1.157273467E0,1.054601476E1,2.878778978E0,1.099295582E1
3.641691833E0,-1.407328036E0,9.974517260E0,-6.905377498E-1,1.009695049E1
3.651731833E0,-1.886338082E0,9.496637773E0,-4.428985483E0,1.064708001E1
3.661770833E0,-2.797791825E0,9.401276118E0,-7.129765568E0,1.212621906E1
3.671809833E0,-2.618895678E0,8.966538557E0,-8.129335390E0,1.238319515E1
3.681848833E0,-3.039524783E0,7.635005931E0,-7.946959564E0,1.143180619E1
3.691887833E0,-3.922098836E0,6.890323842E0,-7.088578951E0,1.063519504E1
3.701927833E0,-3.804147048E0,7.337689049E0,-5.778928944E0,1.008509966E1
3.711966833E0,-2.654855177E0,7.744347110E0,-3.689236397E0,8.979623230E0
3.722005833E0,-1.232399371E0,7.015571201E0,2.198406905E-3,7.122994617E0
3.732044833E0,-6.408029415E-1,4.635981887E0,5.978877407E0,7.592755199E0
3.742084833E0,1.081049310E-1,-2.246529490E-1,1.003740289E1,1.004049862E1
3.752123833E0,2.535538356E0,-8.230909712E0,8.952750238E0,1.242290490E1
3.762162833E0,5.952770759E0,-2.079113648E1,6.372101490E0,2.254574269E1
3.772201833E0,1.019031811E1,-3.329672863E1,2.166591327E0,3.488852015E1
3.782240833E0,1.198415967E1,-3.587418597E1,1.338389071E0,3.784664565E1
3.792280833E0,5.220473657E0,-2.603031655E1,5.087029670E0,2.703162215E1
3.802319833E0,8.678747374E-1,-1.591917793E1,5.026790485E0,1.671652043E1
3.812358833E0,3.350460124E0,-1.415638508E1,1.543748840E0,1.462914837E1
3.822397833E0,5.882922260E0,-1.302046287E1,-2.056841721E0,1.443509008E1
3.832436833E0,4.001827961E0,-1.075820320E1,-3.793612120E0,1.208904695E1
3.842476833E0,3.126027322E0,-9.778640798E0,-2.536214002E0,1.057479286E1
3.852515833E0,3.455575227E0,-9.513715736E0,-1.110335674E0,1.018256513E1
3.862554833E0,2.961274420E0,-8.325655071E0,1.300873920E-1,8.837567611E0
3.872593833E0,2.285051531E0,-6.893770190E0,4.064428836E-1,7.273975787E0
3.882632833E0,1.351544137E0,-5.112483185E0,-5.447324574E-1,5.316097189E0
3.892672833E0,1.132289338E0,-2.006915270E0,-6.076753950E-1,2.383077303E0
3.902711833E0,7.232350874E-1,9.342213392E-1,-3.957541734E-3,1.181462722E0
3.912750833E0,-6.510836622E-1,2.840330027E0,7.774767834E-1,3.015933478E0
3.922789833E0,-1.970540326E0,4.045087416E0,1.356057603E0,4.699431200E0
3.932828833E0,-2.946476287E0,5.235927263E0,1.809431409E0,6.274607464E0
3.942868833E0,-3.029107092E0,6.118938103E0,2.165064327E0,7.162708763E0
3.952907833E0,-3.092091545E0,7.032797683E0,1.986567983E0,7.935220584E0
3.962946833E0,-3.264309295E0,7.687373010E0,1.620842916E0,8.507558447E0
3.972985833E0,-3.642196131E0,8.474966061E0,1.179143661E0,9.299517308E0
3.983024833E0,-4.009483428E0,9.386193225E0,1.281065893E0,1.028677357E1
3.993064833E0,-3.854847963E0,1.009311517E1,1.182741599E0,1.086874897E1
4.003103833E0,-3.510574138E0,1.055360913E1,7.540341264E-1,1.114770666E1
4.013142833E0,-3.412263439E0,1.100711917E1,3.579490006E-1,1.152945540E1
4.023181833E0,-3.372944130E0,1.124409864E1,1.552985394E-1,1.174012878E1
4.033220833E0,-3.081268056E0,1.150760224E1,5.835620624E-1,1.192726569E1
4.043260833E0,-2.341920966E0,1.200522251E1,4.201264792E0,1.293292648E1
4.053299833E0,-7.075680578E-1,1.118411907E1,9.727330896E0,1.483934427E1
4.063338833E0,-5.875951794E-1,9.580152969E0,5.369148470E0,1.099783407E1
4.073377833E0,-1.781352202E0,8.130619438E0,4.048900093E-1,8.333314109E0
4.083416833E0,-2.448685861E0,7.300014269E0,-2.297242391E0,8.035147377E0
4.093456833E0,-2.593090746E0,7.194290763E0,-3.058458068E0,8.236267659E0
4.103495833E0,-3.253758287E0,7.586335462E0,-4.055722917E0,9.197190718E0
4.113534833E0,-3.278089136E0,8.485541920E0,-5.164171987E0,1.046035192E1
4.123573833E0,-3.155839936E0,9.366992723E0,-5.390034140E0,1.125843446E1
4.133612833E0,-3.850868348E0,9.483699054E0,-5.253251393E0,1.150505910E1
4.143652833E0,-4.181907000E0,8.762581244E0,-4.749298003E0,1.080865430E1
4.153691833E0,-3.582512139E0,7.270609206E0,-3.447841115E0,8.808164384E0
4.163730833E0,-3.678419632E0,4.361792496E0,-6.630010186E-1,5.744177498E0
4.173769833E0,-4.500501608E0,-1.068462886E0,5.670718033E0,7.318003189E0
4.183808833E0,-3.603958849E0,-7.801672627E0,7.063382129E0,1.112411715E1
4.193848833E0,-2.574225581E0,-1.383406668E1,4.529949648E0,1.478270888E1
4.203887833E0,2.552279227E0,-2.156401911E1,3.058335861E0,2.192885012E1
4.213926833E0,1.427148635E1,-3.094454346E1,3.679746366E0,3.427507295E1
4.223965833E0,2.644938182E1,-3.708520748E1,6.214630126E0,4.597286199E1
4.234004833E0,2.333701418E1,-2.756760568E1,9.359996529E0,3.731217829E1
4.244044833E0,1.575890458E1,-1.550653057E1,8.612513039E0,2.372700876E1
4.254083833E0,8.701174369E0,-1.349902473E1,5.516512338E0,1.698134307E1
4.264122833E0,5.114878789E0,-1.141391347E1,3.383824336E0,1.295722474E1
4.274161833E0,3.871350267E0,-8.705791331E0,1.979717824E0,9.731260877E0
4.284200833E0,2.515997838E0,-6.189743207E0,1.503561804E-1,6.683245698E0
4.294240833E0,1.539512532E0,-4.203868557E0,-1.066363735E0,4.602145293E0
4.304279833E0,1.166906901E0,-3.351197750E0,-1.765561796E0,3.963509371E0
4.314318833E0,9.175436184E-1,-2.011436337E0,-2.027730481E0,2.999908887E0
4.324357833E0,6.109065664E-1,-1.134482628E-1,-2.418897806E0,2.497427464E0
4.334396833E0,1.095719097E0,1.257471793E0,-1.836285916E0,2.480681683E0
4.344436833E0,1.338034438E-1,2.891618294E0,-1.931971507E0,3.480211721E0
4.354475833E0,-1.301939575E0,4.149669546E0,-2.623906741E0,5.079339582E0
4.364514833E0,-2.937899591E0,5.070210155E0,-3.694156244E0,6.927126054E0
4.374553833E0,-4.358338254E0,6.128531629E0,-4.710344437E0,8.873632682E0
4.384592833E0,-4.534577427E0,7.673813317E0,-4.782362838E0,1.011537432E1
4.394632833E0,-3.897906274E0,8.920948986E0,-4.340371807E0,1.065907273E1
4.404671833E0,-3.230908537E0,9.561400364E0,-3.773452967E0,1.077488256E1
4.414710833E0,-3.060834084E0,9.976640968E0,-3.446512335E0,1.099001900E1
4.424749833E0,-3.506667028E0,1.053004719E1,-4.093905235E0,1.182956751E1
4.434788833E0,-4.053402157E0,1.118546627E1,-4.885766169E0,1.286139322E1
4.444828833E0,-3.999679109E0,1.182910204E1,-4.814547082E0,1.338300981E1
4.454867833E0,-3.708755572E0,1.213803851E1,-4.461733691E0,1.345339787E1
4.464906833E0,-3.640384664E0,1.209914751E1,-3.967265654E0,1.324314795E1
4.474945833E0,-3.417049385E0,1.193373913E1,-3.310666021E0,1.284721237E1
4.484984833E0,-3.185740550E0,1.158553510E1,-2.724450199E0,1.232055986E1
4.495024833E0,-3.045434564E0,1.021557925E1,-2.289879285E0,1.090303986E1
4.505063708E0,-2.714722187E0,8.413408329E0,-1.810785039E0,9.024084370E0
4.515102708E0,-2.247888090E0,6.686235550E0,2.533262912E0,7.495076229E0
4.525141708E0,-6.773578334E-1,5.337498077E0,9.528355410E0,1.094245202E1
4.535181708E0,4.979050308E-1,6.956886790E0,1.377954548E0,7.109496605E0
4.545220708E0,3.587076768E-1,7.773662125E0,-3.667037735E0,8.602654229E0
4.555259708E0,-3.120428029E-1,6.899728503E0,-5.825000911E0,9.035167942E0
4.565298708E0,-1.761783618E0,4.948843592E0,-5.786534418E0,7.815300057E0
4.575337708E0,-1.603307117E0,1.520156202E0,-2.129376431E0,3.068503312E0
4.585377708E0,-2.746743001E0,-2.271469034E0,1.717220818E0,3.956389266E0
4.595416708E0,-3.482936103E0,-5.734102435E0,5.181360462E0,8.476866807E0
4.605455708E0,-2.299297395E0,-1.233609773E1,9.221469558E0,1.557246212E1
4.615494708E0,2.256726741E0,-2.574092616E1,1.282680777E1,2.884813846E1
4.625533708E0,9.457711104E0,-3.565113574E1,1.497996541E1,3.981018893E1
4.635573708E0,1.391633700E1,-2.926287020E1,1.203774706E1,3.456714282E1
4.645612708E0,1.262139274E1,-1.753553077E1,8.196311152E0,2.310787551E1
4.655651708E0,4.973273259E0,-1.275195288E1,7.214301689E0,1.547229453E1
4.665690708E0,2.447651343E0,-9.020673249E0,6.868248264E0,1.159898173E1
4.675729708E0,1.630244362E0,-4.708900759E0,5.282438940E0,7.261928407E0
4.685769708E0,1.073221057E0,-1.609668887E0,3.113665724E0,3.665753893E0
4.695808708E0,1.774732862E0,1.565065742E-1,2.057397206E0,2.721590399E0
4.705847708E0,2.327954160E0,4.105996692E-1,1.175228366E0,2.639909918E0
4.715886708E0,2.114601248E0,2.832081360E-1,-6.023041427E-1,2.216870670E0
4.725925708E0,1.461792657E0,-1.028151011E-1,-1.045312005E0,1.800023862E0
4.735965708E0,9.257244578E-1,2.356059533E-1,-9.463227367E-1,1.344619894E0
4.746004708E0,1.808979419E-1,1.153427607E0,-1.409429233E0,1.830193999E0
4.756043708E0,-5.249345161E-1,1.882771865E0,-2.317366168E0,3.031595636E0
4.766082708E0,-1.016728037E0,2.748455066E0,-3.321565523E0,4.429507724E0
4.776121708E0,-1.220325309E0,4.020508060E0,-4.075642626E0,5.853592208E0
4.786161708E0,-1.487663809E0,5.039008242E0,-4.666287421E0,7.027018285E0
4.796200708E0,-1.627542948E0,5.610744896E0,-4.748451326E0,7.528422433E0
4.806239708E0,-1.685466636E0,6.262567354E0,-4.357373171E0,7.813273872E0
4.816278708E0,-1.884976850E0,6.907850286E0,-3.807693384E0,8.109874364E0
4.826317708E0,-2.318064911E0,7.445798804E0,-3.251165631E0,8.448871091E0
4.836357708E0,-2.646078214E0,7.887197512E0,-3.181189370E0,8.906715461E0
4.846396708E0,-2.770442643E0,8.165052522E0,-3.505908352E0,9.307783221E0
4.856435708E0,-3.075841255E0,8.532589202E0,-3.673135504E0,9.785591568E0
4.866474708E0,-3.111578853E0,8.459007255E0,-3.777952399E0,9.772903920E0
4.876513708E0,-3.054148085E0,8.436623529E0,-3.742099611E0,9.721509482E0
4.886553708E0,-3.176971189E0,8.547354591E0,-3.501807700E0,9.767961589E0
4.896592708E0,-3.108360545E0,8.487821165E0,-3.064125482E0,9.544311309E0
4.906631708E0,-3.135032619E0,8.359388827E0,-2.488762970E0,9.268319816E0
4.916670708E0,-2.929181100E0,7.890678359E0,-1.284727419E0,8.514307454E0
4.926709708E0,-1.673944698E0,7.044790907E0,1.019941521E-1,7.241655376E0
4.936749708E0,-2.306548235E-1,5.776470190E0,6.433574438E-2,5.781431362E0
4.946788708E0,1.223731312E0,3.862106404E0,-1.214659064E0,4.229513074E0
4.956827708E0,2.461518745E0,5.439313889E-1,-2.187211241E0,3.337488412E0
4.966866708E0,5.019026552E0,-5.383219210E0,5.741465834E-1,7.382365535E0
4.976905708E0,6.495652573E0,-1.215251387E1,4.504071041E0,1.449702562E1
4.986945708E0,4.769304836E0,-1.748608438E1,4.025077075E-1,1.812929750E1
4.996984708E0,4.363404574E0,-1.822217866E1,-1.705609563E0,1.881478670E1
5.007023708E0,3.013955787E0,-1.660182632E1,3.654938091E0,1.726450518E1
5.017062708E0,-1.419294948E0,-1.372212290E1,9.419453942E0,1.670440564E1
5.027101708E0,-3.463277764E0,-8.981081752E0,4.897558833E0,1.080000948E1
5.037141708E0,-3.557441033E0,-4.661413767E0,-2.633145635E0,6.427878417E0
5.047180708E0,-3.635989604E0,-2.269537699E0,-5.220583584E0,6.754680949E0
5.057219708E0,-3.653450560E0,-2.070545256E0,-4.480094825E0,6.140529968E0
5.067258708E0,-3.492260073E0,-4.160966367E0,-3.712178824E0,6.579497940E0
5.077298708E0,-3.720503798E0,-7.128020759E0,-2.545302914E0,8.433824481E0
5.087337708E0,-4.057427965E0,-9.311699697E0,-1.211340916E0,1.022926291E1
5.097376708E0,-3.737379739E0,-9.265656382E0,-3.232954770E-1,9.996245069E0
5.107415708E0,-3.047319414E0,-7.795095679E0,9.958094770E-1,8.428600642E0
5.117454708E0,-2.138689584E0,-5.874060220E0,2.300990456E0,6.661316212E0
5.127494708E0,-1.504801121E0,-3.704468393E0,2.289062721E0,4.607311649E0
5.137533708E0,-1.119731857E0,-1.484543735E0,1.638973963E0,2.478690215E0
5.147572708E0,-1.586554259E-1,2.913796198E-1,2.136619962E0,2.162225356E0
5.157611708E0,2.232130721E-1,1.659274911E0,3.039548172E0,3.470139824E0
5.167650708E0,4.255384281E-1,3.119725778E0,3.965135513E0,5.063207632E0
5.177690708E0,9.394206834E-1,4.343705889E0,4.425392076E0,6.271713251E0
5.187729708E0,7.852018324E-1,5.365920222E0,4.611953924E0,7.118971888E0
5.197768708E0,-3.793916175E-1,6.604069891E0,4.428834917E0,7.960669309E0
5.207807708E0,-1.774689592E0,7.665447121E0,4.617660221E0,9.123123842E0
5.217846708E0,-3.268285694E0,7.960447921E0,4.856583885E0,9.881135032E0
5.227886708E0,-4.520559897E0,7.710447292E0,4.551504824E0,1.003008751E1
5.237925708E0,-5.705838164E0,7.181835024E0,3.356757283E0,9.767454270E0
5.247964708E0,-6.340641716E0,6.641658132E0,2.397542605E0,9.490182857E0
5.258003708E0,-5.816189157E0,6.115050874E0,2.173278496E0,8.714645312E0
5.268042708E0,-4.778527357E0,5.376753359E0,2.386431726E0,7.578842706E0
5.278082708E0,-3.908519847E0,5.146522166E0,2.318419252E0,6.865732709E0
5.288121708E0,-3.493328360E0,5.081337406E0,1.943282361E0,6.465267140E0
5.298160708E0,-2.787908861E0,5.284048678E0,1.146806220E0,6.083483440E0
5.308199708E0,-1.741137684E0,5.190908380E0,3.496681738E-1,5.486288188E0
5.318238708E0,-1.276316199E0,5.019683779E0,-2.506345401E-1,5.185462946E0
5.328278708E0,-1.557407643E0,4.713382650E0,7.383179071E-1,5.018626097E0
5.338317708E0,8.300461757E-1,3.174675572E0,3.438897214E0,4.753267896E0
5.348356708E0,2.899304167E0,1.038584783E0,4.489669349E0,5.444424108E0
5.358395708E0,2.040970331E0,-1.418409972E0,2.644748265E0,3.629344310E0
5.368434708E0,1.102143432E0,-3.543672886E0,5.698822090E-1,3.754610952E0
5.378474708E0,3.924326625E-1,-5.819572940E0,3.482547556E-1,5.843176703E0
5.388513708E0,-2.199576348E-1,-8.874984609E0,1.317531468E0,8.974944141E0
5.398552708E0,7.628716081E-2,-1.127721259E1,1.879947368E0,1.143308994E1
5.408591708E0,-8.135523498E-2,-1.317753896E1,1.041326542E0,1.321886957E1
5.418630708E0,-1.587204908E0,-1.404088152E1,6.070120284E-1,1.414333896E1
5.428670708E0,-1.242419744E0,-1.391881388E1,4.469041541E-1,1.398129858E1
5.438709708E0,2.180489574E-1,-1.311323012E1,1.450350972E0,1.319499403E1
5.448748708E0,-1.463002592E-2,-1.166056774E1,3.277431616E0,1.211241562E1
5.458787708E0,-1.032161617E0,-9.634707491E0,3.771254706E0,1.039785113E1
5.468826708E0,-1.094649933E0,-7.660923130E0,3.863369110E0,8.649486838E0
5.478866708E0,4.885847153E-1,-6.144326128E0,2.906495657E0,6.814629528E0
5.488905708E0,2.284368723E0,-4.649995324E0,1.588065764E0,5.418740614E0
5.498944708E0,3.365766672E0,-3.479827139E0,1.638477534E-1,4.844009527E0
5.508983750E0,3.690750825E0,-2.319120918E0,-8.457459497E-1,4.440185773E0
5.519023750E0,2.839571351E0,-1.385607092E0,-1.466986885E0,3.483550342E0
5.529062750E0,1.652046875E0,-4.170029551E-1,-1.192523845E0,2.079726776E0
5.539101750E0,2.397514831E-1,6.875337428E-1,-1.759138337E0,1.903877914E0
5.549140750E0,-4.705469321E-1,2.373017043E0,-2.150262101E0,3.236703787E0
5.559179750E0,-2.315653811E-1,4.596388636E0,-1.935876570E0,4.992797724E0
5.569219750E0,-1.603233442E-2,6.498542851E0,-2.329671634E0,6.903527080E0
5.579258750E0,2.162126394E-1,8.156401566E0,-2.209337690E0,8.453094548E0
5.589297750E0,6.554759444E-1,9.213046060E0,-2.291313607E0,9.516300986E0
5.599336750E0,9.542838670E-1,9.933991377E0,-2.585614203E0,1.030923097E1
5.609375750E0,3.070538123E-1,1.049803251E1,-2.950003912E0,1.090896382E1
5.619415750E0,-5.940526982E-1,1.077350186E1,-2.775232098E0,1.114105713E1
5.629454750E0,-1.251046287E0,1.099308118E1,-2.450968322E0,1.133226351E1
5.639493750E0,-1.079139463E0,1.076346336E1,-2.792831340E0,1.117213463E1
5.649532750E0,-9.827299865E-1,9.973085861E0,-3.477316929E0,1.060754132E1
5.659571750E0,-1.090767967E0,8.089408847E0,-3.013030172E0,8.700957480E0
5.669611750E0,-1.561363577E0,6.798724869E0,-3.096698858E0,7.632172685E0
5.679650750E0,-1.746848367E0,5.915119953E0,-2.843975181E0,6.791783131E0
5.689689750E0,-2.017416577E0,5.391907003E0,-2.049041828E0,6.110744896E0
5.699728750E0,-2.495052820E0,5.572001830E0,-1.494679006E0,6.285424273E0
5.709767750E0,-3.054027632E0,6.219836487E0,-1.121970756E0,7.019420851E0
5.719807750E0,-4.006722080E0,6.718334425E0,-1.073828875E0,7.895755045E0
5.729846750E0,-5.253303434E0,6.578784776E0,-9.235560179E-1,8.469389696E0
5.739885750E0,-6.578880086E0,3.444311151E0,1.738325056E1,1.890297179E1
5.749924750E0,-1.966105506E0,5.234655493E-1,1.910389785E1,1.921193640E1
5.759963750E0,2.565807637E0,-3.879124725E-1,-1.864144390E0,3.195133679E0
5.770003750E0,6.472976485E0,-3.633680831E0,-1.097338542E1,1.324833002E1
5.780042750E0,7.772709614E0,-1.247653148E1,-5.071139277E0,1.554976868E1
5.790081750E0,6.969705057E0,-2.111767775E1,-3.856818182E0,2.257007197E1
5.800120750E0,5.009739420E0,-1.979074104E1,-8.422176229E0,2.208402074E1
5.810159750E0,9.915576741E-1,-9.553489081E0,1.251147912E1,1.577306090E1
5.820199750E0,-6.168099153E-1,-1.962115658E0,2.831772334E0,3.499898124E0
5.830238750E0,-1.946601241E0,-7.402282655E-1,-6.641739993E0,6.960596556E0
5.840277750E0,-1.099501368E0,-1.536057705E0,-3.746122203E0,4.195450881E0
5.850316750E0,1.227719405E-1,-3.201521893E0,-2.589597034E0,4.119566504E0
5.860356750E0,1.182154685E0,-7.292948493E0,-1.420690970E0,7.523493222E0
5.870395750E0,6.060659489E-1,-1.142707789E1,6.442900747E-3,1.144314059E1
5.880434750E0,-1.034548742E0,-1.230536477E1,7.684092137E-1,1.237266123E1
5.890473750E0,-2.235150516E0,-1.064594836E1,8.806114349E-1,1.091364241E1
5.900512750E0,-2.522869486E0,-8.276794567E0,7.330385292E-1,8.683751737E0
5.910552750E0,-2.694494329E0,-6.300229270E0,7.273171748E-1,6.890731370E0
5.920591750E0,-2.641372375E0,-4.932113539E0,1.319025578E0,5.748253688E0
5.930630750E0,-2.653370861E0,-4.054960440E0,1.363989351E0,5.034237583E0
5.940669750E0,-3.098558273E0,-3.301559567E0,7.032855570E-1,4.582135912E0
5.950708750E0,-2.993467435E0,-2.267040938E0,9.037947679E-1,3.862274832E0
5.960748750E0,-1.849651482E0,-4.767942435E-1,2.251577976E0,2.952650798E0
5.970787750E0,-1.227122405E0,1.577250170E0,3.140404456E0,3.722322883E0
5.980826750E0,-8.566746882E-1,2.589273391E0,3.314560851E0,4.292381839E0
5.990865750E0,-1.237346846E-1,3.463250282E0,3.294662776E0,4.781654065E0
6.000904750E0,3.574189505E-1,4.752315751E0,3.208133340E0,5.744943240E0
6.010944750E0,5.385314852E-1,5.874922099E0,3.139966500E0,6.683121685E0
6.020983750E0,4.250607106E-1,6.798245398E0,3.039044727E0,7.458727100E0
6.031022750E0,-1.688421527E-1,7.772003855E0,2.806586330E0,8.264954835E0
6.041061750E0,-6.780615458E-1,8.310878572E0,2.419058604E0,8.682298925E0
6.051100750E0,-1.585200336E0,8.573458316E0,2.166565307E0,8.983933038E0
6.061140750E0,-2.824132947E0,8.192946079E0,1.924752535E0,8.877204779E0
6.071179750E0,-3.370256457E0,7.301855557E0,1.606887367E0,8.201085914E0
6.081218750E0,-3.353073829E0,6.810736805E0,2.009810811E0,7.852934447E0
6.091257750E0,-2.833082988E0,6.974748280E0,2.610907504E0,7.968080746E0
6.101296750E0,-3.344453864E0,7.268561511E0,1.376310604E0,8.118595258E0
6.111336750E0,-3.753516592E0,7.586036670E0,2.302639737E-1,8.466986516E0
6.121375750E0,-4.970968287E0,8.236972105E0,-9.076498371E-1,9.663439522E0
6.131414750E0,-4.646325027E0,7.778179100E0,1.077025548E0,9.124055589E0
6.141453750E0,-1.789257345E0,7.029706845E0,3.950267213E0,8.259711328E0
6.151492750E0,2.437303671E-1,4.649185485E0,4.755672053E0,6.655129363E0
6.161532750E0,-1.298973575E-2,1.464856744E0,3.403787608E0,3.705636800E0
6.171571750E0,1.392803699E0,-1.249970984E-1,1.339390699E0,1.936360985E0
6.181610750E0,2.313648801E0,-2.999857273E0,8.313527361E-2,3.789330535E0
6.191649750E0,2.354928536E0,-6.335891438E0,-1.715530388E0,6.973682903E0
6.201689750E0,2.896109540E0,-7.992957271E0,-1.326813923E0,8.604373980E0
6.211728750E0,5.283007874E0,-1.069416917E1,-2.176690346E-1,1.192991225E1
6.221767750E0,7.155057700E0,-1.552339861E1,-4.035099202E-1,1.709776522E1
6.231806750E0,7.577862847E0,-1.720588580E1,1.016883719E0,1.882818536E1
6.241845750E0,5.087947683E0,-1.603685665E1,2.225566052E0,1.697118520E1
6.251884750E0,8.299741088E-1,-1.437839568E1,3.346857362E0,1.478609392E1
6.261924750E0,-1.726643313E0,-1.199962906E1,4.595877004E0,1.296512554E1
6.271963750E0,-4.326855968E0,-1.060416649E1,3.930071222E0,1.210848832E1
6.282002750E0,-5.000362825E0,-1.061320629E1,3.097908355E0,1.213428252E1
6.292041750E0,-3.157808694E0,-9.940680592E0,3.962351654E0,1.115746911E1
6.302081750E0,-1.416909868E0,-8.433865982E0,3.281255111E0,9.159932537E0
6.312120750E0,1.013495331E0,-6.515857041E0,1.566664370E0,6.777757964E0
6.322159750E0,2.412634561E0,-4.647575161E0,-2.596280694E-2,5.236547954E0
6.332198750E0,2.629940483E0,-3.259737942E0,-1.315717954E0,4.390169943E0
6.342237750E0,2.378168440E0,-2.096900995E0,-2.182042887E0,3.848894657E0
6.352277750E0,1.406083456E0,-3.574484789E-1,-2.826211340E0,3.176839725E0
6.362316750E0,6.026814343E-1,1.040498577E0,-3.105849751E0,3.330490185E0
6.372355750E0,1.284761187E0,3.204239094E0,-3.227702217E0,4.726078827E0
6.382394750E0,8.854714213E-1,5.268171734E0,-3.950903098E0,6.644345592E0
6.392433750E0,9.256833080E-1,7.185581920E0,-3.173857839E0,7.909668178E0
6.402473750E0,1.251026992E0,8.852236016E0,-2.316420089E0,9.235418402E0
6.412512750E0,1.593342438E0,1.013396381E1,-1.966595502E0,1.044526020E1
6.422551750E0,2.054729560E0,1.092457754E1,-1.935950245E0,1.128344855E1
6.432590750E0,2.223678425E0,1.139491119E1,-2.101022405E0,1.179843388E1
6.442629750E0,1.355628125E0,1.154994661E1,-2.018814354E0,1.180316083E1
6.452669750E0,2.528603558E-1,1.105585104E1,-2.104510269E0,1.125720853E1
6.462708750E0,-2.118386297E-1,1.045139746E1,-2.584012651E0,1.076818025E1
6.472747750E0,3.201201466E-1,8.752357387E0,-2.498417015E0,9.107597066E0
6.482786750E0,2.264797653E-1,7.144176031E0,-2.898069820E0,7.712934132E0
6.492825750E0,-2.775958322E-1,6.347011088E0,-2.465204538E0,6.814605096E0
6.502865750E0,-9.897557084E-1,6.319750199E0,-2.426240155E0,6.841454541E0
6.512904458E0,-2.383671840E0,6.525326023E0,-3.184045735E0,7.641983930E0
6.522943458E0,-4.516751020E0,6.193988870E0,-2.905737566E0,8.198161300E0
6.532982458E0,-5.237986068E0,5.855309953E0,-3.419071645E-1,7.863717518E0
6.543021458E0,-4.809079936E0,6.068331036E0,1.171515384E0,7.830985869E0
6.553061458E0,-5.808595378E0,5.461169026E0,8.704463428E0,1.180389050E1
6.563100458E0,-3.996321638E0,5.558062652E0,1.382910239E1,1.543070705E1
6.573139458E0,1.298886598E0,6.514594628E0,6.174216510E0,9.069068258E0
6.583178458E0,6.018695776E0,6.555231607E0,3.596116271E0,9.598323422E0
6.593218458E0,8.991407350E0,4.562594653E0,-3.658493491E0,1.072600815E1
6.603257458E0,3.261378086E0,-6.156210009E0,-1.161401806E1,1.354329813E1
6.613296458E0,1.660231223E0,-2.039416434E1,-1.076256289E1,2.311949538E1
6.623335458E0,5.441408946E0,-2.509792656E1,-1.525259067E1,2.986898678E1
6.633374458E0,6.912473094E0,-1.902908506E1,-1.040096171E1,2.276111525E1
6.643414458E0,-8.378646339E-1,-1.057505437E1,1.777842879E1,2.070280953E1
6.653453458E0,-2.782221567E0,-1.417846300E0,1.032936490E1,1.079105297E1
6.663492458E0,-4.255270261E-1,3.114215362E0,-4.583576217E0,5.557749680E0
6.673531458E0,3.440661904E0,2.049008791E0,-5.210707637E0,6.571762735E0
6.683570458E0,4.915192866E0,-7.980215603E-1,-5.850291288E0,7.682569068E0
6.693610458E0,7.907707205E0,-3.985163396E0,-4.033645585E0,9.730552772E0
6.703649458E0,7.894566173E0,-8.024204206E0,-2.865294714E0,1.161559047E1
6.713688458E0,3.717029967E0,-9.845955698E0,-1.841406907E0,1.068409728E1
6.723727458E0,4.276988281E-1,-9.363886097E0,1.715359649E-1,9.375218062E0
6.733766458E0,-1.229463337E0,-8.108144495E0,1.260975444E0,8.297207140E0
6.743806458E0,-2.299997453E0,-6.846666191E0,1.252950141E0,7.330532741E0
6.753845458E0,-2.894406831E0,-5.609208832E0,1.183495013E0,6.421952591E0
6.763884458E0,-2.515211973E0,-3.964753105E0,1.364009378E0,4.889384423E0
6.773923458E0,-1.874570268E0,-2.668899019E0,1.886669619E0,3.767831992E0
6.783962458E0,-1.081507147E0,-1.900102428E0,2.141939174E0,3.060710762E0
6.794002458E0,-2.351918243E-1,-1.044509767E0,2.851381849E0,3.045766619E0
6.804041458E0,1.047490677E-1,-1.643090987E-1,3.416757901E0,3.422309805E0
6.814080458E0,-3.581083372E-1,7.537645698E-1,3.111180657E0,3.221156266E0
6.824119458E0,-4.510499762E-1,1.796314350E0,4.272690870E0,4.656831390E0
6.834158458E0,-4.317939256E-1,3.088962992E0,5.642700514E0,6.447341115E0
6.844198458E0,-1.199973344E0,3.789290442E0,5.652472381E0,6.910072511E0
6.854237458E0,-1.496302485E0,4.265701109E0,4.990848820E0,6.733773015E0
6.864276458E0,-1.563407179E0,4.895636269E0,4.960486568E0,7.142683213E0
6.874315458E0,-1.773084093E0,5.838960553E0,4.804833103E0,7.766833891E0
6.884355458E0,-2.272925283E0,6.684045183E0,3.442006178E0,7.854301744E0
6.894394458E0,-2.752252833E0,6.450716720E0,2.463391609E0,7.433366672E0
6.904433458E0,-3.525519621E0,6.082937965E0,1.509330082E0,7.190931802E0
6.914472458E0,-4.606004382E0,6.169186150E0,1.586514498E0,7.860735486E0
6.924511458E0,-5.284494236E0,6.669173375E0,2.016790633E0,8.744781146E0
6.934551458E0,-5.538004364E0,7.867121097E0,1.586952454E0,9.750872001E0
6.944590458E0,-4.113247824E0,8.446873114E0,1.368829676E0,9.494322922E0
6.954629458E0,-9.824977058E-1,7.634796601E0,1.958838440E0,7.943076791E0
6.964668458E0,-3.841644073E-1,6.295468467E0,1.400422621E0,6.460780837E0
6.974707458E0,-1.222521231E-1,4.780590547E0,7.391950625E-1,4.838946259E0
6.984747458E0,1.297976333E0,2.915238122E0,1.050282138E0,3.359530985E0
6.994786458E0,1.665080026E0,9.343283433E-1,9.381559306E-1,2.127345176E0
7.004825458E0,1.514457213E0,-1.360471666E0,-2.552680930E-1,2.051737216E0
7.014864458E0,2.280681615E0,-3.161152716E0,-1.610562927E-1,3.901324679E0
7.024903458E0,3.748744387E0,-4.721981565E0,3.547318625E-1,6.039538813E0
7.034943458E0,5.618111218E0,-7.408111745E0,-3.393870145E-2,9.297550490E0
7.044982458E0,7.788877165E0,-1.154970453E1,-9.702878425E-1,1.396437398E1
7.055021458E0,7.097081387E0,-1.539621115E1,-2.128087705E0,1.708627049E1
7.065060458E0,4.246276366E0,-1.630008895E1,1.368821490E-1,1.684465789E1
7.075099458E0,2.813363545E0,-1.449594225E1,3.866790023E0,1.526431857E1
7.085139458E0,3.070449538E0,-1.160665407E1,4.589470795E0,1.285322222E1
7.095178458E0,2.305715007E0,-9.384920286E0,2.701402522E0,1.003447189E1
7.105217458E0,1.725262640E0,-7.964744455E0,1.762512766E0,8.337873629E0
7.115256458E0,1.544107859E0,-6.735883673E0,2.135514546E0,7.233036729E0
7.125295458E0,1.728280095E0,-5.744377162E0,2.382026433E0,6.454368366E0
7.135335458E0,1.805350344E0,-5.087521421E0,1.698598021E0,5.659275511E0
7.145374458E0,2.250740216E0,-4.244750535E0,9.900710195E-1,4.905504994E0
7.155413458E0,2.937407255E0,-2.824098741E0,2.260036558E-1,4.081050445E0
7.165452458E0,2.880024143E0,-1.942920418E0,-7.897278696E-1,3.562744577E0
7.175491458E0,2.298081613E0,-1.329862661E0,-2.009487460E0,3.329827871E0
7.185531458E0,2.045941342E0,-1.066918051E0,-2.848880410E0,3.666102794E0
7.195570458E0,1.480524943E0,2.660336941E-1,-3.129383039E0,3.472141449E0
7.205609458E0,4.839995480E-1,1.549856549E0,-3.861563782E0,4.189031598E0
7.215648458E0,-1.751933983E-1,2.585321842E0,-4.251456999E0,4.978902326E0
7.225688458E0,-4.647648398E-1,4.238119792E0,-4.443602645E0,6.158187249E0
7.235727458E0,-1.224370120E0,6.145876225E0,-4.714616120E0,7.842096781E0
7.245766458E0,-1.834750145E0,7.946582419E0,-4.628658834E0,9.377577663E0
7.255805458E0,-2.490895157E0,9.600303059E0,-4.038932637E0,1.070903144E1
7.265844458E0,-3.999924692E0,1.124815777E1,-3.726233192E0,1.250620904E1
7.275884458E0,-6.184076670E0,1.304284133E1,-3.509112041E0,1.485504566E1
7.285923458E0,-6.453906376E0,1.364565652E1,-5.634657669E-1,1.510544085E1
7.295962458E0,-5.405633926E0,1.308480563E1,-7.960875937E-1,1.417980155E1
7.306001458E0,-4.527582695E0,1.267447610E1,-3.020082207E0,1.379355814E1
7.316040458E0,-4.986144150E0,1.221783897E1,-2.406249694E0,1.341369673E1
7.326080458E0,-3.666128785E0,1.039869884E1,-1.442977633E0,1.112005496E1
7.336119458E0,-2.433985961E0,7.775380037E0,1.722970385E0,8.327631676E0
7.346158458E0,-1.650852581E0,4.128637696E0,6.054436882E0,7.511802009E0
7.356197458E0,-5.992058493E-1,1.381602334E0,4.461921971E0,4.709205914E0
7.366236458E0,1.830924019E0,8.948964751E-1,4.657746978E0,5.084066224E0
7.376276458E0,5.507150361E0,-3.150713682E-1,1.109576530E1,1.239128656E1
7.386315458E0,8.437008861E0,-4.680483876E0,1.283613992E1,1.605791194E1
7.396354458E0,1.071993668E1,-8.377823344E0,-1.009680827E0,1.364274246E1
7.406393458E0,1.483374642E1,-6.667757764E0,-1.092831040E1,1.959405509E1
7.416432458E0,1.520222743E1,-5.330859733E0,-4.984717430E0,1.686336835E1
7.426472458E0,9.276524017E0,-4.849780065E0,-5.445773892E0,1.179960668E1
7.436511458E0,-1.392857639E1,-1.074827229E1,-7.726797277E0,1.921546236E1
7.446550458E0,-1.228546552E1,-9.423474487E0,-2.245402380E1,2.727485508E1
7.456589458E0,-4.473554495E-1,1.156355308E0,-1.595992835E1,1.600801666E1
7.466629458E0,2.186539835E0,1.374846461E0,6.883260405E0,7.351899961E0
7.476668458E0,-7.450280987E-1,-5.541357742E0,6.595369234E0,8.646421678E0
7.486707458E0,-1.100723144E0,-1.006597239E1,-4.800096273E-1,1.013734683E1
7.496746458E0,5.967164850E0,-9.412639596E0,-7.461374617E0,1.341182134E1
7.506786500E0,1.131926459E1,-6.874581383E0,-3.468938454E0,1.369011155E1
7.516826500E0,9.624360259E0,-4.277044707E0,1.274108291E0,1.060871216E1
7.526865500E0,5.654159303E0,-5.829902047E-1,9.599876797E-1,5.764631068E0
7.536904500E0,2.206263662E0,3.190966499E0,1.336299276E-1,3.881716567E0
7.546943500E0,-1.931409151E0,3.513504177E0,6.810819250E-1,4.066807778E0
7.556982500E0,-2.918748205E0,1.316777762E0,6.374868393E-2,3.202664306E0
7.567022500E0,-2.723369926E0,-4.850394022E-1,-2.296143115E-1,2.775739489E0
7.577061500E0,-2.664222416E0,-7.912557471E-1,4.338996542E-1,2.812905198E0
7.587100500E0,-2.111997337E0,-2.984325314E-1,1.674985794E0,2.712042060E0
7.597139500E0,-3.685550312E0,-1.400971236E0,2.305131454E0,4.567234670E0
7.607178500E0,-4.546190874E0,-2.201692455E0,1.253066500E0,5.204370931E0
7.617218500E0,-2.880616758E0,-1.181091369E0,1.198554078E0,3.336084772E0
7.627257500E0,-2.398366331E0,-7.497177118E-1,1.426192031E0,2.889335809E0
7.637296500E0,-2.281981158E0,-9.898529184E-1,6.159328330E-1,2.562541719E0
7.647335500E0,-1.975261222E0,-1.791483965E0,7.523127061E-1,2.770748292E0
7.657374500E0,-1.501018996E0,-3.046519808E0,1.605574082E0,3.756622033E0
7.667414500E0,2.692756829E-1,-2.896563284E0,1.425759337E0,3.239657071E0
7.677453500E0,1.519736664E0,-3.197912992E0,2.287534259E0,4.215336287E0
7.687492500E0,1.629278256E0,-3.447433564E0,2.282201014E0,4.443848251E0
7.697531500E0,1.014853712E0,-3.150451727E0,1.161410810E0,3.507727072E0
7.707570500E0,3.874897188E-1,-2.898898662E0,9.184519833E-1,3.065504164E0
7.717610500E0,1.207287772E-1,-2.736389337E0,9.709593952E-1,2.906056466E0
7.727649500E0,-2.853862238E-1,-2.481491665E0,9.554058015E-2,2.499674815E0
7.737688500E0,-5.170198712E-1,-2.101278221E0,-4.933810401E-1,2.219482949E0
7.747727500E0,-7.463388982E-1,-1.875825373E0,-1.169583464E-1,2.022231895E0
7.757767500E0,-1.227325741E0,-2.120212675E0,1.677829295E-1,2.455561315E0
7.767806500E0,-1.499962404E0,-2.087693970E0,-4.068059957E-1,2.602661031E0
7.777845500E0,-1.753559363E0,-1.897258342E0,-4.721334279E-1,2.626303415E0
7.787884500E0,-1.987422261E0,-1.950646344E0,3.449594110E-1,2.806040876E0
7.797923500E0,-1.672914126E0,-1.774328234E0,3.507265198E-1,2.463714969E0
7.807963500E0,-1.061297708E0,-1.226059381E0,-1.499015594E-1,1.628510027E0
7.818002500E0,-4.601346490E-1,-8.019736934E-1,-3.022484243E-1,9.727485852E-1
7.828041500E0,3.319626586E-1,-7.616255665E-1,-3.309067976E-1,8.942997366E-1
7.838080500E0,9.009400110E-1,-1.004985512E0,2.613401341E-1,1.374768144E0
7.848119500E0,7.346218090E-1,-1.290112120E0,4.527808982E-1,1.552117594E0
7.858159500E0,4.948769040E-1,-1.480224981E0,1.273196125E-1,1.565943623E0
7.868198500E0,5.907763571E-2,-1.797807729E0,-9.704097569E-2,1.801393835E0
7.878237500E0,-2.408270784E-1,-2.024354006E0,-2.225906360E-1,2.050744600E0
7.888276500E0,-2.601572424E-1,-1.986664608E0,-3.243620092E-1,2.029711499E0
7.898315500E0,-2.226403373E-1,-1.943640211E0,-2.653337824E-1,1.974261382E0
7.908355500E0,-6.508430493E-1,-2.188429801E0,-4.679555923E-1,2.330623115E0
7.918394500E0,-9.190837750E-1,-2.406354944E0,-9.622441202E-1,2.749758689E0
7.928433500E0,-1.247249836E0,-2.411144983E0,-1.442826775E0,3.074248100E0
7.938472500E0,-1.236858896E0,-1.911069465E0,-1.541391535E0,2.749162471E0
7.948511500E0,-1.327411509E0,-1.238068977E0,-1.574317791E0,2.402771860E0
7.958551500E0,-1.715968929E0,-5.547943461E-1,-1.354587613E0,2.255494122E0
7.968590500E0,-2.731533809E0,-4.963467479E-1,-1.711919147E0,3.261641337E0
7.978629500E0,-3.428507296E0,-5.830153477E-1,-1.803025199E0,3.917329326E0
7.988668500E0,-3.365091319E0,-2.293307215E-1,-1.475516219E0,3.681518746E0
7.998707500E0,-3.157796999E0,2.537147802E-1,-1.292465332E0,3.421479170E0
8.008747500E0,-2.972463067E0,7.821861309E-1,-1.080960140E0,3.258193771E0
8.018786500E0,-3.151414179E0,1.127064266E0,-9.176895064E-1,3.470423492E0
8.028825500E0,-3.105816714E0,1.676987296E0,-7.081220815E-1,3.599975102E0
8.038864500E0,-3.189111470E0,2.252046338E0,-6.712527555E-1,3.961404415E0
8.048903500E0,-3.053021327E0,2.745847793E0,-8.593439421E-1,4.195127094E0
8.058943500E0,-2.709269950E0,3.283826131E0,-1.226123700E0,4.430241196E0
8.068982500E0,-2.443597029E0,3.724468794E0,-1.403986060E0,4.670547195E0
8.079021500E0,-1.890934578E0,4.184373940E0,-1.107947379E0,4.723575578E0
8.089060500E0,-1.251193345E0,4.646960034E0,2.486101609E-1,4.818872208E0
8.099100500E0,-1.836432096E-1,4.993996376E0,2.101373531E0,5.421207924E0
8.109139500E0,3.867170092E-1,4.832599191E0,3.393051827E0,5.917462775E0
8.119178500E0,1.680986792E-2,3.712838683E0,4.062580531E0,5.503636455E0
8.129217500E0,2.984126508E-1,2.616052469E0,4.397866016E0,5.125817606E0
8.139256500E0,7.099326718E-1,1.679561241E0,3.843741176E0,4.254324458E0
8.149296500E0,2.001463911E-1,6.652722234E-1,6.954456103E-1,9.830006642E-1
8.159335500E0,-5.957608160E-1,-4.330851370E-1,-3.142060388E0,3.227233671E0
8.169374500E0,-5.712411019E-1,-1.352811229E0,-3.054426413E0,3.389090634E0
8.179413500E0,-1.036968905E0,-2.092703279E0,-6.536193073E-1,2.425269000E0
8.189452500E0,-1.469621056E0,-3.155863910E0,7.803945440E-1,3.567671329E0
8.199492500E0,-1.742096627E0,-3.896085159E0,9.082901073E-1,4.363412786E0
8.209531500E0,-2.045201669E0,-5.301410816E0,-8.665936124E-1,5.747937977E0
8.219570500E0,-1.333144119E0,-7.153005912E0,-2.491160036E0,7.690815635E0
8.229609500E0,-6.954578894E-1,-8.438380033E0,-2.902725080E0,8.950739195E0
8.239648500E0,-5.977731353E-1,-9.093693863E0,-2.190086317E0,9.372783945E0
8.249688500E0,1.124627146E-1,-7.806144578E0,-6.491730845E-1,7.833898565E0
8.259727500E0,5.942726997E-1,-5.474842740E0,-1.405547851E-1,5.508794670E0
8.269766500E0,1.205695868E-2,-4.344882933E0,-6.445608008E-1,4.392449397E0
8.279805500E0,-5.943373114E-1,-4.114521933E0,-1.754595051E0,4.512331035E0
8.289844500E0,-5.211977068E-1,-4.106391964E0,-2.514118543E0,4.843025300E0
8.299884500E0,1.027355790E-2,-4.157547500E0,-2.455560433E0,4.828569539E0
8.309923500E0,6.666121128E-1,-4.201482309E0,-2.008265100E0,4.704248506E0
8.319962500E0,1.007192544E0,-4.495612459E0,-7.354624924E-1,4.665391010E0
8.330001500E0,9.283179903E-1,-5.046277501E0,9.589711413E-1,5.219800433E0
8.340041500E0,6.709402218E-1,-5.805317429E0,2.562470047E0,6.381075456E0
8.350080500E0,1.275318664E-1,-6.218627282E0,3.204962687E0,6.997097647E0
8.360119500E0,1.850477108E-1,-4.809185770E0,2.023421083E0,5.220799106E0
8.370158500E0,9.318374294E-1,-2.286339673E0,-3.199306968E-1,2.489583448E0
8.380197500E0,1.836825906E0,-5.647445530E-1,-1.967361487E0,2.750159458E0
8.390237500E0,2.195880031E0,6.347164285E-1,-2.316501073E0,3.254371103E0
8.400276500E0,8.120583862E-1,3.017052764E0,-1.217460173E0,3.353245514E0
8.410315500E0,-8.193881634E-1,5.403966885E0,-1.919272524E-1,5.469103320E0
8.420354500E0,-2.308731878E0,7.158691159E0,-3.943240906E-1,7.532104187E0
8.430393500E0,-2.380877748E0,8.200255099E0,-2.401497661E0,8.870172127E0
8.440433500E0,-2.086430679E0,8.726532574E0,-4.118354198E0,9.872507536E0
8.450472500E0,-2.423145516E0,9.108225948E0,-4.474937581E0,1.043343091E1
8.460511500E0,-3.031035503E0,9.720662731E0,-3.577946926E0,1.079259766E1
8.470550500E0,-3.885570403E0,1.067247133E1,-1.829641286E0,1.150421178E1
8.480589500E0,-4.640880684E0,1.168481614E1,6.321120787E-1,1.258857687E1
8.490629500E0,-5.073681647E0,1.218224112E1,1.662777247E0,1.330090494E1
8.500668500E0,-5.020586590E0,1.196504512E1,1.177824968E0,1.302903934E1
8.510706208E0,-4.556420870E0,1.120273660E1,-1.866333295E-1,1.209533425E1
8.520745208E0,-4.387232855E0,1.013744408E1,-1.993450594E0,1.122450132E1
8.530784208E0,-4.335912135E0,8.987334765E0,-3.220777944E0,1.048550098E1
8.540824208E0,-4.089378613E0,8.160864746E0,-3.153553090E0,9.657516655E0
8.550863208E0,-3.691782274E0,7.464412830E0,-3.232992193E0,8.933026014E0
8.560902208E0,-3.513018858E0,6.178591397E0,-4.000914626E0,8.156200769E0
8.570941208E0,-3.212163826E0,4.166185006E0,-5.137270702E0,7.353002394E0
8.580981208E0,-2.673739052E0,7.342161584E-1,-5.659919980E0,6.302590583E0
8.591020208E0,-9.243918774E-1,-4.782869207E0,-5.019262780E0,6.994521931E0
8.601059208E0,2.473519278E0,-1.253645024E1,-3.141631202E0,1.315867504E1
8.611098208E0,6.626401577E0,-2.296355018E1,-4.347656268E-1,2.390445263E1
8.621137208E0,1.446117237E1,-3.002460570E1,5.150868986E0,3.372141612E1
8.631177208E0,1.980749448E1,-2.080791332E1,5.745820255E0,2.929710812E1
8.641216208E0,1.463970423E1,-4.939998509E0,1.508528429E0,1.552418060E1
8.651255208E0,6.483802021E0,-2.975052214E0,-1.106438359E0,7.219060199E0
8.661294208E0,-1.280854516E0,-5.414143964E0,-4.215922008E0,6.980511552E0
8.671333208E0,-3.469347174E0,-4.343619350E0,-5.658107343E0,7.932060109E0
8.681373208E0,-3.412699641E0,-4.404443257E0,-3.080225497E0,6.366586869E0
8.691412208E0,-2.110643122E0,-5.150994117E0,-1.568241072E0,5.783332503E0
8.701451208E0,-5.122157988E-1,-6.534934167E0,-2.444161286E0,6.995831186E0
8.711490208E0,1.059896130E0,-6.665077985E0,-2.577486573E0,7.224270301E0
8.721529208E0,1.649746288E0,-5.962085373E0,-1.710537450E0,6.418260137E0
8.731569208E0,1.603532234E0,-5.598739393E0,1.098399460E-2,5.823857747E0
8.741608208E0,6.396701896E-1,-4.958931209E0,1.349561492E0,5.178947085E0
8.751647208E0,1.871489078E-2,-4.028378997E0,2.086946257E0,4.536907788E0
8.761686208E0,-7.494446468E-1,-3.345692596E0,2.623431070E0,4.317142204E0
8.771725208E0,-1.846647474E0,-2.114453752E0,2.407942901E0,3.698541683E0
8.781765208E0,-2.781520486E0,-7.446569467E-1,2.465022982E0,3.790476023E0
8.791804208E0,-3.521361081E0,3.600504899E-1,2.541314528E0,4.357510728E0
8.801843208E0,-3.942863469E0,1.426584379E0,1.840874226E0,4.579315805E0
8.811882208E0,-3.780982134E0,2.605355573E0,1.392163575E0,4.798106186E0
8.821922208E0,-3.425442771E0,3.817493318E0,1.627967749E0,5.381188753E0
8.831961208E0,-3.195586969E0,4.773817717E0,1.978369748E0,6.075776373E0
8.842000208E0,-3.193555062E0,5.143058860E0,1.829697273E0,6.324368782E0
8.852039208E0,-3.279893586E0,5.331780084E0,1.148963331E0,6.364408656E0
8.862078208E0,-3.171569823E0,5.893175352E0,1.378633849E-1,6.693831279E0
8.872118208E0,-2.931353048E0,6.673277535E0,-5.707589990E-1,7.311034783E0
8.882157208E0,-3.119368806E0,7.206581610E0,-6.562704349E-1,7.880099690E0
8.892196208E0,-3.485104251E0,7.428629624E0,2.926537281E-1,8.210732972E0
8.902235208E0,-3.609557558E0,7.537837486E0,2.154965016E0,8.630861716E0
8.912274208E0,-3.537606693E0,7.646241941E0,2.889702746E0,8.906742328E0
8.922314208E0,-3.112295429E0,7.700507026E0,2.449571130E0,8.659364296E0
8.932353208E0,-2.754832039E0,7.887123837E0,1.040713681E0,8.418961156E0
8.942392208E0,-3.217729205E0,7.834626950E0,-6.574224825E-1,8.495137727E0
8.952431208E0,-2.259058319E0,7.364104430E0,-1.432832714E0,7.834946594E0
8.962470208E0,-8.130062199E-1,6.475891907E0,-1.711202279E0,6.747323050E0
8.972510208E0,6.052894387E-1,4.501347992E0,-7.569384384E-1,4.604504843E0
8.982549208E0,1.184236294E0,1.680841196E0,3.238918930E-2,2.056378318E0
8.992588208E0,6.966533527E-1,-1.438614441E0,7.487564296E-1,1.765098749E0
9.002627208E0,-3.274043155E-1,-5.267146717E0,4.715358424E-1,5.298336925E0
9.012666208E0,7.383279204E-3,-1.068541940E1,1.629475161E0,1.080895146E1
9.022706208E0,1.982282705E0,-1.616088311E1,2.937860707E0,1.654492712E1
9.032745208E0,4.085615637E0,-1.959371910E1,2.580013155E0,2.018074705E1
9.042784208E0,3.991926870E0,-1.955579056E1,3.162917991E0,2.020812892E1
9.052823208E0,1.116202478E0,-1.547669339E1,3.572524218E0,1.592284132E1
9.062862208E0,1.150230495E0,-1.250964309E1,2.971767541E0,1.290912866E1
9.072902208E0,2.868715920E0,-1.078735391E1,2.123022554E0,1.136238356E1
9.082941208E0,3.449255556E0,-9.325369903E0,9.385555878E-1,9.987030305E0
9.092980208E0,2.599256342E0,-7.571220410E0,5.175583997E-1,8.021681789E0
9.103019208E0,1.590120330E0,-6.431058966E0,3.657582495E-1,6.634815836E0
9.113058208E0,1.470084448E0,-5.830572723E0,6.773794681E-1,6.051080028E0
9.123098208E0,1.736711780E0,-4.775896987E0,2.613372105E-1,5.088581037E0
9.133137208E0,1.745957251E0,-3.075768750E0,-1.872310612E-1,3.541719299E0
9.143176208E0,1.359344177E0,-1.284223974E0,-7.123974194E-1,2.001139148E0
9.153215208E0,1.004865791E0,6.036665440E-1,-1.002354265E0,1.542362677E0
9.163255208E0,7.406964813E-1,2.646015941E0,-1.183615319E0,2.991818320E0
9.173294208E0,1.132158214E0,4.505441628E0,-9.133301148E-1,4.734443830E0
9.183333208E0,1.777124519E0,6.414487372E0,-4.675989121E-1,6.672515908E0
9.193372208E0,2.322057682E0,8.098518224E0,-5.564648956E-1,8.443198593E0
9.203411208E0,2.231580060E0,9.506083950E0,-5.859953812E-1,9.782074024E0
9.213451208E0,1.623150520E0,1.053189608E1,-2.795520182E-1,1.065990628E1
9.223490208E0,8.654864421E-1,1.131179653E1,1.889983821E-1,1.134643239E1
9.233529208E0,-2.262844683E-1,1.187861509E1,4.986872421E-1,1.189123165E1
9.243568208E0,-1.181670682E0,1.200376422E1,6.096704650E-1,1.207718506E1
9.253607208E0,-1.615107090E0,1.166100862E1,5.485530281E-1,1.178510091E1
9.263647208E0,-1.549954197E0,1.113686187E1,3.705719697E-1,1.125030550E1
9.273686208E0,-1.794660319E0,1.036000197E1,-1.418090129E-1,1.051525350E1
9.283725208E0,-2.103496947E0,9.127120641E0,-4.582082838E-1,9.377578868E0
9.293764208E0,-1.879966517E0,7.670628338E0,-7.784646705E-2,7.898029709E0
9.303803208E0,-1.565356933E0,5.944045544E0,-8.251181424E-2,6.147261826E0
9.313843208E0,-1.766201920E0,4.341691523E0,-1.148664026E0,4.825886815E0
9.323882208E0,-2.102984585E0,2.739925733E0,-1.893022034E0,3.938688818E0
9.333921208E0,-2.925936772E0,1.450911720E0,2.593233710E0,4.170265206E0
9.343960208E0,-5.427469769E0,5.456621647E-2,1.178106131E1,1.297126868E1
9.353999208E0,-9.104395437E0,-1.216178171E0,1.423762396E1,1.694340702E1
9.364039208E0,-7.496581872E0,-1.468604225E0,-2.215321730E0,7.953815971E0
9.374078208E0,7.711826943E-1,-6.446935326E-1,-1.434007185E1,1.437525698E1
9.384117208E0,5.865208120E0,-1.907598558E0,-1.096102674E1,1.257711039E1
9.394156208E0,9.276267325E0,-4.891788801E0,-7.839079020E0,1.309312388E1
9.404195208E0,1.561554255E1,-7.845226198E0,-6.142545651E0,1.852359604E1
9.414235208E0,1.631831004E1,-1.031891358E1,1.185858838E1,2.265818480E1
9.424274208E0,9.787032137E0,-6.317140002E0,6.818057519E0,1.349733915E1
9.434313208E0,7.109707865E0,-3.627725442E0,-8.067932609E0,1.134900323E1
9.444352208E0,4.638573958E0,-3.510168341E0,-5.220649073E0,7.816190049E0
9.454392208E0,3.103509110E0,-5.007468946E0,-2.078767903E0,6.247222586E0
9.464431208E0,3.214759405E0,-6.698724033E0,-3.697324265E0,8.299264330E0
9.474470208E0,3.633297254E0,-9.431050140E0,-4.470187595E0,1.105115979E1
9.484509208E0,2.534067781E0,-1.172912400E1,-3.826993874E0,1.259522654E1
9.494548208E0,5.517758672E-1,-1.152001471E1,-2.040075561E0,1.171226297E1
9.504588208E0,-1.060123294E0,-9.506273984E0,-1.216808647E0,9.642288616E0
9.514627375E0,-2.332852812E0,-7.743319754E0,-1.391259010E0,8.205900602E0
9.524666375E0,-2.967042406E0,-6.079118564E0,-1.003524732E0,6.838573319E0
9.534705375E0,-3.071514900E0,-4.210717986E0,-2.804541705E-1,5.219483143E0
9.544744375E0,-2.746363225E0,-2.790849134E0,1.007237421E0,4.043003472E0
9.554784375E0,-2.038011055E0,-1.904055730E0,2.083759378E0,3.481518409E0
9.564823375E0,-1.314979159E0,-1.128899707E0,2.737068198E0,3.239618351E0
9.574862375E0,-9.206660315E-1,-1.018479717E-1,2.938605350E0,3.081136211E0
9.584901375E0,-7.881105298E-1,1.439548826E0,2.850693047E0,3.289357061E0
9.594940375E0,-1.566030532E-1,2.706908260E0,3.732549646E0,4.613437299E0
9.604980375E0,6.454215109E-2,3.434780189E0,4.951594123E0,6.026621358E0
9.615019375E0,-8.461722118E-1,4.360518388E0,5.206330411E0,6.843683539E0
9.625058375E0,-2.046800590E0,5.237656869E0,4.739764118E0,7.354441245E0
9.635097375E0,-2.608464245E0,6.226508160E0,4.542210674E0,8.136655787E0
9.645136375E0,-3.138335711E0,7.384278494E0,4.217171558E0,9.064284630E0
9.655176375E0,-3.987136247E0,7.868169503E0,3.515776405E0,9.495579524E0
9.665215375E0,-4.306464388E0,8.241646369E0,2.859662091E0,9.728722304E0
9.675254375E0,-4.806226202E0,9.058210620E0,2.243345096E0,1.049683701E1
9.685293375E0,-5.313337966E0,9.193205872E0,1.816909413E0,1.077254633E1
9.695332375E0,-5.865570062E0,9.234432251E0,7.111447265E-1,1.096290919E1
9.705372375E0,-6.321770997E0,9.132707071E0,-7.344249040E-3,1.110725803E1
9.715411375E0,-5.515726472E0,8.643514391E0,5.512915716E-2,1.025361491E1
9.725450375E0,-4.372715388E0,7.874764577E0,-3.746968880E-2,9.007439202E0
9.735489375E0,-2.955080172E0,6.806546105E0,-3.026833110E-1,7.426519097E0
9.745529375E0,-1.958585840E0,5.664505366E0,-6.199035309E-1,6.025525697E0
9.755568375E0,-1.076160014E0,3.823632894E0,2.224179970E-1,3.978411574E0
9.765607375E0,1.320074715E-1,1.570715321E0,1.853818500E0,2.433354808E0
9.775646375E0,7.833731157E-1,-8.130261004E-1,2.470488082E0,2.716246719E0
9.785685375E0,1.000643224E0,-3.380916224E0,2.950229907E0,4.597362056E0
9.795725375E0,1.927771891E0,-6.989887306E0,4.550906069E0,8.560699449E0
9.805764375E0,4.603274609E0,-1.099261340E1,4.544827888E0,1.275473038E1
9.815803375E0,6.761241878E0,-1.659466699E1,2.063385632E0,1.803759753E1
9.825842375E0,6.182986749E0,-2.064671961E1,8.424539673E-1,2.156910023E1
9.835881375E0,1.148292728E0,-1.929405398E1,2.368993574E0,1.947283302E1
9.845921375E0,4.079780701E-1,-1.414041049E1,4.401346279E0,1.481517816E1
9.855960375E0,2.818740645E0,-8.768028510E0,3.520243678E0,9.859804173E0
9.865999375E0,2.484098646E0,-6.525173410E0,-2.140958011E-3,6.982022536E0
9.876038375E0,1.263714280E0,-6.084811413E0,-2.388807449E0,6.657950491E0
9.886077375E0,7.769490722E-1,-6.677302759E0,-1.522487194E0,6.892603953E0
9.896117375E0,1.433619749E0,-7.342503646E0,1.049819623E0,7.554452106E0
9.906156375E0,2.938332285E0,-6.707734593E0,1.885334115E0,7.561877062E0
9.916195375E0,4.208310395E0,-5.631510113E0,1.344575425E0,7.157629887E0
9.926234375E0,4.198564548E0,-4.570481962E0,5.643042576E-1,6.231828698E0
9.936273375E0,3.012892178E0,-3.115363755E0,-6.329988089E-1,4.379919873E0
9.946313375E0,2.408196232E0,-1.168362565E0,-2.118094813E0,3.413327674E0
9.956352375E0,2.023481748E0,6.826513177E-1,-3.207455648E0,3.853344383E0
9.966391375E0,2.678894250E0,3.151666194E0,-3.472193599E0,5.400518733E0
9.976430375E0,2.741907354E0,5.482300864E0,-3.082757927E0,6.861273580E0
9.986469375E0,2.329179152E0,7.487435072E0,-2.555835503E0,8.247366525E0
9.996509375E0,1.519058095E0,9.238284981E0,-1.928037793E0,9.558806234E0
1.000654838E1,1.197628903E-1,1.075620696E1,-1.296911555E0,1.083477323E1
1.001658738E1,-1.239618782E0,1.166202253E1,-1.011068371E-1,1.172815615E1
1.002662638E1,-2.587523319E0,1.175661060E1,1.552399503E0,1.213767333E1
1.003666537E1,-4.342283554E0,1.161690424E1,2.203430248E0,1.259615003E1
1.004670538E1,-4.896874417E0,1.141365736E1,2.114433287E0,1.259848331E1
1.005674438E1,-4.017001485E0,1.062619412E1,8.504284000E-1,1.139190638E1
1.006678337E1,-3.208836175E0,1.017420552E1,5.592801838E-1,1.068287798E1
1.007682238E1,-2.908080545E0,9.449725562E0,1.110959572E0,9.949295293E0
1.008686138E1,-2.245976343E0,8.881523550E0,3.740197805E-1,9.168738250E0
1.009690137E1,-1.650596181E0,8.670663013E0,-5.670761302E-1,8.844571227E0
1.010694038E1,-2.509946555E0,8.199177457E0,-1.702342578E0,8.742100030E0
1.011697938E1,-4.087851613E0,7.267758688E0,-3.680469081E0,9.114642056E0
1.012701838E1,-4.626320533E0,6.397974250E0,-1.852559448E0,8.109802259E0
1.013705738E1,-2.424021867E0,5.679052069E0,1.165746521E1,1.319181600E1
1.014709738E1,-3.006692375E-1,5.074416642E0,6.456822968E0,8.217704611E0
1.015713638E1,3.556770065E0,3.700045559E0,-1.633649196E0,5.386070936E0
1.016717538E1,7.287430476E0,-1.022969209E0,-6.457536913E0,9.790449015E0
1.017721437E1,6.158071763E0,-8.581008825E0,-1.014000516E1,1.464155951E1
1.018725438E1,7.342912366E0,-1.640698774E1,-9.142065539E0,2.016643179E1
1.019729338E1,8.869774740E0,-2.366713628E1,-1.359007815E0,2.531112692E1
1.020733237E1,5.057449191E0,-2.163542297E1,1.004760044E1,2.438490504E1
1.021737138E1,2.218002240E0,-9.775519554E0,1.008683526E1,1.422056827E1
1.022741038E1,4.423839056E0,-2.622054051E0,-9.183999431E-1,5.223885326E0
1.023745037E1,5.697549151E0,-1.069951587E0,-4.483166660E0,7.328413609E0
1.024748938E1,4.822485847E0,-2.038052863E0,-5.097069340E0,7.306856032E0
1.025752838E1,4.765973092E0,-5.272298698E0,-7.350257639E0,1.022437873E1
1.026756738E1,4.553802195E0,-9.581869127E0,-6.779189322E0,1.258994592E1
1.027760638E1,1.455229304E0,-1.376857084E1,-1.443898716E0,1.392034766E1
1.028764638E1,-9.748309828E-1,-1.403409174E1,1.566203610E0,1.415482321E1
1.029768538E1,-1.636051524E0,-1.152856217E1,5.214893366E-1,1.165574371E1
1.030772438E1,-2.018644200E0,-8.854087830E0,-9.600543380E-2,9.081795678E0
1.031776338E1,-2.582448521E0,-6.066084536E0,1.315291400E0,6.722827785E0
1.032780238E1,-3.014086472E0,-3.535003220E0,3.674239458E0,5.922921629E0
1.033784238E1,-2.105340282E0,-8.362915868E-1,4.460956011E0,5.003195964E0
1.034788137E1,-1.067171528E0,1.417981955E0,4.847738802E0,5.162373426E0
1.035792038E1,-2.252870795E-1,2.451156310E0,4.940237076E0,5.519498518E0
1.036795938E1,1.147114076E-1,2.818394197E0,5.399301392E0,6.091712409E0
1.037799837E1,-9.328773567E-1,3.750005339E0,5.790621037E0,6.961615632E0
1.038803838E1,-2.094144326E0,5.098758600E0,5.648559424E0,7.892338265E0
1.039807738E1,-3.017107728E0,6.106399333E0,5.447963090E0,8.721889342E0
1.040811637E1,-4.080227428E0,6.737645440E0,4.379784964E0,9.012582219E0
1.041815538E1,-4.968759209E0,7.300341128E0,3.721475020E0,9.582949702E0
1.042819438E1,-5.431577438E0,7.943557654E0,3.466652777E0,1.022838321E1
1.043823438E1,-5.746716633E0,8.645079691E0,3.142031736E0,1.084594479E1
1.044827338E1,-5.475891146E0,8.366287372E0,3.067803673E0,1.045904238E1
1.045831238E1,-5.283318361E0,7.865730629E0,2.513577091E0,9.803124044E0
1.046835138E1,-5.476747763E0,8.029419923E0,1.525533886E0,9.838374052E0
1.047839038E1,-5.133082341E0,8.106624804E0,4.027263568E-1,9.603545624E0
1.048843038E1,-4.238057227E0,8.261430423E0,-6.960233152E-1,9.311112187E0
1.049846938E1,-3.326530101E0,8.335222285E0,-1.824092717E0,9.158004548E0
1.050850850E1,-2.302209308E0,8.779836377E0,-2.711800625E0,9.473096491E0
1.051854750E1,-1.497260113E0,9.507752160E0,-3.259584160E0,1.016189096E1
1.052858650E1,-3.350906266E-1,9.232358243E0,-2.331822386E0,9.528175067E0
1.053862650E1,1.643136595E0,7.941681867E0,3.871843480E-1,8.119120671E0
1.054866550E1,3.414618990E0,6.396271541E0,2.359024656E0,7.624756377E0
1.055870450E1,4.807688883E0,4.229384637E0,2.893349655E0,7.026595123E0
1.056874350E1,5.856099327E0,1.515604729E0,2.439909191E0,6.522584908E0
1.057878350E1,6.786695977E0,-2.318159636E0,2.763338569E0,7.685645479E0
1.058882250E1,6.534611986E0,-7.716810232E0,3.888371804E0,1.083373201E1
1.059886150E1,6.450170006E0,-1.587227157E1,4.513444420E0,1.771736093E1
1.060890050E1,8.560074624E0,-2.233506805E1,2.955270791E0,2.410111549E1
1.061893950E1,9.370289383E0,-2.576279240E1,3.166699970E-1,2.741576327E1
1.062897950E1,4.986473349E0,-2.295230247E1,1.432553509E0,2.353136874E1
1.063901850E1,2.094860025E0,-1.667966680E1,6.642225312E0,1.807536667E1
1.064905750E1,3.028255737E0,-1.229652612E1,7.791299082E0,1.486873326E1
1.065909650E1,1.334617909E0,-1.008255042E1,4.004252216E0,1.093037345E1
1.066913550E1,-7.208965666E-1,-1.031043863E1,1.368267758E0,1.042578502E1
1.067917550E1,-5.181634404E-1,-1.072974129E1,7.925719553E-1,1.077144428E1
1.068921450E1,1.443320864E0,-1.055486511E1,2.267202321E0,1.089167383E1
1.069925350E1,3.551515172E0,-9.358819485E0,3.411669654E0,1.057545517E1
1.070929250E1,4.633053017E0,-7.329847348E0,2.910588416E0,9.146768135E0
1.071933150E1,4.164473526E0,-5.672678604E0,8.691891915E-1,7.090670783E0
1.072937150E1,3.049676135E0,-3.393703499E0,-1.311919311E0,4.747513059E0
1.073941050E1,3.148668326E0,3.005071235E-1,-2.966654443E0,4.336525723E0
1.074944950E1,3.399720284E0,3.580764699E0,-3.200213286E0,5.883990051E0
1.075948850E1,2.557968568E0,6.000403932E0,-3.656844576E0,7.478005268E0
1.076952750E1,1.001738700E0,7.575492970E0,-4.842897892E0,9.046835588E0
1.077956750E1,-1.844368230E-1,8.733950352E0,-5.074183338E0,1.010263541E1
1.078960650E1,-5.383464208E-1,1.015453432E1,-4.784807559E0,1.123827244E1
1.079964550E1,-1.081970246E0,1.134313994E1,-4.500399574E0,1.225116646E1
1.080968450E1,-1.769042644E0,1.235765057E1,-4.212163710E0,1.317510389E1
1.081972350E1,-2.576529969E0,1.326931335E1,-4.071246982E0,1.411694852E1
1.082976350E1,-3.509106486E0,1.399110301E1,-4.124141479E0,1.500244429E1
1.083980250E1,-4.212262820E0,1.400904811E1,-3.955120402E0,1.515386302E1
1.084984150E1,-5.165641977E0,1.345567581E1,-3.492755333E0,1.483032057E1
1.085988050E1,-5.051618932E0,1.230051743E1,-2.660194269E0,1.356090765E1
1.086991950E1,-4.053664697E0,1.055132988E1,-2.243698853E0,1.152375565E1
1.087995950E1,-3.833802664E0,9.447869071E0,-2.816614597E0,1.057797668E1
1.088999850E1,-3.281965255E0,8.381312962E0,-3.165941586E0,9.541534941E0
1.090003750E1,-2.522112857E0,7.390115184E0,-3.163456812E0,8.425100278E0
1.091007650E1,-2.327915861E0,6.651452803E0,-1.954509746E0,7.313079037E0
1.092011550E1,-2.583869979E0,5.775846292E0,-3.028050792E-1,6.334704048E0
1.093015550E1,-3.095726174E0,4.471175190E0,9.475592767E-1,5.520217089E0
1.094019450E1,-3.960347813E0,3.092269008E0,2.429305265E0,5.581039911E0
1.095023350E1,-5.592137886E0,1.911696287E0,9.282303990E0,1.100398820E1
1.096027250E1,-6.622276951E0,1.674525619E0,1.981430999E1,2.095866094E1
1.097031150E1,-5.212840701E0,3.963194237E0,3.008495949E0,7.206362787E0
1.098035150E1,-2.326419705E0,6.221009438E0,-1.184276581E1,1.357808120E1
1.099039050E1,4.702286389E0,7.038967665E0,-7.255474273E0,1.114901206E1
1.100042950E1,1.004713266E1,6.259518031E0,1.207573116E0,1.189893581E1
1.101046850E1,9.670290138E0,1.340427411E0,-2.206656157E0,1.000902535E1
1.102050750E1,8.890417165E0,-5.902888747E0,-4.892551278E0,1.173970489E1
1.103054750E1,9.325079296E0,-1.489828214E1,-7.982371472E0,1.930373459E1
1.104058650E1,1.215146021E1,-3.013836445E1,-6.890277064E0,3.321829187E1
1.105062550E1,9.321964484E-1,-3.759700257E1,1.988042329E1,4.253980280E1
1.106066450E1,-9.103859832E0,-1.713072218E1,1.725922527E1,2.596579988E1
1.107070350E1,1.632460311E0,-3.127273364E0,-2.094440487E-1,3.533925886E0
1.108074350E1,2.888312863E0,-3.510028592E0,-9.676677636E0,1.069115251E1
1.109078250E1,2.409106058E0,-3.824982432E0,-1.023841614E1,1.119193672E1
1.110082150E1,2.699475864E0,-6.368035337E0,-5.592775818E0,8.894840377E0
1.111086050E1,3.032987012E0,-1.068694435E1,-2.813557380E0,1.145975109E1
1.112090050E1,3.419472764E0,-1.089968477E1,-3.286227875E0,1.188676641E1
1.113093950E1,1.574123663E0,-1.059477118E1,-2.139667823E0,1.092269290E1
1.114097850E1,-6.965326077E-1,-9.880384104E0,1.210076602E0,9.978548647E0
1.115101750E1,-2.278837549E0,-8.344541577E0,2.487574523E0,9.000694513E0
1.116105650E1,-2.719730912E0,-6.806484125E0,2.521977201E0,7.751485753E0
1.117109650E1,-2.828082449E0,-4.952132066E0,2.532721460E0,6.239899064E0
1.118113550E1,-2.604118302E0,-2.408556420E0,3.557550083E0,5.023817150E0
1.119117450E1,-1.432921153E0,-4.131040317E-1,4.734702768E0,4.964003250E0
1.120121350E1,4.958003256E-1,1.129262819E0,5.298684259E0,5.440322358E0
1.121125250E1,1.785238700E0,2.492687913E0,5.294046248E0,6.117801559E0
1.122129250E1,9.789507848E-1,4.517133721E0,4.412776124E0,6.390260934E0
1.123133150E1,-6.244943261E-2,6.811853623E0,3.748199134E0,7.775232888E0
1.124137050E1,-8.318655369E-1,8.076827978E0,3.010659419E0,8.659747144E0
1.125140950E1,-2.469159887E0,8.968533043E0,2.069746526E0,9.529700214E0
1.126144850E1,-3.805573184E0,9.756781567E0,1.437860734E0,1.057093266E1
1.127148850E1,-4.518568627E0,1.080307473E1,6.180775917E-1,1.172629123E1
1.128152750E1,-5.220686495E0,1.108887377E1,3.591622248E-1,1.226163474E1
1.129156650E1,-6.016640480E0,1.061891434E1,5.876388142E-1,1.221910896E1
1.130160550E1,-6.835657638E0,9.766499639E0,1.137039031E0,1.197512373E1
1.131164450E1,-6.952888464E0,8.944844218E0,1.199699402E0,1.139263686E1
1.132168450E1,-6.543564658E0,8.391947293E0,4.248211940E-1,1.065004652E1
1.133172350E1,-5.536743704E0,8.336427396E0,-7.204512280E-1,1.003347410E1
1.134176250E1,-4.693976034E0,8.521295305E0,-1.471763622E0,9.839307538E0
1.135180150E1,-3.806322797E0,8.455245157E0,-1.096486251E0,9.337105868E0
1.136184050E1,-2.027930017E0,7.660657082E0,4.201867640E-1,7.935661535E0
1.137188050E1,-5.563518982E-1,6.786388999E0,1.163084722E0,6.907775991E0
1.138191950E1,2.640589432E-1,5.914134112E0,1.345037794E0,6.070900764E0
1.139195850E1,1.483417415E0,5.130190893E0,1.634222223E0,5.584806899E0
1.140199750E1,2.157886578E0,4.375936326E0,1.964437880E0,5.259687196E0
1.141203650E1,2.162434980E0,3.100820560E0,2.165020619E0,4.356435180E0
1.142207650E1,1.991166087E0,2.637854397E-2,1.735980732E0,2.641792444E0
1.143211550E1,1.387257176E0,-3.905735988E0,1.684115637E0,4.473868746E0
1.144215450E1,1.504416520E0,-7.246798759E0,2.651962852E0,7.862077861E0
1.145219350E1,1.998307584E0,-1.172241140E1,3.379683046E0,1.236246010E1
1.146223250E1,1.392403895E0,-1.816077354E1,2.196521763E0,1.834604023E1
1.147227250E1,1.449060784E0,-2.450179825E1,2.848675758E0,2.470936762E1
1.148231150E1,6.067345780E0,-2.441573191E1,5.778747096E0,2.581345710E1
1.149235050E1,7.431197721E0,-1.704371328E1,7.812805141E0,2.016806352E1
1.150238950E1,3.081633507E0,-1.196040711E1,6.050927968E0,1.375360071E1
1.151242875E1,-1.791989457E0,-9.488440561E0,3.781110772E0,1.037007855E1
1.152246875E1,-5.773494542E0,-7.708669739E0,2.810178275E0,1.003264324E1
1.153250775E1,-7.454990627E0,-6.343598068E0,3.544057926E0,1.041049798E1
1.154254675E1,-6.904128533E0,-5.710385544E0,3.515378502E0,9.624623622E0
1.155258575E1,-3.321604114E0,-6.352654236E0,4.099201058E0,8.257888292E0
1.156262475E1,2.561081041E0,-5.581519343E0,4.667865877E0,7.713719344E0
1.157266475E1,4.208708005E0,-5.402690438E0,2.597357751E0,7.324517345E0
1.158270375E1,3.795944574E0,-5.995698093E0,8.002265453E-2,7.096759433E0
1.159274275E1,4.731346466E0,-3.931871873E0,-1.842952327E0,6.421972367E0
1.160278175E1,5.840335819E0,-3.720185709E-1,-3.435871865E0,6.786246073E0
1.161282075E1,6.158410317E0,2.291745424E0,-4.270172474E0,7.836612002E0
1.162286075E1,5.990661886E0,4.514036450E0,-4.069883704E0,8.533962050E0
1.163289975E1,5.369279448E0,6.418127264E0,-3.697375721E0,9.148339007E0
1.164293875E1,5.244116288E0,8.065679677E0,-3.055598195E0,1.009418767E1
1.165297775E1,5.245273452E0,9.744583105E0,-2.433201557E0,1.133094274E1
1.166301675E1,4.580470176E0,1.115221783E1,-1.494269993E0,1.214847778E1
1.167305675E1,3.131274029E0,1.174119383E1,-8.024145734E-1,1.217802852E1
1.168309575E1,1.336646601E0,1.185274233E1,-6.395734182E-1,1.194500645E1
1.169313475E1,-4.848079987E-2,1.185662722E1,-4.892207462E-1,1.186681492E1
1.170317375E1,-1.125002976E0,1.170532350E1,-2.659459859E-1,1.176226837E1
1.171321275E1,-1.818642527E0,1.137085809E1,-2.161709780E-1,1.151740440E1
1.172325275E1,-2.495343719E0,1.053969275E1,-8.619003448E-1,1.086529962E1
1.173329175E1,-3.374670812E0,9.550002387E0,-2.139997021E0,1.035232032E1
1.174333075E1,-4.206778716E0,8.802131810E0,-3.757330731E0,1.045428361E1
1.175336975E1,-4.594480982E0,7.984943077E0,-3.693188237E0,9.925130266E0
1.176340875E1,-5.364181260E0,6.917835576E0,-2.847861825E0,9.205498717E0
1.177344875E1,-5.578927857E0,6.126788574E0,-3.277498274E0,8.910890483E0
1.178348775E1,-5.822568469E0,5.990367771E0,-3.828398960E0,9.189311628E0
1.179352675E1,-6.439259101E0,6.181678142E0,-4.111570843E0,9.827625207E0
1.180356575E1,-7.112903368E0,6.193828656E0,-3.144546624E0,9.942086361E0
1.181360475E1,-6.600311885E0,5.195250522E0,3.052934496E0,8.937290082E0
1.182364475E1,-2.955738861E0,3.969908010E0,8.739882352E0,1.004400843E1
1.183368375E1,-5.598233901E-1,2.588883381E0,6.011889617E0,6.569515672E0
1.184372275E1,2.662194894E0,-1.318041345E0,-7.667734551E-1,3.067972649E0
1.185376175E1,6.250727327E0,-8.959546457E0,-2.493575813E0,1.120548906E1
1.186380075E1,6.868179266E0,-1.775116205E1,-5.007906318E-1,1.904012689E1
1.187384075E1,5.726530876E0,-2.463249053E1,-1.876884596E0,2.535893219E1
1.188387975E1,4.181274624E0,-2.289927057E1,-2.794957972E0,2.344507283E1
1.189391875E1,-1.944756152E-1,-1.541755466E1,1.079468983E1,1.882190588E1
1.190395775E1,-2.456944469E-1,-7.349537262E0,9.638897606E0,1.212371275E1
1.191399775E1,-3.866332479E-1,-2.943003041E0,-7.708397551E-1,3.066748456E0
1.192403675E1,-1.482711802E0,-3.073361451E0,-4.889047042E0,5.962110857E0
1.193407575E1,-1.655750501E0,-2.534091462E0,-7.035248836E0,7.658841652E0
1.194411475E1,-6.856537168E-1,-3.644899299E0,-7.193073957E0,8.092942905E0
1.195415375E1,6.326041219E-1,-6.031812251E0,-6.221338052E0,8.688382712E0
1.196419275E1,2.363213017E0,-7.348463713E0,-4.718090828E0,9.046826834E0
1.197423275E1,2.572388971E0,-7.771323824E0,-1.755213540E0,8.372062683E0
1.198427175E1,1.256763403E0,-7.894878999E0,2.201065049E0,8.291758318E0
1.199431075E1,1.214188948E-1,-6.933524825E0,5.027628391E0,8.565369594E0
1.200434975E1,-4.705538025E-1,-5.112848636E0,5.317356758E0,7.391679440E0
1.201438975E1,-3.259808108E-1,-3.154244231E0,4.426752723E0,5.445333767E0
1.202442875E1,-3.023112819E-1,-1.160800946E0,4.087725313E0,4.260087931E0
1.203446775E1,-6.242048889E-1,8.639378071E-1,4.280772307E0,4.411465949E0
1.204450675E1,-1.292126778E0,2.350249155E0,4.382905623E0,5.138397065E0
1.205454575E1,-2.309551950E0,4.080533822E0,4.479221544E0,6.484459277E0
1.206458575E1,-2.804219962E0,5.541845400E0,4.304230167E0,7.556592973E0
1.207462475E1,-2.483004047E0,6.679068618E0,3.664040744E0,8.012519034E0
1.208466375E1,-1.929260738E0,7.649151515E0,3.323657949E0,8.560272663E0
1.209470275E1,-1.602626793E0,7.890692977E0,3.413462995E0,8.745466135E0
1.210474175E1,-1.520305306E0,7.473662540E0,2.553012468E0,8.042688148E0
1.211478175E1,-1.385070025E0,7.159478779E0,1.631743881E0,7.472559365E0
1.212482075E1,-1.428677682E0,6.869518864E0,1.911332005E0,7.272179823E0
1.213485975E1,-1.919972290E0,6.683689672E0,2.580367497E0,7.417297193E0
1.214489875E1,-2.617967725E0,7.329415238E0,2.552653449E0,8.190856022E0
1.215493775E1,-3.333014663E0,8.161336032E0,2.082421535E0,9.058304036E0
1.216497775E1,-4.314257557E0,8.334793099E0,8.007557184E-1,9.419278316E0
1.217501675E1,-5.333013847E0,8.837720888E0,-6.283026177E-1,1.034123355E1
1.218505575E1,-4.874396258E0,8.323813198E0,1.288751473E0,9.731725715E0
1.219509475E1,-2.902452308E0,7.240744552E0,2.867828897E0,8.311260653E0
1.220513375E1,-1.803999784E0,5.711214094E0,3.090990222E0,6.739925979E0
1.221517375E1,-1.030277790E0,4.049489200E0,2.823302350E0,5.042903059E0
1.222521275E1,1.989509279E-1,2.866363000E0,2.801194028E0,4.012767910E0
1.223525175E1,1.067256020E0,1.743736771E0,2.869828060E0,3.523572964E0
1.224529075E1,1.922984483E0,1.408535779E-2,2.828207579E0,3.420062255E0
1.225532975E1,2.310646987E0,-3.179026485E0,1.922864176E0,4.375237769E0
1.226536975E1,1.478322882E0,-7.813586329E0,1.864823252E-1,7.954391587E0
1.227540875E1,1.139965708E0,-1.116381403E1,-3.199613947E-1,1.122642600E1
1.228544775E1,3.751489947E0,-1.539769751E1,2.650054613E-1,1.585033102E1
1.229548675E1,6.398498746E0,-1.984260584E1,1.359571779E0,2.089301864E1
1.230552575E1,4.645139796E0,-2.232255267E1,3.071510223E0,2.300669156E1
1.231556575E1,-3.616406402E-1,-1.976065126E1,5.114449019E0,2.041498741E1
1.232560475E1,-1.727019874E0,-1.403199843E1,6.356012877E0,1.550091860E1
1.233564375E1,-1.416003550E0,-1.001883682E1,4.343652387E0,1.101133385E1
1.234568275E1,-1.353534822E0,-8.932704229E0,2.643592855E0,9.413492685E0
1.235572175E1,-3.582377800E-1,-8.631410070E0,1.824420746E0,8.829387587E0
1.236576175E1,1.427807617E0,-7.853376047E0,1.858275832E0,8.195568253E0
1.237580075E1,3.059632189E0,-6.827041765E0,2.044861361E0,7.755727328E0
1.238583975E1,3.448853268E0,-5.555955316E0,1.786806192E0,6.779078455E0
1.239587875E1,3.435590321E0,-4.109109165E0,6.719497436E-1,5.398108506E0
1.240591775E1,3.409791529E0,-2.876147731E0,-3.448740417E-1,4.474130323E0
1.241595775E1,2.964883029E0,-1.696892973E0,-1.623093510E0,3.782117089E0
1.242599675E1,2.385871562E0,-1.493121600E-1,-2.950841233E0,3.797649433E0
1.243603575E1,2.172390011E0,1.593338783E0,-3.414848785E0,4.349620566E0
1.244607475E1,1.197265937E0,3.548957600E0,-4.527473937E0,5.875931077E0
1.245611375E1,1.248558736E0,6.036354368E0,-4.065856434E0,7.384284766E0
1.246615375E1,1.586611269E0,8.524154593E0,-3.345098519E0,9.293450971E0
1.247619275E1,1.781683301E0,9.903487623E0,-2.685075341E0,1.041456154E1
1.248623175E1,1.733923389E0,1.061669590E1,-2.387642392E0,1.101914509E1
1.249627075E1,9.311908735E-1,1.114605135E1,-2.689643186E0,1.150372799E1
1.250630975E1,-4.290029034E-3,1.188267657E1,-2.955620162E0,1.224474219E1
1.251634950E1,-1.015022112E0,1.281477887E1,-3.595102949E0,1.334816814E1
1.252638850E1,-1.849328569E0,1.328637553E1,-4.113919377E0,1.403111269E1
1.253642750E1,-2.685210412E0,1.259756066E1,-3.795016328E0,1.342799458E1
1.254646650E1,-3.220664508E0,1.043248288E1,-9.282963556E-1,1.095769652E1
1.255650550E1,-3.482854827E0,8.495807877E0,-1.320152775E0,9.276412700E0
1.256654550E1,-3.011869208E0,7.411624167E0,-4.010641176E0,8.949233015E0
1.257658450E1,-3.156329933E0,6.549176815E0,-3.940728942E0,8.269430464E0
1.258662350E1,-3.660595272E0,5.686142988E0,-2.657843689E0,7.266107135E0
1.259666250E1,-3.685289234E0,5.183588251E0,-1.580972507E0,6.553656839E0
1.260670150E1,-3.702282996E0,4.902348288E0,-5.016481259E-1,6.163730118E0
1.261674150E1,-3.925214233E0,4.326606292E0,8.689839542E-2,5.842463531E0
1.262678050E1,-3.947815768E0,3.979872835E0,3.664318779E0,6.697153816E0
1.263681950E1,-3.391742928E0,2.803984319E0,2.214265255E1,2.257572392E1
1.264685850E1,-2.573706349E0,3.076085084E0,1.197657817E1,1.263030833E1
1.265689750E1,-2.486254807E0,4.541913636E0,-4.287451874E0,6.722550558E0
1.266693750E1,3.654409211E0,5.060616043E0,-5.441273875E0,8.280821384E0
1.267697650E1,8.226341282E0,2.789796635E0,-6.859209638E0,1.106817117E1
1.268701550E1,7.167042153E0,-3.943417785E0,-8.822618115E0,1.203144328E1
1.269705450E1,9.558310695E0,-1.763175723E1,-7.811011215E0,2.152329116E1
1.270709350E1,1.374014051E1,-3.230308087E1,-1.160049462E1,3.697096117E1
1.271713350E1,1.260598065E1,-3.199327433E1,-1.634873076E1,3.807573175E1
1.272717250E1,-5.730240642E-1,-1.624559641E1,8.541289859E0,1.836304418E1
1.273721150E1,-3.971234744E0,-5.503558416E0,3.200936587E1,3.272093159E1
1.274725050E1,-1.818255442E0,-2.237608978E0,-2.357101507E0,3.724093756E0
1.275728950E1,1.312510757E0,-3.209462997E0,-1.448550731E1,1.489473931E1
1.276732950E1,7.061002605E-1,-4.697041436E0,-1.464711149E1,1.539800801E1
1.277736850E1,4.642993283E-1,-7.131190535E0,-1.212344503E1,1.407293046E1
1.278740750E1,6.755871503E-1,-8.687760272E0,-1.009119962E1,1.333288814E1
1.279744650E1,2.362861307E-1,-9.393365420E0,-8.558277774E0,1.270965238E1
1.280748550E1,-1.047079764E0,-1.028951028E1,-2.551951198E0,1.065283308E1
1.281752550E1,-1.647128782E0,-9.955316173E0,1.352758604E1,1.687652030E1
1.282756450E1,3.789007437E-1,-6.451493815E0,1.873548935E1,1.981877644E1
1.283760350E1,1.963098575E0,-3.995405964E0,9.719498550E0,1.069044793E1
1.284764250E1,2.692940431E0,-3.248590810E0,5.731476451E0,7.117239122E0
1.285768150E1,1.892951137E0,-1.515887734E0,4.910091171E0,5.476328600E0
1.286772150E1,3.710455942E-1,4.377512151E-1,3.337051581E0,3.386032223E0
1.287776050E1,-4.552314663E-1,2.545596444E0,2.255135422E0,3.431170750E0
1.288779950E1,-2.090025839E-1,5.023489147E0,1.687782572E0,5.303558740E0
1.289783850E1,7.523178224E-1,7.300411295E0,1.092797828E0,7.419986137E0
1.290787750E1,8.575713587E-1,9.139143686E0,1.085648583E0,9.243268296E0
1.291791750E1,2.257873088E-2,1.001755277E1,-7.702825154E-1,1.004714927E1
1.292795650E1,-1.926640747E0,9.260838861E0,-3.836268727E0,1.020745016E1
1.293799550E1,-3.607745506E0,8.886646296E0,-5.571284376E0,1.109177712E1
1.294803450E1,-4.600503321E0,1.012862648E1,-1.886835095E0,1.128334400E1
1.295807350E1,-5.779140614E0,1.099934471E1,3.611050060E0,1.293923231E1
1.296811350E1,-5.520359221E0,1.050612389E1,1.517954433E0,1.196483141E1
1.297815250E1,-4.216707289E0,9.683248737E0,-1.419332662E0,1.065647370E1
1.298819150E1,-2.462149660E0,9.002504781E0,-3.461783801E0,9.954457311E0
1.299823050E1,-1.445549823E0,8.545867059E0,-4.739382294E0,9.878421059E0
1.300826950E1,-1.383828515E0,8.674966564E0,-5.016415186E0,1.011604901E1
1.301830950E1,-1.408274116E0,8.736903196E0,-5.066875488E0,1.019754581E1
1.302834850E1,-1.363639687E0,8.860567129E0,-4.793626037E0,1.016602251E1
1.303838750E1,-9.705464356E-1,9.123560856E0,-4.475840684E0,1.020854901E1
1.304842650E1,-6.321449693E-1,9.495388808E0,-4.491265638E0,1.052299781E1
1.305846550E1,-1.040281499E0,9.494495938E0,-5.225571259E0,1.088734282E1
1.306850550E1,-1.451751526E0,9.270031269E0,-6.235345641E0,1.126590420E1
1.307854450E1,-1.287439650E0,8.644024268E0,-5.992612517E0,1.059660612E1
1.308858350E1,1.730540337E0,5.680151346E0,8.565161701E0,1.042213434E1
1.309862250E1,5.179510403E0,-1.983891858E0,2.578881017E1,2.637851181E1
1.310866250E1,1.943245670E0,-9.919218972E0,8.785684177E-1,1.014588543E1
1.311870150E1,3.061216784E0,-2.296321338E1,-8.298263204E0,2.460775059E1
1.312874050E1,1.155295792E1,-3.768710816E1,2.349733431E0,3.948810208E1
1.313877950E1,1.451982813E1,-3.814706886E1,1.401085841E1,4.315470339E1
1.314881850E1,1.245818292E1,-1.444283433E1,8.941625910E0,2.106548027E1
1.315885850E1,9.333607460E0,-9.258309356E0,-3.192706046E0,1.352870623E1
1.316889750E1,5.276156107E0,-1.348496217E1,-2.508938787E0,1.469614922E1
1.317893650E1,4.749192168E0,-1.734549392E1,4.530314806E0,1.854574716E1
1.318897550E1,3.571748292E0,-1.680164907E1,2.895577736E0,1.741944798E1
1.319901450E1,3.161678089E0,-1.344624308E1,-2.066116574E-1,1.381449781E1
1.320905350E1,2.267173816E0,-1.040860402E1,-2.607606751E0,1.096716590E1
1.321909350E1,3.969027127E-1,-7.429122545E0,-3.544620135E0,8.240978428E0
1.322913250E1,-1.251918107E0,-4.262292767E0,-2.715153419E0,5.206389984E0
1.323917150E1,-2.021588419E0,-1.593118343E0,-1.983858529E0,3.249698518E0
1.324921050E1,-2.034344413E0,5.379824317E-1,-1.558313085E0,2.618457935E0
1.325924950E1,-1.717157522E0,2.564637902E0,-6.760305154E-1,3.159590920E0
1.326928950E1,-1.313376875E0,4.321396422E0,1.997167669E-1,4.520985804E0
1.327932850E1,-1.137615420E0,5.501851029E0,7.830211133E-1,5.672535205E0
1.328936750E1,-1.412115152E0,6.533860034E0,1.120345230E0,6.777947298E0
1.329940650E1,-1.771404042E0,7.560707701E0,1.101386803E0,7.843164292E0
1.330944550E1,-2.019940381E0,8.621378587E0,7.692848343E-1,8.888201564E0
1.331948550E1,-1.925915107E0,9.415121740E0,2.452355866E-1,9.613210019E0
1.332952450E1,-1.448991348E0,1.006860130E1,-5.244708319E-1,1.018584202E1
1.333956350E1,-1.142998805E0,1.050449836E1,-1.285962936E0,1.064446489E1
1.334960250E1,-1.355903382E0,1.083822235E1,-1.963847165E0,1.109784814E1
1.335964150E1,-1.599096683E0,1.108664130E1,-2.670808135E0,1.151537849E1
1.336968150E1,-1.727498030E0,1.131332733E1,-2.989549801E0,1.182848396E1
1.337972050E1,-2.000574549E0,1.161341228E1,-2.954976969E0,1.214930172E1
1.338975950E1,-2.159180859E0,1.172191088E1,-2.923427732E0,1.227239530E1
1.339979850E1,-1.816341356E0,1.128819015E1,-2.888128091E0,1.179252376E1
1.340983750E1,-1.034659401E0,1.045823987E1,-2.662527308E0,1.084132616E1
1.341987750E1,-5.001453915E-1,9.505883390E0,-2.201294406E0,9.770243677E0
1.342991650E1,-2.402875265E-1,8.716627391E0,-1.377588951E0,8.828084871E0
1.343995550E1,-6.321440922E-1,8.153061637E0,-1.332028616E0,8.285307504E0
1.344999450E1,-1.340940065E0,7.842218390E0,-1.411112793E0,8.080207228E0
1.346003350E1,-1.897371632E0,7.788678360E0,-1.360941197E0,8.131155554E0
1.347007350E1,-2.578811260E0,7.659590549E0,-1.398445531E0,8.202148792E0
1.348011250E1,-3.541348911E0,7.576726733E0,-1.283918895E0,8.461464874E0
1.349015150E1,-4.047304973E0,7.089975266E0,-5.933668198E-1,8.185383986E0
1.350019050E1,-3.862073075E0,5.980283663E0,1.575244282E-1,7.120689227E0
1.351022996E1,-3.252318117E0,4.093772503E0,5.795283607E-1,5.260456213E0
1.352026896E1,-2.508091233E0,2.032568175E0,1.488236251E-1,3.231718350E0
1.353030796E1,-7.594882630E-1,-9.341862559E-1,1.119302379E0,1.643886918E0
1.354034696E1,8.432209758E-1,-7.346173359E0,5.231070566E0,9.057669893E0
1.355038596E1,1.426286610E0,-2.033165526E1,1.200894836E1,2.365640167E1
1.356042596E1,1.675488509E0,-3.764874107E1,1.648783602E1,4.113494503E1
1.357046496E1,7.749430094E0,-4.587918125E1,1.146031581E1,4.791963875E1
1.358050396E1,1.267688633E1,-3.253816934E1,4.571432719E0,3.521837458E1
1.359054296E1,8.198655301E0,-1.521666304E1,4.010587090E0,1.774400156E1
1.360058196E1,6.734603718E0,-7.204394751E0,5.938268495E0,1.151178629E1
1.361062196E1,3.632067000E0,-3.278506919E0,2.883210583E0,5.679209591E0
1.362066096E1,-7.293151684E-2,-5.587727916E-1,5.024980187E-1,7.550167532E-1
1.363069996E1,-1.259587023E0,1.826311151E0,-9.374738529E-1,2.408491045E0
1.364073896E1,-2.109400734E0,2.253963055E0,-2.921881728E0,4.250566285E0
1.365077796E1,-3.292834352E0,2.079913080E-1,-3.146991929E0,4.559558822E0
1.366081696E1,-3.835324987E0,-3.185054380E0,-2.063314881E0,5.395512715E0
1.367085696E1,-2.885899717E0,-4.825856182E0,-1.123781346E0,5.734125006E0
1.368089596E1,-1.121852423E0,-4.732631099E0,-1.398588203E0,5.060869386E0
1.369093496E1,2.043096086E0,-4.327175810E0,-1.977939685E0,5.177927917E0
1.370097396E1,4.797385504E0,-4.764594319E0,-2.681513802E0,7.273704900E0
1.371101296E1,4.755682870E0,-3.628380915E0,1.145820379E-2,5.981788939E0
1.372105296E1,4.458827625E0,-1.342834125E0,3.099801098E0,5.594024859E0
1.373109196E1,3.609249702E0,1.810872747E0,2.669136709E0,4.840478725E0
1.374113096E1,2.839538898E0,5.189346004E0,6.964194641E-1,5.956281825E0
1.375116996E1,4.237600852E0,7.483026856E0,-7.059931102E-1,8.628521205E0
1.376120896E1,5.316633457E0,8.603280870E0,-1.646415714E0,1.024664422E1
1.377124896E1,4.631197110E0,1.008479107E1,-1.942412588E0,1.126605362E1
1.378128796E1,3.449326308E0,1.167632482E1,-1.589250410E0,1.227844168E1
1.379132696E1,1.519235704E0,1.189580590E1,-6.668702674E-1,1.201095297E1
1.380136596E1,-1.593272125E0,1.149366599E1,2.467396367E-1,1.160619465E1
1.381140496E1,-4.265363724E0,1.057644601E1,-6.174346903E-1,1.142084776E1
1.382144496E1,-7.099234332E0,9.208459504E0,-1.852045916E0,1.177390881E1
1.383148396E1,-9.196748115E0,7.698918337E0,-2.724755132E0,1.229950446E1
1.384152296E1,-1.014592137E1,6.388105904E0,-3.075169410E0,1.237757183E1
1.385156196E1,-1.009843262E1,5.167526534E0,-3.041465474E0,1.174445334E1
1.386160096E1,-8.723908929E0,4.815346981E0,-2.826698998E0,1.035781737E1
1.387164096E1,-7.029047863E0,5.238177271E0,-1.948015097E0,8.980021036E0
1.388167996E1,-5.665479512E0,5.585021240E0,-1.395611239E0,8.076995177E0
1.389171896E1,-4.990250065E0,5.341326249E0,-1.427804254E0,7.447884720E0
1.390175796E1,-4.135350884E0,4.842719552E0,-1.267062688E0,6.492958297E0
1.391179696E1,-3.251282283E0,3.962145832E0,-4.241406512E-1,5.142891343E0
1.392183696E1,-2.144879446E0,2.733853399E0,1.361794306E0,3.732150316E0
1.393187596E1,-1.353873668E0,1.230058876E0,3.101361428E0,3.600619593E0
1.394191496E1,-5.469728181E-1,-9.445007443E-1,4.330653734E0,4.466074639E0
1.395195396E1,7.027420583E-1,-3.635862427E0,4.614715271E0,5.916835220E0
1.396199296E1,3.339455079E0,-6.221184270E0,3.927308998E0,8.079532778E0
1.397203296E1,7.763209058E0,-7.963936955E0,2.409474725E0,1.137968695E1
1.398207196E1,1.271525108E1,-9.216607014E0,-1.532420737E-1,1.570499723E1
1.399211096E1,1.667512585E1,-1.204499527E1,-1.342914231E0,2.061419782E1
1.400214996E1,1.616055333E1,-1.372542892E1,1.718501358E0,2.127214446E1
1.401218996E1,9.747564601E0,-1.270810578E1,7.172966552E0,1.754885801E1
1.402222896E1,4.998881140E0,-1.336891015E1,1.117739594E1,1.812872723E1
1.403226796E1,9.379556635E-1,-1.482952240E1,1.096846323E1,1.846893827E1
1.404230696E1,-1.993811075E0,-1.472067414E1,8.027788550E0,1.688546472E1
1.405234596E1,-2.691438574E0,-1.175506693E1,6.482616205E0,1.369122905E1
1.406238496E1,-2.228087372E0,-7.304082177E0,5.030067265E0,9.144154771E0
1.407242496E1,-1.812151241E0,-3.293443632E0,2.483561579E0,4.505412433E0
1.408246396E1,-1.482413594E0,-9.251680952E-1,3.519333851E-1,1.782510358E0
1.409250296E1,-6.926906946E-1,7.746765518E-1,-1.275675929E0,1.645385437E0
1.410254196E1,-2.130131891E-1,2.356164783E0,-2.561164071E0,3.486609887E0
1.411258196E1,-2.131254557E-1,3.231519279E0,-3.783156713E0,4.980001408E0
1.412262096E1,-6.628017747E-1,3.606062678E0,-4.710625688E0,5.969337367E0
1.413265996E1,-1.146593674E0,4.095300965E0,-5.120314361E0,6.656108939E0
1.414269896E1,-1.499888583E0,5.133049597E0,-5.107477384E0,7.394875871E0
1.415273796E1,-1.706941705E0,6.331804819E0,-4.866589056E0,8.166338916E0
1.416277796E1,-1.988131382E0,7.415426611E0,-4.627901620E0,8.964300956E0
1.417281696E1,-2.329982998E0,8.223856215E0,-4.385015590E0,9.606716065E0
1.418285596E1,-2.758430416E0,8.749112767E0,-3.700758335E0,9.891992965E0
1.419289496E1,-3.125043528E0,9.094482653E0,-3.235306520E0,1.014606919E1
1.420293396E1,-3.393549425E0,9.321044133E0,-2.955562567E0,1.035052615E1
1.421297296E1,-3.541050118E0,9.398122129E0,-2.661400550E0,1.038974438E1
1.422301296E1,-3.573144608E0,9.327136347E0,-2.723802913E0,1.035287096E1
1.423305196E1,-2.963228559E0,9.114368448E0,-3.053428585E0,1.005862127E1
1.424309096E1,-1.779968166E0,8.754640725E0,-3.424716839E0,9.567690752E0
1.425312996E1,-7.328406009E-1,8.405949621E0,-3.396842285E0,9.095910173E0
1.426316896E1,-1.641927391E-2,8.369044334E0,-3.078043901E0,8.917147914E0
1.427320896E1,4.740352347E-1,8.633256621E0,-2.916762199E0,9.124983891E0
1.428324796E1,5.425610939E-1,8.886826975E0,-2.959645678E0,9.382407407E0
1.429328696E1,2.199117342E-1,8.941043528E0,-3.025423638E0,9.441599903E0
1.430332596E1,-3.873413457E-1,8.889817241E0,-2.724282384E0,9.305944251E0
1.431336496E1,-1.430073559E0,8.472441818E0,-1.357664418E0,8.698886907E0
1.432340496E1,-2.680544919E0,7.403814626E0,1.216657058E0,7.967562141E0
1.433344396E1,-3.480832860E0,5.480510446E0,6.190050770E0,8.970447073E0
1.434348296E1,-3.645874030E0,2.345556180E0,7.346688498E0,8.530408145E0
1.435352196E1,-3.216280558E0,-1.571025224E0,1.110722760E0,3.747837500E0
1.436356096E1,-1.465215033E0,-7.031479720E0,-5.152235481E0,8.839349105E0
1.437360096E1,9.657248215E-1,-1.828890592E1,9.584276426E-1,1.833944622E1
1.438363996E1,2.678253980E0,-3.155556346E1,9.845270405E0,3.316407664E1
1.439367896E1,3.785593540E0,-3.733683889E1,5.008252473E0,3.786096737E1
1.440371796E1,6.472349664E0,-2.886523615E1,2.341695848E0,2.967451276E1
1.441375696E1,6.685397644E0,-1.038594373E1,1.172214243E1,1.702853464E1
1.442379696E1,5.842851291E0,-1.281262359E0,4.938918529E0,7.757155450E0
1.443383596E1,4.203962697E0,-6.877968675E-1,-6.798080506E0,8.022484993E0
1.444387496E1,3.232435245E0,-1.019079056E0,-8.344315875E0,9.006373696E0
1.445391396E1,2.743563870E0,-2.638770071E0,-6.852643214E0,7.838939292E0
1.446395296E1,3.299199046E0,-5.971733864E0,-4.440811769E0,8.140462447E0
1.447399296E1,3.519312801E0,-8.744287645E0,-1.848306330E0,9.605434154E0
1.448403196E1,3.309173226E0,-8.782434295E0,-8.299877036E-1,9.421818252E0
1.449407096E1,2.662861769E0,-7.734694526E0,-1.051528764E0,8.247547815E0
1.450410996E1,1.952929536E0,-6.734582668E0,-3.355182043E-1,7.020050566E0
1.451414921E1,1.687729655E0,-5.206655517E0,8.172337568E-1,5.534036869E0
1.452418921E1,1.915420232E0,-3.041554352E0,2.229777217E0,4.229869263E0
1.453422821E1,2.681005095E0,-6.666498274E-1,2.913502668E0,4.015060162E0
1.454426721E1,3.157456107E0,1.471662903E0,2.610891132E0,4.353397899E0
1.455430621E1,2.937662486E0,2.878408265E0,2.160116413E0,4.645556795E0
1.456434521E1,2.058742066E0,3.965455356E0,2.292077692E0,5.021640690E0
1.457438521E1,1.476801290E0,4.930465794E0,2.118533793E0,5.565844089E0
1.458442421E1,5.171597658E-1,5.932799009E0,1.401901966E0,6.118078737E0
1.459446321E1,-8.160502803E-1,6.927701583E0,4.316331272E-1,6.988940867E0
1.460450221E1,-2.117386569E0,7.817126818E0,-5.893299021E-1,8.120228279E0
1.461454121E1,-3.174356899E0,8.475838466E0,-1.743028089E0,9.217077972E0
1.462458121E1,-3.692441255E0,8.943399956E0,-3.134682956E0,1.017077983E1
1.463462021E1,-3.737297586E0,9.471521058E0,-4.287572034E0,1.104809388E1
1.464465921E1,-3.680829562E0,1.012573327E1,-4.962282248E0,1.186183905E1
1.465469821E1,-3.540633504E0,1.078623124E1,-4.829457774E0,1.233703905E1
1.466473721E1,-3.159280438E0,1.086473947E1,-3.901181592E0,1.196840986E1
1.467477721E1,-3.147219971E0,1.052322232E1,-2.761336190E0,1.132555425E1
1.468481621E1,-3.161905545E0,1.028862968E1,-2.084321880E0,1.096348235E1
1.469485521E1,-3.344012984E0,1.032672546E1,-2.338096887E0,1.110362007E1
1.470489421E1,-3.723656616E0,1.030937093E1,-2.970690191E0,1.135666094E1
1.471493321E1,-4.281398544E0,1.017408273E1,-2.932339473E0,1.142107472E1
1.472497321E1,-4.598090760E0,1.062020540E1,-1.798704984E0,1.171181203E1
1.473501221E1,-3.908878282E0,1.065696217E1,-4.722141194E-1,1.136103685E1
1.474505121E1,-4.027376785E0,8.960255724E0,-2.402959758E0,1.011336551E1
1.475509021E1,-4.178451880E0,6.752254123E0,-3.705841904E0,8.762742726E0
1.476512921E1,-3.181152240E0,3.856726381E0,-2.663587993E-1,5.006497275E0
1.477516921E1,-3.087955224E0,-1.519188488E0,2.352984921E0,4.168925421E0
1.478520821E1,-1.803654213E0,-1.063395805E1,3.346092254E0,1.129294319E1
1.479524721E1,4.896988145E0,-2.383374684E1,1.001346439E1,2.631154596E1
1.480528621E1,1.685947570E1,-3.459428659E1,8.628624457E0,3.943931726E1
1.481532521E1,1.933786717E1,-3.671773102E1,4.510159162E-1,4.150118424E1
1.482536521E1,7.854249621E0,-2.741496295E1,3.629567315E0,2.874792496E1
1.483540421E1,6.992672043E-1,-1.743512823E1,4.777051227E0,1.809123792E1
1.484544321E1,1.252350217E0,-1.499306668E1,1.632045597E-1,1.504616447E1
1.485548221E1,2.844417815E0,-1.266807457E1,-2.326975629E0,1.319036170E1
1.486552121E1,3.261221965E0,-1.081795473E1,-1.755007864E0,1.143432402E1
1.487556121E1,3.150498212E0,-8.724984232E0,-1.206847769E-1,9.277152238E0
1.488560021E1,2.840370080E0,-6.619175588E0,9.845506632E-1,7.269836839E0
1.489563921E1,2.527557199E0,-4.422298899E0,1.597865552E0,5.338393698E0
1.490567821E1,1.978278093E0,-2.265891960E0,2.141385881E0,3.692341273E0
1.491571721E1,1.561457132E0,-4.168515122E-1,2.338578259E0,2.842685672E0
1.492575721E1,1.209198642E0,1.172532799E0,2.250623710E0,2.811103272E0
1.493579621E1,3.607949866E-1,2.906930398E0,2.133438492E0,3.623806998E0
1.494583521E1,-3.520560305E-1,4.586496316E0,2.196391370E0,5.097452987E0
1.495587421E1,-5.664469698E-1,5.873288972E0,2.458462406E0,6.392215806E0
1.496591321E1,-1.006858522E0,7.179822997E0,2.222081112E0,7.582958975E0
1.497595321E1,-1.711102876E0,8.568814457E0,1.778700197E0,8.917187261E0
1.498599221E1,-2.213268481E0,9.336197777E0,6.911642790E-1,9.619815713E0
1.499603121E1,-2.599987829E0,9.666637382E0,-5.371299076E-1,1.002458595E1
1.500607021E1,-2.859877269E0,9.934338702E0,-1.407725354E0,1.043320057E1
1.501610921E1,-3.359959218E0,1.047176448E1,-2.229313533E0,1.122127515E1
1.502614921E1,-3.929371895E0,1.094128186E1,-2.812216029E0,1.196077637E1
1.503618821E1,-4.107122866E0,1.082593618E1,-2.452471349E0,1.183570733E1
1.504622721E1,-4.744619061E0,1.042493881E1,-1.396892364E0,1.153872035E1
1.505626621E1,-4.920586338E0,1.024607716E1,-1.680177537E0,1.148987657E1
1.506630521E1,-4.629012298E0,1.011889437E1,-3.068354773E0,1.154272841E1
1.507634521E1,-4.036474468E0,9.758856744E0,-3.665740530E0,1.117882215E1
1.508638421E1,-3.069847859E0,9.348440677E0,-3.664222300E0,1.049970638E1
1.509642321E1,-2.222097630E0,8.926165287E0,-3.646820694E0,9.895122323E0
1.510646221E1,-1.623609380E0,8.522587540E0,-3.877656489E0,9.502990352E0
1.511650121E1,-1.438107341E0,8.343180345E0,-4.108119816E0,9.410284768E0
1.512654121E1,-1.292545293E0,8.462840690E0,-4.130050383E0,9.505138718E0
1.513658021E1,-7.273819327E-1,8.814716188E0,-3.784446024E0,9.620308605E0
1.514661921E1,-2.991605097E-1,8.440447024E0,-2.684438580E0,8.862102090E0
1.515665821E1,-1.190782544E0,7.460010461E0,-4.885911472E-1,7.570233844E0
1.516669721E1,-1.209907325E0,6.728909115E0,2.554590339E0,7.298494736E0
1.517673721E1,4.198332998E-1,5.303561422E0,4.905995196E0,7.236906288E0
1.518677621E1,1.718710396E0,2.347998562E0,3.817393330E0,4.799953595E0
1.519681521E1,2.775194676E0,-3.825543764E0,2.857436641E0,5.522810402E0
1.520685421E1,3.769602283E0,-1.584037033E1,7.864464122E0,1.808250617E1
1.521689321E1,3.264639663E0,-3.366154577E1,1.130247958E1,3.565814886E1
1.522693321E1,3.375121925E0,-4.492977118E1,5.571366822E0,4.539951448E1
1.523697221E1,1.307368861E0,-3.692546622E1,6.090732304E0,3.744724675E1
1.524701121E1,-3.144312443E-1,-1.936815107E1,5.404448111E0,2.011049980E1
1.525705021E1,3.206531788E0,-1.514208765E1,4.751383705E0,1.619074771E1
1.526708921E1,6.051399254E0,-1.408320601E1,5.300069464E0,1.621871946E1
1.527712921E1,6.626400992E0,-1.180895721E1,4.064143784E0,1.413781897E1
1.528716821E1,6.137514707E0,-8.230316804E0,2.053429578E0,1.047013727E1
1.529720721E1,4.991476811E0,-4.144425178E0,-2.834525496E-1,6.493954586E0
1.530724621E1,3.085989098E0,-1.615641818E0,-1.948296933E0,3.991176285E0
1.531728521E1,1.525022693E0,-1.693078834E-1,-3.009566574E0,3.378143031E0
1.532732521E1,3.297920260E-1,1.059701418E0,-3.426872123E0,3.602108052E0
1.533736421E1,-7.048540726E-2,2.430419160E0,-2.832283089E0,3.732791580E0
1.534740321E1,-1.887397890E-1,3.559836345E0,-1.627714564E0,3.918866190E0
1.535744221E1,-3.505000864E-1,4.513172817E0,-8.717970496E-1,4.609946776E0
1.536748121E1,-3.124885069E-1,5.826463884E0,-7.760792989E-1,5.886223708E0
1.537752121E1,-4.156202348E-1,7.338307684E0,-1.202926772E0,7.447854232E0
1.538756021E1,-3.161231361E-1,8.506799473E0,-1.882140073E0,8.718257989E0
1.539759921E1,-1.315152821E-1,9.236738393E0,-1.741481354E0,9.400393062E0
1.540763821E1,-2.423542249E-1,9.569322757E0,-1.457328600E0,9.682689721E0
1.541767721E1,-8.130108976E-1,9.837267905E0,-1.908063996E0,1.005353345E1
1.542771721E1,-1.834018804E0,1.048962655E1,-3.051095839E0,1.107723233E1
1.543775621E1,-2.873122966E0,1.100955629E1,-3.835275870E0,1.200726889E1
1.544779521E1,-3.585879551E0,1.127492399E1,-4.197619053E0,1.255398139E1
1.545783421E1,-4.317831375E0,1.118118260E1,-4.613777670E0,1.284326502E1
1.546787321E1,-5.218787320E0,1.043139764E1,-4.452329029E0,1.248491216E1
1.547791321E1,-5.600529810E0,9.204177003E0,-3.686212217E0,1.138731614E1
1.548795221E1,-4.748446940E0,8.609496460E0,-2.721004727E0,1.020171772E1
1.549799121E1,-4.083065667E0,7.706266533E0,-1.923466878E0,8.930716318E0
1.550803021E1,-3.617614729E0,6.960015635E0,-3.043728639E-1,7.849942472E0
1.551806971E1,-2.557357826E0,6.814171459E0,2.284680379E0,7.628418982E0
1.552810971E1,-1.894729713E0,6.854658165E0,3.461678551E0,7.909460009E0
1.553814871E1,-1.743527733E0,7.047972962E0,3.614432382E0,8.110359626E0
1.554818771E1,-1.447335855E0,7.424808469E0,4.360804902E0,8.731505097E0
1.555822671E1,-1.200859051E0,7.116870704E0,7.357649104E0,1.030664404E1
1.556826571E1,-1.681265850E0,5.579171686E0,8.247928033E0,1.009862012E1
1.557830571E1,-1.234341816E0,4.458473284E0,2.241411422E0,5.140574764E0
1.558834471E1,1.484700440E0,4.187564766E0,-2.935299919E0,5.325037059E0
1.559838371E1,5.816706051E0,8.653288597E-1,1.033448296E0,5.970835678E0
1.560842271E1,6.238511324E0,-8.558469563E0,8.572319863E0,1.362538413E1
1.561846171E1,-1.540429814E0,-1.889802323E1,1.684632531E0,1.903539316E1
1.562850171E1,-4.071853046E0,-2.748807887E1,-6.708979465E0,2.858644561E1
1.563854071E1,-2.436625394E-1,-3.011648651E1,-4.828424571E0,3.050206247E1
1.564857971E1,-2.461116457E-1,-2.049789160E1,1.342153158E1,2.450227828E1
1.565861871E1,1.716936643E0,-1.102409130E1,3.627814320E0,1.173198607E1
1.566865771E1,2.669214477E0,-8.756843371E0,-1.063822769E1,1.403491718E1
1.567869771E1,1.220197401E0,-8.990510972E0,-9.660980201E0,1.325340363E1
1.568873671E1,-2.713868201E-2,-1.111288361E1,-2.610314596E0,1.141536950E1
1.569877571E1,1.318630452E0,-1.194784028E1,-2.959322619E-1,1.202402800E1
1.570881471E1,3.161398299E0,-1.080457630E1,-1.984313735E0,1.143113333E1
1.571885371E1,4.168940799E0,-8.390304226E0,-1.650900675E0,9.513293090E0
1.572889371E1,4.875464837E0,-6.660803670E0,7.180439293E-2,8.254793685E0
1.573893271E1,5.005780855E0,-5.215361436E0,1.312867144E0,7.347207430E0
1.574897171E1,4.075245016E0,-3.580576419E0,1.936778795E0,5.760144228E0
1.575901071E1,2.726638227E0,-1.868208790E0,2.791804569E0,4.326538207E0
1.576904971E1,1.671374115E0,2.505765796E-1,4.265440323E0,4.588056364E0
1.577908971E1,1.002410837E0,2.117959743E0,5.665963077E0,6.131371669E0
1.578912871E1,2.401033393E-1,3.335716662E0,5.658721300E0,6.573110528E0
1.579916771E1,-7.941102116E-1,4.543285977E0,4.362818683E0,6.348719978E0
1.580920671E1,-1.368927032E0,5.765810131E0,2.812214860E0,6.559503038E0
1.581924571E1,-1.950727767E0,7.056163157E0,1.524446304E0,7.477881642E0
1.582928571E1,-2.653461201E0,8.109567708E0,4.011277646E-1,8.542063465E0
1.583932471E1,-3.576214980E0,8.636250980E0,-6.050787196E-1,9.366977358E0
1.584936371E1,-3.924406732E0,9.232113830E0,-1.222970808E0,1.010586719E1
1.585940271E1,-3.914049852E0,9.325855222E0,-1.739425035E0,1.026240524E1
1.586944171E1,-4.474815374E0,9.504011112E0,-2.079514884E0,1.070862185E1
1.587948171E1,-4.862328774E0,9.777138648E0,-2.027412685E0,1.110608317E1
1.588952071E1,-5.067373670E0,9.824206395E0,-1.171893114E0,1.111605329E1
1.589955971E1,-5.211626235E0,9.875432682E0,3.390180552E-1,1.117139883E1
1.590959871E1,-5.200577336E0,1.006998358E1,1.295495067E0,1.140740467E1
1.591963771E1,-4.935670400E0,1.021810291E1,1.001898621E0,1.139185104E1
1.592967771E1,-4.336379912E0,9.796216359E0,6.465485618E-2,1.071327335E1
1.593971671E1,-3.038314410E0,9.425513996E0,-7.927095111E-1,9.934790230E0
1.594975571E1,-1.627942313E0,9.571276896E0,-1.321711058E0,9.798288510E0
1.595979471E1,-1.140572649E0,9.438332262E0,-1.241950505E0,9.587776745E0
1.596983371E1,-1.246040632E0,9.072312934E0,-8.353057462E-1,9.195499711E0
1.597987371E1,-1.186967090E0,8.436349295E0,-3.568497241E-1,8.526911634E0
1.598991271E1,-1.709121109E0,7.518520040E0,1.443355948E-1,7.711684078E0
1.599995171E1,-2.002823389E0,6.166734998E0,4.276595056E-1,6.497908487E0
1.600999071E1,-1.235558183E0,3.819689532E0,1.409385379E0,4.254761954E0
1.602002971E1,-1.066725678E0,3.148497587E-1,2.439540524E0,2.681117679E0
1.603006971E1,-1.272716215E0,-5.595657325E0,3.089134315E0,6.517203256E0
1.604010871E1,-1.134763879E0,-1.461026701E1,3.871988491E0,1.515717276E1
1.605014771E1,1.106743437E0,-2.779789944E1,8.179761193E0,2.899752726E1
1.606018671E1,7.706244898E0,-4.125786477E1,1.588080148E1,4.487535483E1
1.607022571E1,1.124715205E1,-3.918733764E1,1.499528277E1,4.343966351E1
1.608026571E1,8.230858841E0,-2.597982000E1,7.764979595E0,2.833713099E1
1.609030471E1,5.600816908E0,-1.813269755E1,3.513399512E0,1.930046234E1
1.610034371E1,4.250936012E0,-1.129401398E1,1.105569024E0,1.211806468E1
1.611038271E1,3.363282483E0,-5.999965975E0,8.398043016E-1,6.929396224E0
1.612042171E1,2.550431214E0,-2.591801727E0,4.760636339E-1,3.667256761E0
1.613046171E1,1.518703169E0,-1.557095987E-1,-1.525776253E0,2.158401716E0
1.614050071E1,1.185763294E0,1.225916124E0,-2.799776663E0,3.278361526E0
1.615053971E1,1.443331974E0,1.079931614E0,-2.439478251E0,3.033234843E0
1.616057871E1,6.656780932E-1,-1.041067511E-1,-1.812291282E0,1.933485255E0
1.617061771E1,9.258376014E-1,-5.813477218E-2,-1.572675893E0,1.825887286E0
1.618065771E1,2.863475791E-1,5.827118772E-1,-2.922804126E0,2.994049437E0
1.619069671E1,-9.784954329E-1,9.639117461E-1,-3.242749149E0,3.521647513E0
1.620073571E1,-8.415730843E-1,2.327160255E0,-2.584295364E0,3.578058501E0
1.621077471E1,-5.169391065E-1,4.203727055E0,-2.593507360E0,4.966369661E0
1.622081371E1,-8.874473416E-1,5.848842348E0,-3.531538745E0,6.889723180E0
1.623085371E1,-1.336557139E0,7.052561857E0,-4.311234546E0,8.373276362E0
1.624089271E1,-1.865779272E0,7.527457509E0,-4.525535000E0,8.979098834E0
1.625093171E1,-2.542516131E0,7.787054588E0,-4.345328491E0,9.272782060E0
1.626097071E1,-2.975322940E0,8.377668393E0,-4.001819482E0,9.749483754E0
1.627101071E1,-2.926065996E0,8.991743565E0,-3.405242980E0,1.005032309E1
1.628104971E1,-2.668080702E0,9.669667409E0,-2.853019654E0,1.042884670E1
1.629108871E1,-2.311735154E0,1.018948196E1,-2.833199640E0,1.082574165E1
1.630112771E1,-2.019057452E0,1.038198633E1,-2.675238863E0,1.090958918E1
1.631116671E1,-1.643319613E0,1.026345859E1,-2.563322863E0,1.070559226E1
1.632120671E1,-1.351942917E0,9.769171817E0,-2.416863267E0,1.015409748E1
1.633124571E1,-1.400428760E0,9.076803011E0,-2.132837398E0,9.428602706E0
1.634128471E1,-1.557630276E0,8.205400649E0,-1.936096718E0,8.573405530E0
1.635132371E1,-1.787707248E0,7.701951288E0,-1.893457652E0,8.130260311E0
1.636136271E1,-1.821658521E0,7.088091878E0,-2.144522035E0,7.626169484E0
1.637140271E1,-1.545782794E0,6.225704167E0,-1.883543698E0,6.685549617E0
1.638144171E1,-3.652464719E-1,5.986977555E0,3.283939567E0,6.838242780E0
1.639148071E1,1.857827789E0,7.447807322E0,6.278470026E0,9.916680083E0
1.640151971E1,2.603576850E0,7.899257394E0,1.702251946E0,8.489672637E0
1.641155871E1,4.145418328E0,5.701394865E0,-1.671691327E0,7.244649640E0
1.642159871E1,6.940854310E0,1.632320416E0,-1.024090266E0,7.203380412E0
1.643163771E1,8.662740036E0,-5.036021485E0,-5.138417633E-1,1.003337484E1
1.644167671E1,7.755380806E0,-1.385711991E1,-1.263196509E0,1.592988917E1
1.645171571E1,6.899075369E0,-2.015222526E1,-2.282134648E0,2.142236127E1
1.646175471E1,6.947148253E0,-2.422489283E1,1.600580268E-1,2.520186342E1
1.647179471E1,5.162841453E-1,-2.168955181E1,1.090639153E1,2.428276309E1
1.648183371E1,-4.076514739E0,-1.152897966E1,8.376102508E0,1.482209289E1
1.649187271E1,-4.053144295E0,-6.979320218E0,-1.763850755E0,8.261359383E0
1.650191171E1,-4.199234639E0,-5.767971847E0,-5.547443524E0,9.037543938E0
1.651195071E1,-4.947685844E0,-5.145090183E0,-6.311558250E0,9.528237809E0
1.652199071E1,-5.660206493E0,-6.630534389E0,-3.349272262E0,9.339140673E0
1.653202971E1,-4.532542011E0,-8.929336233E0,-8.330975452E-1,1.004843441E1
1.654206871E1,-1.572143504E0,-9.924226527E0,-1.085664809E0,1.010646206E1
1.655210771E1,7.175730823E-1,-9.954253149E0,-1.107141486E0,1.004130615E1
1.656214671E1,1.888386215E0,-8.625051808E0,1.184687260E0,8.908479393E0
1.657218671E1,1.909611170E0,-6.149669899E0,3.135230840E0,7.162033727E0
1.658222571E1,2.071657104E0,-4.328830572E0,4.197906736E0,6.375967240E0
1.659226471E1,2.517928004E0,-2.797455318E0,4.264677261E0,5.687986448E0
1.660230371E1,2.860278972E0,-9.613149977E-1,3.392907109E0,4.540610198E0
1.661234271E1,2.909892012E0,1.115777385E0,2.260958664E0,3.850242171E0
1.662238271E1,2.465119753E0,3.242929536E0,1.600446513E0,4.376623860E0
1.663242171E1,1.972953618E0,5.051987307E0,1.202719050E0,5.555326709E0
1.664246071E1,1.102972129E0,6.130293980E0,1.698453887E-1,6.231043192E0
1.665249971E1,-1.382910356E-1,7.203096669E0,-7.330344361E-1,7.241620366E0
1.666253871E1,-1.691713217E0,8.110247154E0,-8.366916094E-1,8.326947542E0
1.667257871E1,-3.291114101E0,8.639057643E0,-9.186800247E-1,9.290248758E0
1.668261771E1,-4.328756897E0,8.598794886E0,-1.496208345E0,9.742486807E0
1.669265671E1,-4.286224836E0,8.891664961E0,-1.268846381E0,9.952055077E0
1.670269571E1,-4.626279602E0,9.486048465E0,-9.586178233E-1,1.059747737E1
