"Time (s)","Linear Acceleration x (m/s^2)","Linear Acceleration y (m/s^2)","Linear Acceleration z (m/s^2)","Absolute acceleration (m/s^2)"
-1.901958254E-3,1.095708338E1,-3.093569545E1,3.412222216E0,3.299572987E1
8.136041695E-3,3.456678012E-1,-2.667305887E1,9.311258233E-1,2.669154456E1
1.817404164E-2,-9.795877220E0,-1.028762396E1,-6.164298463E-1,1.421880456E1
2.821204171E-2,-1.008073661E1,-4.338975492E0,-2.251034331E0,1.120335282E1
3.825004166E-2,-4.254571518E0,-3.087979490E0,-3.013561392E0,6.059583187E0
4.828804173E-2,2.079780640E0,1.648756354E0,-1.990572887E0,3.317569208E0
5.832604168E-2,1.538801803E0,4.845620940E0,-2.963244055E0,5.884621365E0
6.836504175E-2,2.546359506E0,6.973482358E0,-3.066143648E0,8.032100584E0
7.840304170E-2,3.501145795E0,8.922662221E0,-3.032125717E0,1.005314425E1
8.844104165E-2,2.864850910E0,1.080586970E1,-2.713625541E0,1.150382347E1
9.847904171E-2,2.732947958E0,8.795629706E0,-2.694914744E0,9.596596894E0
1.085170417E-1,3.095557482E0,4.652233053E0,-2.573888782E0,6.152288352E0
1.185550417E-1,2.144810888E0,3.553431889E0,-2.080979612E0,4.643012824E0
1.285930417E-1,7.956478831E-1,4.049496801E0,-1.798638910E0,4.501842048E0
1.386310417E-1,2.900608169E-2,4.745654018E0,-1.912291826E0,5.116535296E0
1.486690417E-1,-6.487254070E-1,5.048773093E0,-1.926781226E0,5.442741982E0
1.587070416E-1,-1.123013899E0,5.292726531E0,-1.451550236E0,5.601884722E0
1.687462917E-1,-9.010904306E-1,5.459860420E0,-9.384500456E-1,5.612729127E0
1.787842917E-1,-9.467924874E-1,5.428636288E0,-5.655713493E-1,5.539528763E0
1.888222917E-1,-1.094967291E0,5.461702877E0,1.883239058E-1,5.573564172E0
1.988602917E-1,-1.090484158E0,5.632488937E0,9.518846083E-1,5.815511296E0
2.088982917E-1,-1.311658817E0,4.729343795E0,1.253796525E0,5.065485891E0
2.189362916E-1,-1.700725530E0,2.839101527E0,1.168044184E0,3.509599981E0
2.289742917E-1,-2.094593099E0,9.298949844E-1,6.147633898E-1,2.372753455E0
2.390122917E-1,-2.374495220E0,-1.302974825E0,7.790508538E-1,2.818313534E0
2.490502917E-1,-2.900088863E0,-3.681738512E0,2.135661018E0,5.150413757E0
2.590882917E-1,-2.978064115E0,-5.628581827E0,2.083526367E0,6.700065774E0
2.691262917E-1,-4.015280650E0,-7.654799926E0,1.839747175E0,8.837596408E0
2.791652917E-1,-4.503908781E0,-7.892469361E0,2.995142370E0,9.568027213E0
2.892032916E-1,-3.703166803E0,-6.111125638E0,3.558957216E0,7.982823899E0
2.992412917E-1,-2.981843171E0,-3.772272121E0,4.190975447E0,6.378534381E0
3.092792917E-1,-2.524166106E0,-1.453952272E0,4.280090814E0,5.177312924E0
3.193172917E-1,-2.297404944E0,1.069419490E0,3.791191372E0,4.560138106E0
3.293552917E-1,-1.674920890E0,3.411931610E0,2.921069258E0,4.793671130E0
3.393932917E-1,-1.011160391E0,5.328949447E0,2.327247671E0,5.902222401E0
3.494312917E-1,9.841430392E-1,5.159618175E0,2.654205844E0,5.885151306E0
3.594692916E-1,3.500912198E0,1.589725204E0,-8.980624500E-1,3.948433691E0
3.695072917E-1,5.291868160E0,-2.742478042E0,-4.170561647E0,7.274519839E0
3.795462917E-1,7.914612182E0,-5.762954936E0,-4.290022017E0,1.068910775E1
3.895842917E-1,1.212593009E1,-8.167401933E0,-2.643738450E0,1.485711910E1
3.996222917E-1,1.292644432E1,-1.144529314E1,2.262688855E0,1.741285326E1
4.096602917E-1,6.299308333E0,-1.076293360E1,1.801039485E0,1.260022890E1
4.196982917E-1,2.268250142E0,-4.194552773E0,-2.687496089E0,5.473743408E0
4.297362916E-1,2.257134439E0,3.147012395E-1,-2.250769891E0,3.203070065E0
4.397742917E-1,1.818077102E0,1.610522581E0,-1.900417300E0,3.083954158E0
4.498122917E-1,1.793774758E0,1.671141250E0,-5.236489180E0,5.781968514E0
4.598502917E-1,1.164285594E0,7.705700523E-1,-5.789082634E0,5.955066490E0
4.698882917E-1,-2.621233687E-1,1.678957808E-1,-4.923529826E0,4.933360275E0
4.799262917E-1,-1.013962012E0,-3.266237122E-1,-4.660497508E0,4.780694409E0
4.899652917E-1,-1.163225786E0,-7.599643725E-1,-5.327219256E0,5.505443223E0
5.000032916E-1,-1.217541888E0,-1.345965893E0,-5.929018784E0,6.200588374E0
5.100412917E-1,-1.298929283E0,-2.034553304E0,-6.311179935E0,6.757042001E0
5.200792917E-1,-1.271259235E0,-2.336826287E0,-5.841196529E0,6.418444829E0
5.301172917E-1,-5.738091990E-1,-1.549229727E0,-4.847040060E0,5.120856089E0
5.401552917E-1,5.226131715E-1,-7.356265068E-1,-3.347256142E0,3.466755625E0
5.501932917E-1,1.695207220E0,-5.154262125E-1,-9.226438522E-1,1.997664481E0
5.602312917E-1,2.830388591E0,-4.272262269E-1,1.715397802E0,3.337096259E0
5.702692916E-1,3.279673731E0,2.832800567E-1,2.369924890E0,4.056236107E0
5.803072917E-1,2.463038437E0,8.381854999E-1,1.129813042E0,2.836475063E0
5.903452917E-1,1.430716022E0,9.165118772E-1,7.515835583E-1,1.857907479E0
6.003842917E-1,6.612411529E-1,9.368350446E-1,6.319485028E-1,1.309297015E0
6.104222917E-1,-5.779712471E-1,8.868442744E-1,-8.306338209E-1,1.345546757E0
6.204602917E-1,-1.577490782E0,7.356808859E-1,-2.255065840E0,2.848688378E0
6.304982917E-1,-2.184743278E0,8.251684284E-1,-2.188070197E0,3.200258944E0
6.405362916E-1,-2.423964272E0,9.950072390E-1,-8.151755369E-1,2.744112489E0
6.505742917E-1,-2.433566423E0,1.137362967E0,4.598466736E-1,2.725307142E0
6.606122917E-1,-1.979502792E0,1.359599846E0,1.170569304E0,2.671549277E0
6.706502917E-1,-9.396490172E-1,1.489076496E0,1.621735786E0,2.393807855E0
6.806882917E-1,5.983588801E-1,2.741605638E0,2.333495311E-1,2.815827911E0
6.907262917E-1,2.047421564E0,3.265466459E0,-9.551046699E-1,3.970822482E0
7.007642917E-1,3.268689444E0,3.699287760E0,-1.404807594E0,5.132498903E0
7.108032916E-1,3.442519272E0,4.169911437E0,-1.132212739E0,5.524581976E0
7.208412917E-1,2.531674808E0,4.186611085E0,2.346920335E-1,4.898180281E0
7.308792917E-1,7.270267144E-1,2.779791464E0,2.131741630E0,3.577727044E0
7.409172917E-1,-1.653468479E0,1.368915630E0,4.853967841E0,5.307437405E0
7.509552917E-1,-3.520517328E0,-3.216354525E-1,7.678377653E0,8.453104460E0
7.609932917E-1,-4.666225148E0,-1.737832838E0,7.440961987E0,8.953303044E0
7.710312917E-1,-4.807653507E0,-2.716176682E0,3.997385831E0,6.816908500E0
7.810692916E-1,-3.448144001E0,-3.192721249E0,1.013369250E0,4.807294796E0
7.911072917E-1,-2.069657502E0,-3.492249548E0,8.715638188E-1,4.151976948E0
8.011452917E-1,-1.878270386E0,-3.608906763E0,1.607295649E0,4.374415043E0
8.111832917E-1,-2.847752190E0,-4.033830357E0,1.913507169E0,5.295563197E0
8.212222917E-1,-3.940263796E0,-4.653494883E0,2.923271027E0,6.762115564E0
8.312602917E-1,-3.928142518E0,-4.946687139E0,4.052783521E0,7.505003103E0
8.412982917E-1,-3.022297717E0,-5.024762086E0,3.251115053E0,6.704645151E0
8.513362916E-1,-1.393207887E0,-5.263565297E0,2.150935846E0,5.854286709E0
8.613742917E-1,-4.707738040E-1,-5.536619158E0,2.031280764E0,5.916238773E0
8.714122917E-1,5.849272411E-1,-4.757975271E0,1.860992010E0,5.142349640E0
8.814502917E-1,5.465551807E-1,-3.813483297E0,3.810678388E0,5.418731143E0
8.914882917E-1,-1.845881051E0,-3.912848541E0,5.464377394E0,6.969726025E0
9.015262917E-1,-3.235821660E0,-3.481134576E0,5.869792922E0,7.552702079E0
9.115642917E-1,-3.870578434E0,-2.821299094E0,3.805581955E0,6.117479874E0
9.216022916E-1,-3.622291040E0,-2.131416525E0,1.859614552E0,4.595878051E0
9.316402917E-1,-2.867326037E0,-1.464377857E0,2.095906384E0,3.841716372E0
9.416792917E-1,-1.945498310E0,-9.992564106E-1,1.246839216E0,2.517555377E0
9.517172917E-1,-6.573067077E-1,-1.042269114E0,3.077166673E-2,1.232608579E0
9.617552917E-1,8.469392203E-1,-1.225134351E0,-8.615158904E-1,1.720601596E0
9.717932917E-1,2.609656200E0,-9.476249117E-1,-2.696722995E0,3.870479733E0
9.818312917E-1,3.125619771E0,-2.257426361E0,-2.929080820E0,4.842002394E0
9.918692916E-1,3.610832836E0,-3.052857020E0,-2.631035374E0,5.411136377E0
1.001907292E0,4.609579954E0,-4.439900773E0,-1.459208919E0,6.564315417E0
1.011945292E0,5.761597213E0,-5.366445302E0,3.366014010E-1,7.880865316E0
1.021983292E0,6.427707342E0,-5.144368637E0,1.499000975E0,8.368210936E0
1.032021292E0,6.886084610E0,-4.241091932E0,1.622853043E0,8.248555876E0
1.042059292E0,6.706290915E0,-3.133031702E0,3.683453500E-1,7.411201237E0
1.052097292E0,5.418646320E0,-2.272280043E0,-1.826772058E0,6.153217100E0
1.062136292E0,3.829468415E0,-1.562464315E0,-3.735082076E0,5.572877281E0
1.072174292E0,2.742427171E0,-1.113019254E0,-3.989987934E0,4.967868996E0
1.082212292E0,2.147197867E0,-4.243558288E-1,-3.776475685E0,4.364894632E0
1.092250292E0,3.716667147E-1,1.738652033E-1,-4.265839395E0,4.285528089E0
1.102288292E0,-2.447154914E0,-1.579449892E-2,-3.389787327E0,4.180846177E0
1.112326292E0,-2.963439059E0,-5.842321533E-1,-1.822971806E0,3.527963219E0
1.122364292E0,-2.853061754E0,-6.533860034E-1,-2.048768178E0,3.572719649E0
1.132402292E0,-2.733411934E0,-1.197380542E0,-1.772307729E0,3.470783147E0
1.142440292E0,-1.594196716E0,-9.007717574E-1,-1.856307659E0,2.607437642E0
1.152478292E0,-4.758749150E-1,1.897134966E-1,-2.790985374E0,2.837612994E0
1.162516917E0,5.249007484E-1,1.908648133E0,-3.059441569E0,3.643986994E0
1.172555917E0,2.307606946E-1,3.065998052E0,-3.295448057E0,4.507058071E0
1.182593917E0,1.792845489E0,4.665936588E0,-2.869266143E0,5.763501313E0
1.192631917E0,2.720847437E0,6.312678577E0,-3.815895858E0,7.862186896E0
1.202669917E0,2.524193881E0,7.507554756E0,-5.000224831E0,9.366812773E0
1.212707917E0,2.489651746E0,8.336349043E0,-5.609892957E0,1.035200368E1
1.222745917E0,2.547402357E0,8.779239376E0,-5.486972204E0,1.066166810E1
1.232783917E0,2.411769611E0,8.652907358E0,-5.315765145E0,1.043775826E1
1.242821917E0,2.135619796E0,7.917697758E0,-5.150545051E0,9.683951880E0
1.252859917E0,2.110703348E0,7.403678970E0,-4.757636132E0,9.050117816E0
1.262897917E0,1.521783920E0,6.672154870E0,-4.298620640E0,8.081560265E0
1.272935917E0,9.459315580E-1,6.055730286E0,-3.602717485E0,7.109587125E0
1.282973917E0,6.818006209E-1,5.850335142E0,-2.586267337E0,6.432732864E0
1.293011917E0,2.571845911E-1,5.266005925E0,-1.061117029E0,5.378004431E0
1.303050917E0,-4.044490196E-1,4.346837658E0,6.055671814E-1,4.407412874E0
1.313088917E0,-8.261255445E-1,3.618407904E0,2.195109952E0,4.312060630E0
1.323126917E0,-7.536079375E-1,2.708581148E0,3.749587556E0,4.686549221E0
1.333164917E0,-9.619846500E-2,1.189038320E0,3.953179419E0,4.129248574E0
1.343202917E0,-2.324820199E0,-1.937689499E0,4.877668945E0,5.740303466E0
1.353240917E0,-4.061725376E0,-8.433887032E0,6.544795496E0,1.142201434E1
1.363278917E0,-4.830197740E0,-1.468045699E1,5.213096809E0,1.631021171E1
1.373316917E0,-4.070702606E0,-1.719089822E1,4.096756922E0,1.813507702E1
1.383354917E0,-2.625161846E0,-1.389209327E1,4.267985908E0,1.476812222E1
1.393392917E0,-2.388364815E0,-8.092749361E0,3.234730570E0,9.036612229E0
1.403430917E0,-2.434248793E0,-2.788070537E0,3.764440361E0,5.279196505E0
1.413468917E0,-6.115420856E-1,1.056218816E0,6.112805543E0,6.233455985E0
1.423507917E0,1.987831128E0,1.790030932E0,5.186474437E0,5.835683371E0
1.433545917E0,4.445740094E0,1.580392463E0,2.101885454E0,5.165284870E0
1.443583917E0,5.615186441E0,2.039242187E0,-3.766004491E-1,5.985871312E0
1.453621917E0,5.271338586E0,1.574880878E0,-1.746127990E0,5.772020723E0
1.463659917E0,2.572481942E0,-4.373512655E-1,-2.178684247E0,3.399353544E0
1.473697917E0,-1.061634507E0,-1.729283039E0,-1.415659734E0,2.474182721E0
1.483735917E0,-1.816277767E0,-1.132678762E0,-3.115585657E0,3.780039695E0
1.493773917E0,7.231697448E-1,1.355624909E0,-2.962461405E0,3.337195072E0
1.503811917E0,3.687644200E0,3.546810502E0,-5.350371891E-1,5.144399798E0
1.513849917E0,6.442356956E0,4.264120021E0,-5.215412307E-1,7.743299553E0
1.523887917E0,7.739005678E0,3.173848776E0,4.822532040E-1,8.378430228E0
1.533925917E0,6.969684007E0,5.210909951E-1,1.315073884E-1,6.990373750E0
1.543963917E0,3.682452165E0,-1.899902453E0,-3.933241875E0,5.713184307E0
1.554002917E0,1.992641632E0,-2.557627675E0,-7.611078540E0,8.272883206E0
1.564040917E0,1.285552461E0,-2.529427139E0,-6.957037064E0,7.513388815E0
1.574078917E0,7.093871266E-1,-1.360095690E0,-4.163704325E0,4.437287920E0
1.584116917E0,4.793401212E-1,2.337143791E-1,-2.647070486E0,2.700253974E0
1.594154917E0,4.054634750E-1,1.062008144E0,-2.514728115E0,2.759731766E0
1.604192917E0,1.882844371E-1,1.254122508E0,-2.652011968E0,2.939632932E0
1.614230917E0,-1.751779032E-1,9.703659028E-1,-2.523988059E0,2.709762536E0
1.624268917E0,-6.103154129E-1,2.403895605E-1,-1.979164385E0,2.085033262E0
1.634306917E0,-9.942361374E-1,-1.005236943E0,-8.146601048E-1,1.631771398E0
1.644344917E0,-8.316958214E-1,-1.705689524E0,7.268501285E-1,2.032093945E0
1.654382917E0,-3.020953734E-1,-1.558105216E0,8.486109392E-1,1.799748317E0
1.664420917E0,5.959306777E-2,-1.103693529E0,8.811622426E-2,1.108808013E0
1.674458917E0,4.910602802E-1,-1.049085213E0,-3.447408713E-1,1.208538891E0
1.684497917E0,5.233472894E-1,-6.610435170E-1,-1.016806828E0,1.320896303E0
1.694535917E0,-8.980299979E-2,1.186400056E-1,-1.785901482E0,1.792089321E0
1.704573917E0,-7.460118927E-1,7.858277768E-1,-2.095202818E0,2.358799247E0
1.714611917E0,-1.073510495E0,1.129425956E0,-1.855604532E0,2.423075721E0
1.724649917E0,-1.692593807E0,9.480394793E-1,-1.627483014E0,2.532262548E0
1.734687917E0,-3.147999697E0,5.864137495E-1,-1.428327434E0,3.506266167E0
1.744725917E0,-3.751163673E0,5.601848942E-1,-2.865778863E-1,3.803572387E0
1.754763917E0,-2.954968490E0,9.818486649E-1,1.133108021E0,3.313578031E0
1.764801917E0,-2.380169065E0,1.300736511E0,1.868508752E0,3.293697801E0
1.774839917E0,-2.415040105E0,1.469102408E0,1.309312037E0,3.115281465E0
1.784877917E0,-8.036848810E-1,9.898102337E-1,8.847240740E-1,1.551892514E0
1.794915917E0,-8.375376284E-2,9.570494539E-1,6.368617719E-1,1.152627983E0
1.804953917E0,1.445712376E-1,1.636735649E0,3.108221966E-1,1.672248446E0
1.814991917E0,5.233478741E-1,2.069558830E0,1.974096018E-1,2.143813728E0
1.825029917E0,5.035021318E-1,2.363876091E0,-1.497577087E-1,2.421539168E0
1.835068917E0,3.319654360E-1,2.748007754E0,-6.810906959E-1,2.850549456E0
1.845106917E0,3.933495060E-1,3.005816170E0,-1.176125329E0,3.251603523E0
1.855144917E0,4.463983700E-1,3.076690271E0,-1.393736476E0,3.407021557E0
1.865182917E0,7.059625585E-1,3.071000345E0,-1.282231243E0,3.401991066E0
1.875220917E0,1.667210313E0,2.845866755E0,2.563234424E-1,3.308209414E0
1.885258917E0,2.972828518E0,1.780488276E0,3.664738902E0,5.043625593E0
1.895296917E0,3.238908698E0,-2.608045292E-1,7.732243373E0,8.387260348E0
1.905334917E0,2.032859074E0,-1.888888637E0,8.493708726E0,8.935519248E0
1.915372917E0,4.097298959E-1,-2.601019862E0,5.132670697E0,5.768664611E0
1.925410917E0,-6.001795569E-1,-2.620051380E0,1.606621757E0,3.131472210E0
1.935448917E0,-2.028707843E0,-2.263600436E0,3.709498461E-1,3.062212637E0
1.945486917E0,-4.061483009E0,-1.782349445E0,7.274041522E-1,4.494611282E0
1.955524917E0,-5.916686422E0,-2.048491312E0,1.096307473E0,6.356523023E0
1.965562917E0,-7.858220465E0,-3.254059711E0,1.501195436E0,8.636788825E0
1.975601917E0,-8.285774721E0,-4.360642934E0,1.862683171E0,9.546667383E0
1.985639917E0,-6.226319879E0,-4.991227135E0,8.733414455E-1,8.027585741E0
1.995677917E0,-3.204508651E0,-5.674451480E0,-3.827015801E-1,6.527996308E0
2.005715917E0,-9.019982108E-1,-6.536017656E0,2.385766312E-2,6.598007030E0
2.015753917E0,1.357027363E0,-6.419000838E0,3.117562308E0,7.263903205E0
2.025791917E0,2.914589373E0,-4.883926050E0,6.176215088E0,8.396022731E0
2.035829917E0,3.645269136E0,-3.353705621E0,6.489340503E0,8.163753342E0
2.045867917E0,3.867962390E0,-1.939774032E0,5.528031353E0,7.020184256E0
2.055905917E0,1.498495484E0,-1.235683898E0,3.826445990E0,4.291164448E0
2.065943917E0,-8.556704289E-1,-1.690396131E0,2.769352430E0,3.355431991E0
2.075981917E0,-2.370391351E0,-2.314959455E0,2.265615971E0,4.013827122E0
2.086019917E0,-2.489693262E0,-2.336900547E0,2.698185968E0,4.351997728E0
2.096057917E0,-1.804643708E0,-1.704605450E0,3.750711683E0,4.497805774E0
2.106095917E0,-8.473103723E-1,-1.878301084E-1,3.193427593E0,3.309258951E0
2.116134917E0,1.512996286E-2,1.442871798E0,3.090299885E-1,1.475671873E0
2.126172917E0,-4.141375270E-1,1.952822678E0,-4.537031211E0,4.956781063E0
2.136210917E0,-1.528366570E0,-2.586217636E-1,-6.700883995E0,6.877836571E0
2.146248917E0,4.079919572E-1,-4.005238642E0,-2.886326564E0,4.953713258E0
2.156286917E0,2.687701618E0,-5.751774475E0,7.602666736E-1,6.394110964E0
2.166324417E0,4.052578284E0,-6.793209191E0,2.323965336E0,8.244507065E0
2.176362417E0,5.564869396E0,-7.001560103E0,2.357910762E0,9.249289617E0
2.186400417E0,6.536264409E0,-6.629923940E0,2.195771419E0,9.565566162E0
2.196438417E0,7.302760706E0,-5.484182498E0,7.601760417E-1,9.164302440E0
2.206476417E0,6.785434148E0,-4.073543476E0,-1.927109840E0,8.145527937E0
2.216514417E0,5.173660848E0,-2.553611807E0,-3.420187878E0,6.707114503E0
2.226552417E0,3.759961978E0,-9.082538545E-1,-2.881067286E0,4.823151236E0
2.236590417E0,1.966662891E0,5.390267444E-1,-3.771905209E0,4.287841142E0
2.246628417E0,-2.273070002E-1,1.178604548E0,-4.352318545E0,4.514803858E0
2.256666417E0,-2.909645845E0,1.049575794E0,-3.319948475E0,4.537588144E0
2.266705417E0,-3.769554335E0,1.459693068E-1,-1.860174716E0,4.206078565E0
2.276743417E0,-2.459243009E0,9.042192757E-2,-1.903740858E0,3.111315085E0
2.286781417E0,-1.621970698E0,2.612196815E-1,-2.809124606E0,3.254259627E0
2.296819417E0,-1.110841824E0,3.187019044E-1,-3.074547851E0,3.284567696E0
2.306857417E0,2.727209354E-1,1.546200870E0,-3.443793672E0,3.784815543E0
2.316895417E0,1.613199875E0,2.986722672E0,-3.932962086E0,5.195297578E0
2.326933417E0,2.285109126E0,4.277111365E0,-3.819214738E0,6.172666082E0
2.336971417E0,2.253249110E0,5.021529745E0,-3.607876776E0,6.581008081E0
2.347009417E0,2.477111515E0,5.717296368E0,-4.053398064E0,7.433276201E0
2.357047417E0,2.939260823E0,6.610356233E0,-4.356264246E0,8.444708514E0
2.367085417E0,2.846569591E0,7.244067525E0,-4.669187640E0,9.076386173E0
2.377123417E0,2.677923904E0,7.393563287E0,-5.078569919E0,9.360978952E0
2.387161417E0,2.696865667E0,7.388021296E0,-5.159317628E0,9.406088533E0
2.397199417E0,2.466793226E0,7.222657945E0,-4.851990897E0,9.043985420E0
2.407237417E0,2.065032062E0,6.937487483E0,-4.459144544E0,8.501591619E0
2.417275417E0,1.694100196E0,6.764888202E0,-3.867350187E0,7.974339178E0
2.427314417E0,1.492595643E0,6.589220887E0,-3.109894270E0,7.437547715E0
2.437352417E0,1.070661000E0,6.094943469E0,-2.232642645E0,6.578703827E0
2.447390417E0,1.559692150E-1,4.822798673E0,-7.593439829E-1,4.884702316E0
2.457428417E0,-7.951754281E-1,3.042498093E0,1.608193050E0,3.532050890E0
2.467466417E0,-1.112205760E0,1.218543370E0,4.149985296E0,4.465896052E0
2.477504417E0,-1.218837339E0,-7.894214755E-1,6.974889198E0,7.124452965E0
2.487542417E0,-2.280366450E0,-5.486887420E0,8.939636103E0,1.073420227E1
2.497580417E0,-1.904365779E0,-1.295039218E1,8.339218272E0,1.552036816E1
2.507618417E0,-1.697695941E0,-1.805707902E1,8.919932740E0,2.021151836E1
2.517656417E0,-2.129338278E0,-1.605475381E1,5.514792087E0,1.710853977E1
2.527694417E0,-2.206037960E0,-9.575237215E0,1.155911504E0,9.893831544E0
2.537732417E0,-2.969386847E0,-1.798071438E0,2.129157161E0,4.072300254E0
2.547770417E0,-3.099240350E0,4.452316166E0,4.901068917E0,7.310874538E0
2.557808417E0,-1.579764472E0,7.805227734E0,6.267862008E0,1.013426514E1
2.567846417E0,3.779659932E-1,6.964014546E0,4.685850450E0,8.402234901E0
2.577884417E0,1.570472077E0,2.326082613E0,1.532224855E-1,2.810786366E0
2.587923417E0,4.100980074E0,-1.490728920E0,-3.614348767E0,5.666023939E0
2.597961417E0,6.138992298E0,-3.436759472E0,-3.932203410E0,8.059824177E0
2.607999417E0,4.205641433E0,-5.461760765E0,-2.988333580E0,7.513214232E0
2.618037417E0,2.925846579E-1,-6.643882998E0,-1.357517653E0,6.787462062E0
2.628075417E0,-8.455287257E-1,-5.528112629E0,9.370236173E-1,5.670358130E0
2.638113417E0,2.108934127E0,-7.868481159E-1,2.750887508E0,3.554450054E0
2.648151417E0,5.853432412E0,4.904871946E0,-2.905879653E0,8.170959330E0
2.658189417E0,8.332700381E0,7.502000486E0,-3.628398457E0,1.178470120E1
2.668227417E0,9.357138995E0,6.829418659E0,1.264240530E0,1.165312462E1
2.678265417E0,7.158083049E0,4.029799286E0,-1.263616047E0,8.311086616E0
2.688303417E0,3.453008299E0,1.223079640E-1,-5.320529457E0,6.343993951E0
2.698341417E0,5.158741093E-1,-3.973532115E0,-6.858966393E0,7.943582539E0
2.708379417E0,-2.408840887E-1,-5.449873960E0,-7.428428480E0,9.216327957E0
2.718417417E0,-6.226692639E-1,-4.455956642E0,-6.329644858E0,7.765801352E0
2.728455417E0,-7.195902255E-1,-2.138853014E0,-4.914404662E0,5.407760672E0
2.738493417E0,-5.983717440E-1,-1.553412241E-1,-4.525572715E0,4.567602000E0
2.748531417E0,-4.281177811E-1,6.672801572E-1,-3.996712232E0,4.074586642E0
2.758569417E0,-5.647024530E-1,6.472592908E-1,-3.109168338E0,3.225641208E0
2.768608417E0,-9.654190122E-1,3.065812111E-1,-2.064558584E0,2.299658247E0
2.778646417E0,-8.627519917E-1,3.042189360E-2,-9.935047969E-1,1.316175624E0
2.788684417E0,6.469461724E-2,-2.144635910E-1,1.645751470E-1,2.779658331E-1
2.798722417E0,9.569333866E-1,-5.293075025E-1,1.719781752E0,2.038022869E0
2.808760417E0,1.867247800E0,-9.409544080E-1,2.786799352E0,3.484000599E0
2.818798417E0,1.877008411E0,-1.267555901E0,1.979463031E0,3.008011374E0
2.828836417E0,1.275182863E0,-6.428177458E-1,6.852350561E-1,1.583935942E0
2.838874417E0,6.305706064E-1,3.508481419E-1,-3.997466522E-1,8.249309634E-1
2.848912417E0,-1.856170835E-1,9.024019611E-1,-1.322383634E0,1.611670399E0
2.858950417E0,-1.436548473E0,8.463984990E-1,-2.386705960E0,2.911430452E0
2.868988417E0,-2.703192354E0,3.641757005E-1,-2.419010072E0,3.645748562E0
2.879026417E0,-2.072025332E0,1.181394839E0,-1.826347404E0,3.004085149E0
2.889064417E0,-1.342359038E0,1.959870912E0,-8.343192478E-1,2.517759001E0
2.899102417E0,-2.043810908E0,1.939320288E0,-8.422901722E-1,2.940676613E0
2.909140417E0,-2.731471244E0,1.457619646E0,-1.276372333E0,3.348838085E0
2.919178417E0,-2.815086427E0,9.361748940E-1,-9.343236655E-1,3.110320842E0
2.929216417E0,-1.571441253E0,1.271958854E0,9.532522720E-1,2.235172663E0
2.939255417E0,-3.926778071E-1,1.911805045E0,1.687919251E0,2.580361561E0
2.949293417E0,1.589207433E-1,1.743881782E0,1.329739870E0,2.198769564E0
2.959331417E0,2.227129890E-1,1.558250227E0,7.298798633E-1,1.735070448E0
2.969369417E0,3.334395191E-1,1.777182845E0,1.758549742E-1,1.816723906E0
2.979407417E0,3.945614876E-1,2.064124428E0,3.151742061E-1,2.124999577E0
2.989445417E0,3.040246622E-1,2.360249063E0,7.418445090E-1,2.492697317E0
2.999483417E0,2.884675603E-1,2.615513356E0,1.104831398E0,2.853905406E0
3.009521417E0,6.620249721E-1,2.455515409E0,1.835615240E0,3.136449633E0
3.019559417E0,1.373666785E0,1.879685120E0,3.183855700E0,3.944250716E0
3.029597417E0,2.208667599E0,1.102258038E0,4.457990888E0,5.095769628E0
3.039635417E0,2.486487818E0,1.352460980E-2,4.936256876E0,5.527154470E0
3.049673417E0,1.766171368E0,-1.057417495E0,4.839846815E0,5.259430602E0
3.059711417E0,5.851539668E-1,-1.740384563E0,4.017669822E0,4.417353777E0
3.069749417E0,-9.442209551E-1,-2.299235707E0,2.887401867E0,3.809872385E0
3.079787417E0,-2.202228645E0,-2.701553380E0,2.009589640E0,4.023263873E0
3.089825417E0,-3.088989012E0,-2.689033322E0,1.667982584E0,4.422094438E0
3.099863417E0,-4.330872712E0,-2.441313107E0,1.750195460E0,5.270640595E0
3.109901417E0,-5.556790298E0,-2.325574490E0,1.200172734E0,6.142200723E0
3.119939417E0,-5.971495298E0,-2.163054054E0,-2.993667702E-1,6.358237129E0
3.129978417E0,-5.373376007E0,-2.335654505E0,-1.078895634E0,5.957555494E0
3.140016417E0,-4.001244408E0,-2.848120857E0,-2.882301633E-1,4.919840024E0
3.150054417E0,-1.320806201E0,-3.542288266E0,2.069787018E0,4.310029406E0
3.160092417E0,1.381865458E0,-4.124303740E0,3.989127516E0,5.901912556E0
3.170130833E0,2.412467623E0,-3.682797443E0,4.348493882E0,6.188085008E0
3.180168833E0,3.275427191E0,-2.716462026E0,4.469843487E0,6.171473893E0
3.190206833E0,3.448982784E0,-1.910398790E0,5.139294423E0,6.477457290E0
3.200244833E0,1.680236594E0,-1.972986217E0,4.903931129E0,5.546567420E0
3.210282833E0,-6.647740406E-1,-2.615576506E0,3.653801100E0,4.542403269E0
3.220320833E0,-2.555296390E0,-3.417805138E0,2.388094089E0,4.890186600E0
3.230358833E0,-3.903466099E0,-4.509218345E0,2.185303148E0,6.351822378E0
3.240396833E0,-4.502291148E0,-4.721421987E0,2.386669707E0,6.946844136E0
3.250434833E0,-3.709992258E0,-3.559630523E0,2.722841338E0,5.817978770E0
3.260472833E0,-2.451883119E0,-1.949508476E0,1.871770914E0,3.649087623E0
3.270510833E0,-6.274471700E-2,4.938102257E-1,-1.397309855E-1,5.170204898E-1
3.280548833E0,1.115979114E-1,5.626793164E-1,-2.535282540E0,2.599369090E0
3.290586833E0,-1.857204330E-1,-1.807298929E0,-2.490196415E0,3.082515155E0
3.300624833E0,2.463235780E0,-3.959305839E0,-1.565120121E0,4.918661833E0
3.310662833E0,4.618968828E0,-4.693453000E0,-7.335717952E-1,6.625820831E0
3.320700833E0,5.068525572E0,-4.698569314E0,1.019946856E0,6.986186131E0
3.330739833E0,5.022364143E0,-4.866597242E0,1.809357149E0,7.223689057E0
3.340777833E0,5.389500289E0,-4.681078538E0,8.370026082E-1,7.187474035E0
3.350815833E0,5.672240063E0,-4.040372221E0,-7.014043616E-1,6.999348762E0
3.360853833E0,4.716341341E0,-2.710621242E0,-2.616433707E0,6.036312493E0
3.370891833E0,2.449344550E0,-1.684823150E0,-2.488846877E0,3.877147992E0
3.380929833E0,7.630385461E-1,-1.353127563E0,-8.756547502E-1,1.783242346E0
3.390967833E0,-4.508387455E-1,-8.094476044E-1,-1.775831553E0,2.003007415E0
3.401005833E0,-1.959989610E0,-5.521677768E-1,-3.143572185E0,3.745463204E0
3.411043833E0,-2.786792628E0,-1.732126540E-1,-2.476382952E0,3.732115794E0
3.421081833E0,-3.036015285E0,2.624253774E-1,-2.439110169E0,3.903269694E0
3.431119833E0,-2.290446757E0,5.403926539E-1,-2.580100864E0,3.492147052E0
3.441157833E0,-9.841195773E-1,1.077307969E0,-3.000123321E0,3.336139047E0
3.451195833E0,2.357334226E-2,1.890287291E0,-3.321176975E0,3.821512560E0
3.461233833E0,-9.336709701E-2,2.114661913E0,-4.260041589E0,4.756938801E0
3.471271833E0,2.992675868E-1,2.246830037E0,-3.870467922E0,4.485345944E0
3.481309833E0,9.015728990E-1,3.003260937E0,-3.157350857E0,4.449862288E0
3.491347833E0,1.743309925E0,3.789778685E0,-3.536438711E0,5.468816209E0
3.501385833E0,2.677567517E0,4.950811180E0,-3.815514620E0,6.799856687E0
3.511423833E0,2.807028964E0,5.866159462E0,-4.309265789E0,7.801346683E0
3.521461833E0,3.006225767E0,6.311110938E0,-4.810704877E0,8.485893945E0
3.531500833E0,2.779127513E0,6.469890325E0,-4.869838938E0,8.561446247E0
3.541538833E0,2.576070378E0,6.406929846E0,-4.597164561E0,8.295710376E0
3.551576833E0,2.182490345E0,6.210205538E0,-4.303551305E0,7.864507026E0
3.561614833E0,1.687471354E0,5.895836420E0,-3.898018833E0,7.266567104E0
3.571652833E0,1.117234658E0,5.611712610E0,-3.420689861E0,6.666382139E0
3.581690833E0,5.470221540E-1,5.337102220E0,-2.975003975E0,6.134699829E0
3.591728833E0,4.515651159E-2,5.242442231E0,-2.159477313E0,5.669971950E0
3.601766833E0,-4.729026291E-1,5.115450062E0,-7.522381541E-1,5.192044730E0
3.611804833E0,-1.064291117E0,4.788407689E0,1.455024651E0,5.116508626E0
3.621842833E0,-1.602029792E0,4.137234857E0,3.691553356E0,5.771549003E0
3.631880833E0,-1.430860740E0,2.554391826E0,5.881066938E0,6.569568356E0
3.641918833E0,-5.479041333E-1,3.319873631E-2,6.293669863E0,6.317561353E0
3.651956833E0,-1.586102708E0,-3.223233190E0,6.688281491E0,7.591973610E0
3.661994833E0,-4.090627871E0,-9.110560157E0,8.051041757E0,1.282789212E1
3.672032833E0,-5.741065300E0,-1.473523371E1,7.731145266E0,1.760277110E1
3.682070833E0,-5.712846052E0,-1.466664002E1,4.338389601E0,1.632692757E1
3.692108833E0,-3.698994815E0,-9.473923679E0,2.941779511E0,1.058734429E1
3.702146833E0,-3.319314930E0,-3.191375805E0,4.630951235E0,6.530577346E0
3.712184833E0,-2.897282200E0,2.289432265E0,7.038692261E0,7.948517660E0
3.722222833E0,-8.692057098E-1,4.442132655E0,6.965237199E0,8.306779781E0
3.732260833E0,2.879357560E-1,1.921919559E0,2.582069329E0,3.231681266E0
3.742298833E0,9.333935197E-1,-9.644935441E-1,-1.321301168E0,1.883429860E0
3.752336833E0,1.701096682E0,-2.170859503E0,-7.038089998E0,7.559171365E0
3.762375833E0,2.114215478E0,-2.687755705E0,-9.626354744E0,1.021570573E1
3.772413833E0,1.713138292E0,-3.371132078E0,-2.960930311E0,4.802757812E0
3.782451833E0,2.339646691E0,-3.823704230E0,5.358166230E0,6.986029346E0
3.792489833E0,5.423372625E0,-2.131972010E0,3.133111809E0,6.616242505E0
3.802527833E0,8.162490272E0,2.945640135E-1,-9.988134840E-1,8.228647749E0
3.812565833E0,8.433146775E0,1.388409078E0,-1.265793550E0,8.639900324E0
3.822603833E0,5.802690859E0,1.103847896E0,-3.492444845E0,6.861987495E0
3.832641833E0,3.526953943E0,3.474532485E-2,-5.989110035E0,6.950543170E0
3.842679833E0,2.528980996E0,-1.055100828E0,-6.673000377E0,7.213731120E0
3.852717833E0,1.952754704E0,-1.253552404E0,-6.159700212E0,6.582290731E0
3.862755833E0,1.158341607E0,-8.696049285E-1,-6.174765564E0,6.342373197E0
3.872793833E0,1.512736085E-1,-4.316145623E-1,-6.359318308E0,6.375743421E0
3.882831833E0,2.254964098E-2,-4.190980124E-1,-6.034566289E0,6.049143900E0
3.892869833E0,3.875959919E-1,-5.651064956E-1,-5.749254325E0,5.789948298E0
3.902907833E0,1.784421113E-1,-8.288416493E-1,-5.060286845E0,5.130820891E0
3.912945833E0,-3.961131924E-1,-8.079501325E-1,-4.291009027E0,4.384341176E0
3.922983833E0,-3.737902772E-1,-6.862233818E-1,-3.542212252E0,3.627380507E0
3.933021833E0,4.566105321E-1,-3.731213558E-1,-2.029175620E0,2.113117702E0
3.943059833E0,1.495767465E0,-1.282393795E-1,3.150114343E-1,1.533948452E0
3.953097833E0,2.331021171E0,1.424954760E-1,2.181688984E0,3.195892909E0
3.963135833E0,2.922039603E0,1.764642906E-1,3.086141126E0,4.253671606E0
3.973173833E0,2.014825968E0,6.243861526E-1,2.498177864E0,3.269598506E0
3.983212833E0,1.437356412E0,1.591520884E0,4.062288755E-1,2.182648409E0
3.993250833E0,1.858686599E-1,1.821643903E0,-1.702825411E0,2.500509558E0
4.003288833E0,-1.162345780E0,2.179650791E0,-3.402263238E0,4.204440561E0
4.013326833E0,-1.096629508E0,2.312670854E0,-3.524499282E0,4.355816565E0
4.023364833E0,-1.152024567E0,2.467073600E0,-2.856280646E0,3.946131255E0
4.033402833E0,-9.490212268E-1,2.301392745E0,-1.716230299E0,3.023656114E0
4.043440833E0,-1.389189096E0,1.605530813E0,-4.240606175E-1,2.165041095E0
4.053478833E0,-1.326883797E0,8.224623370E-1,4.691653812E-1,1.630086213E0
4.063516833E0,-1.388013221E0,5.796531987E-1,1.279619291E0,1.974842795E0
4.073554833E0,-1.572520649E0,7.350710213E-1,1.778104951E0,2.484916058E0
4.083592833E0,-1.759092729E0,1.362366748E0,1.267447143E0,2.560639109E0
4.093630833E0,-1.484054615E0,1.980439662E0,7.857780755E-1,2.596537414E0
4.103668833E0,-9.964693353E-1,2.215687766E0,7.753302705E-1,2.550168708E0
4.113706833E0,-4.065074953E-1,2.230719203E0,1.016090471E0,2.484712529E0
4.123744833E0,2.125647077E-1,2.116829476E0,1.390831579E0,2.541763810E0
4.133782833E0,8.779392573E-1,1.997136387E0,2.126212503E0,3.046327411E0
4.143820833E0,1.432033692E0,1.692222801E0,3.300396556E0,3.975796263E0
4.153858833E0,1.636477786E0,8.169630307E-1,4.436739768E0,4.798973630E0
4.163896833E0,1.096206462E0,-3.785885024E-1,5.192269027E0,5.320211980E0
4.173934417E0,5.923486733E-1,-1.145838506E0,4.691223457E0,4.865326336E0
4.183972417E0,-6.024883300E-2,-1.645488930E0,3.627609082E0,3.983818695E0
4.194010417E0,-8.762918043E-1,-1.882865421E0,2.970435838E0,3.624439072E0
4.204048417E0,-2.377870525E0,-2.491093962E0,2.103004904E0,4.035151421E0
4.214086417E0,-4.384573833E0,-2.936479887E0,7.870245557E-1,5.335429643E0
4.224125417E0,-6.132598368E0,-3.172230851E0,3.663539346E-1,6.914190229E0
4.234163417E0,-8.191825753E0,-3.567986194E0,7.674916394E-1,8.968030891E0
4.244201417E0,-8.180776854E0,-3.828974910E0,1.577412868E0,9.169208808E0
4.254239417E0,-5.353732871E0,-4.216324296E0,1.987700296E0,7.098647666E0
4.264277417E0,-2.887381109E0,-4.996132949E0,1.956291539E0,6.093060865E0
4.274315417E0,-9.543173423E-1,-5.269702535E0,1.974728687E0,5.707892762E0
4.284353417E0,1.086479326E0,-4.568533670E0,2.426599466E0,5.285860591E0
4.294391417E0,3.257838766E0,-2.741448932E0,4.166653368E0,5.957353101E0
4.304429417E0,4.907327192E0,-1.813002888E0,6.155199026E0,8.078076175E0
4.314467417E0,3.631556538E0,-1.934883420E0,5.208835359E0,6.638067680E0
4.324505417E0,1.647739524E-1,-2.641655087E0,3.063921121E0,4.048839920E0
4.334543417E0,-2.461947639E0,-3.655320207E0,2.120757197E0,4.890824376E0
4.344581417E0,-3.554448135E0,-4.309275144E0,2.160859448E0,5.989429637E0
4.354619417E0,-3.005824941E0,-4.045676816E0,3.137473247E0,5.936852941E0
4.364657417E0,-1.457879847E0,-2.838730229E0,3.251160661E0,4.555639209E0
4.374695417E0,4.272013763E-1,-1.081353657E0,1.435817717E0,1.847538705E0
4.384733417E0,2.118890327E0,9.831672120E-1,-2.634109840E0,3.520631852E0
4.394771417E0,2.056970067E0,1.233340918E0,-5.195277420E0,5.722164201E0
4.404809417E0,1.107104503E0,-9.399814314E-1,-6.727482979E0,6.882461239E0
4.414847417E0,2.381229750E0,-4.476638244E0,-1.441033434E0,5.271349205E0
4.424885417E0,3.930683718E0,-5.988266866E0,4.631323995E0,8.529875527E0
4.434923417E0,4.912873861E0,-6.089411418E0,4.219488224E0,8.889394910E0
4.444961417E0,6.155983722E0,-6.002411866E0,1.104303979E0,8.668596834E0
4.454999417E0,6.926180722E0,-5.313374804E0,-9.366837479E-1,8.779596098E0
4.465037417E0,6.293928895E0,-3.760056703E0,-1.449657492E0,7.473491432E0
4.475075417E0,3.920880861E0,-2.359302984E0,-2.123205426E0,5.044563269E0
4.485113417E0,1.816492360E0,-1.297324660E0,-3.023635560E0,3.758333110E0
4.495152417E0,3.308142655E-1,-5.027938879E-1,-2.434270136E0,2.507570710E0
4.505190417E0,-1.755160769E0,-7.380531013E-2,-2.134148344E0,2.764168175E0
4.515228417E0,-4.143838702E0,-1.096721309E-1,-3.462826359E0,5.401351087E0
4.525266417E0,-5.696627045E0,-1.386432719E0,-3.715302992E0,6.940982041E0
4.535304417E0,-4.515824529E0,-2.103978465E0,-2.720306862E0,5.676219339E0
4.545342417E0,-1.159082011E0,-1.020573605E0,-1.844361798E0,2.405558569E0
4.555380417E0,4.847222639E-1,6.754130495E-1,-1.976849764E0,2.144545045E0
4.565418417E0,9.514507449E-1,1.822604016E0,-2.750829620E0,3.434269576E0
4.575456417E0,1.496227056E0,2.806377584E0,-3.427623490E0,4.675794407E0
4.585494417E0,2.036874503E0,3.884954399E0,-3.744559827E0,5.767448025E0
4.595532417E0,2.532765022E0,5.154790714E0,-4.022745205E0,7.012078504E0
4.605570417E0,3.207753563E0,5.936255298E0,-4.214004413E0,7.955290258E0
4.615608417E0,3.606324925E0,6.408864105E0,-4.611437615E0,8.680119553E0
4.625646417E0,3.565287119E0,6.775590945E0,-4.843701592E0,9.059875828E0
4.635684417E0,3.403810996E0,6.972103584E0,-4.820798925E0,9.134345076E0
4.645722417E0,2.863548151E0,6.879736873E0,-5.050779272E0,9.002280750E0
4.655760417E0,2.427485027E0,6.651839889E0,-4.881811697E0,8.600682700E0
4.665798417E0,1.895870359E0,6.249241549E0,-4.464526906E0,7.910710768E0
4.675836417E0,1.269776819E0,5.800905120E0,-3.959293852E0,7.137145171E0
4.685874417E0,5.864417795E-1,5.460565594E0,-3.619368601E0,6.577348983E0
4.695912417E0,1.830230393E-1,5.321921679E0,-2.905087940E0,6.065961072E0
4.705950417E0,-1.911402903E-1,5.412174622E0,-1.777574316E0,5.699819225E0
4.715988417E0,-1.032827322E0,4.948049541E0,4.419033229E-3,5.054695447E0
4.726026417E0,-1.598144902E0,3.921821094E0,2.699222680E0,5.022006660E0
4.736064417E0,-1.752863983E0,2.488584337E0,5.919690721E0,6.656449683E0
4.746102417E0,-1.832649533E0,2.809423399E-1,8.218204882E0,8.424750702E0
4.756140417E0,-2.676395735E0,-3.211846907E0,6.862398124E0,8.035643266E0
4.766178417E0,-3.088335586E0,-8.806885597E0,5.545670648E0,1.085603581E1
4.776216417E0,-3.285256360E0,-1.424953123E1,6.275757503E0,1.591311352E1
4.786255417E0,-3.126090765E0,-1.443384950E1,3.754652706E0,1.523830279E1
4.796293417E0,-2.155590668E0,-9.269127874E0,1.836443791E0,9.692049756E0
4.806331417E0,-1.611015793E0,-2.823727443E0,2.773030621E0,4.272997470E0
4.816369417E0,-1.899207219E0,1.969118868E0,5.460669674E0,6.107645247E0
4.826407417E0,-2.568008675E-1,3.942077603E0,7.787246377E0,8.731960183E0
4.836445417E0,1.810897306E0,1.934858277E0,6.086755612E0,6.638645908E0
4.846483417E0,2.348248530E0,-1.590330976E0,2.289571137E0,3.644936181E0
4.856521417E0,3.348368282E0,-2.511790767E0,4.715527993E-1,4.212247031E0
4.866559417E0,3.079149317E0,-3.705390499E0,7.762354195E-1,4.879920153E0
4.876597417E0,-6.207426795E-1,-6.311237823E0,-1.634688538E-1,6.343797474E0
4.886635417E0,-2.166788671E0,-7.005520422E0,-2.548346974E0,7.763141235E0
4.896673417E0,2.519603232E-1,-2.488101357E0,-3.978526514E0,4.699234575E0
4.906711417E0,3.909497794E0,4.534479486E0,-5.436331809E0,8.086988360E0
4.916749417E0,7.237895204E0,8.456108206E0,-4.671016649E0,1.207109314E1
4.926787417E0,1.055535393E1,8.010080842E0,2.418211927E0,1.346939645E1
4.936825417E0,9.551019802E0,5.485057241E0,3.101856687E0,1.144243624E1
4.946863417E0,4.464868091E0,5.947384304E-1,-3.416715217E0,5.653556734E0
4.956901417E0,1.127521956E0,-3.278508089E0,-6.479443506E0,7.348680779E0
4.966939417E0,1.773589146E-1,-5.038041698E0,-8.157183339E0,9.589210622E0
4.976977417E0,6.839258645E-1,-5.225629147E0,-7.129207159E0,8.865695082E0
4.987015417E0,3.081010486E-1,-3.867018650E0,-4.715981445E0,6.106491667E0
4.997053417E0,-4.758141039E-1,-1.695554545E0,-3.341126798E0,3.776828373E0
5.007091417E0,-6.187875898E-1,-3.564661467E-1,-2.956150505E0,3.041182665E0
5.017129417E0,-6.923946793E-1,8.563481212E-2,-2.892972802E0,2.975909163E0
5.027167417E0,-8.680793899E-1,1.929364818E-1,-2.919018639E0,3.051467865E0
5.037205417E0,-3.772965601E-1,3.720320195E-1,-2.718511767E0,2.769669068E0
5.047243417E0,6.400235076E-1,2.960977381E-1,-2.452678925E0,2.552045820E0
5.057281417E0,1.469394622E0,-2.378851980E-1,-1.300533320E0,1.976637761E0
5.067319417E0,1.948389904E0,-8.893041980E-1,-2.543755156E-1,2.156801353E0
5.077357417E0,1.994304872E0,-9.274759912E-1,2.265920319E-1,2.211064809E0
5.087395417E0,1.193997928E0,-6.504278970E-1,4.699892539E-1,1.438602586E0
5.097433417E0,8.739961874E-1,-4.000460297E-1,7.130226329E-1,1.196790473E0
5.107471417E0,1.787853429E-1,2.878771377E-1,3.826992412E-1,5.111713552E-1
5.117510417E0,-8.940629545E-1,1.314630080E0,-4.739669685E-1,1.658989301E0
5.127548417E0,-8.541048369E-1,1.772114478E0,-1.097953172E0,2.252861728E0
5.137586417E0,-9.462882382E-1,1.639232994E0,-7.950716400E-1,2.052969837E0
5.147624417E0,-1.776454574E0,1.981025553E0,-7.336595035E-1,2.760164735E0
5.157662417E0,-1.784337498E0,2.261956784E0,-1.574624185E0,3.283252979E0
5.167700042E0,-1.345552495E0,1.924064902E0,-2.194783385E0,3.213971278E0
5.177738042E0,-1.354569779E0,1.659486580E0,-1.970918641E0,2.910889088E0
5.187776042E0,-1.541012635E0,1.616740510E0,-1.385647438E0,2.628419418E0
5.197814042E0,-1.464497433E0,1.551182113E0,-4.045232427E-1,2.171303234E0
5.207852042E0,-1.054797066E0,1.647832494E0,3.716537046E-1,1.991500755E0
5.217890042E0,-3.533247301E-1,1.760922908E0,6.790336454E-1,1.920097535E0
5.227928042E0,2.106351265E-1,1.847378669E0,6.356601691E-1,1.965003550E0
5.237966042E0,5.353529388E-1,1.771463683E0,7.213172738E-1,1.986198620E0
5.248004042E0,5.915414652E-1,1.800110362E0,1.076101688E0,2.179062520E0
5.258042042E0,1.044083212E0,2.163067503E0,1.767009859E0,2.981827396E0
5.268080042E0,1.756448326E0,2.617897266E0,2.709073484E0,4.156630361E0
5.278118042E0,2.517477184E0,2.861732590E0,3.547227409E0,5.206729019E0
5.288156042E0,3.300438656E0,2.110088221E0,4.318621334E0,5.830596697E0
5.298194042E0,2.810941629E0,3.483110350E-1,4.749551772E0,5.530005014E0
5.308232042E0,9.878619415E-1,-1.291810736E0,4.471845281E0,4.758365939E0
5.318270042E0,-9.315909693E-1,-2.223515434E0,3.412729754E0,4.178349793E0
5.328308042E0,-2.675391183E0,-2.798999568E0,2.546655375E0,4.634389945E0
5.338346042E0,-3.898248628E0,-3.083579460E0,2.103990452E0,5.397367921E0
5.348384042E0,-4.936599523E0,-3.164509018E0,1.528487899E0,6.059736581E0
5.358422042E0,-6.072179089E0,-3.646174577E0,1.164208703E0,7.177836013E0
5.368460042E0,-6.529169982E0,-4.208760923E0,1.623728225E0,7.936007970E0
5.378498042E0,-5.470397687E0,-4.329853250E0,2.455982602E0,7.396264636E0
5.388536042E0,-3.600571557E0,-4.271200415E0,2.916530356E0,6.301858285E0
5.398574042E0,-1.865274949E0,-4.442425600E0,3.760793160E0,6.112115922E0
5.408612042E0,-5.586646181E-1,-4.373997390E0,4.511960689E0,6.308862701E0
5.418650042E0,4.833399090E-1,-4.015233872E0,3.276165694E0,5.204707693E0
5.428688042E0,2.233408338E0,-3.048064057E0,2.531896710E0,4.548550126E0
5.438726042E0,3.082249511E0,-2.112039437E0,4.947959493E0,6.200264170E0
5.448764042E0,1.743400849E0,-2.049601114E0,5.617068075E0,6.228303541E0
5.458802042E0,-7.254383183E-1,-2.993117187E0,3.247802020E0,4.475849552E0
5.468840042E0,-2.526050079E0,-3.787071424E0,1.709792661E0,4.862738932E0
5.478878042E0,-3.276291409E0,-3.798051326E0,1.768361735E0,5.318494383E0
5.488916042E0,-2.750313604E0,-2.860240381E0,3.110019400E0,5.041569262E0
5.498954042E0,-1.606898769E0,-1.127150804E0,2.404390279E0,3.103817843E0
5.508992042E0,3.983582309E-1,9.973665905E-1,-4.444047618E-1,1.162292987E0
5.519031042E0,8.078814277E-1,1.387113335E0,-3.653051487E0,3.990180569E0
5.529069042E0,-2.701489645E-1,-1.691534584E0,-4.498944787E0,4.814018478E0
5.539107042E0,1.463294515E0,-4.383898480E0,-4.832747126E-1,4.646864660E0
5.549145042E0,3.486944077E0,-5.060783858E0,1.297496569E0,6.281226759E0
5.559183042E0,4.429716677E0,-5.493670775E0,9.396616618E-1,7.119394108E0
5.569221042E0,5.501704264E0,-5.997390277E0,5.767331723E-1,8.159047806E0
5.579259042E0,6.540210110E0,-5.733755695E0,3.915412545E-1,8.706526702E0
5.589297042E0,6.978009272E0,-4.853033456E0,-2.473993488E-1,8.503278989E0
5.599335042E0,6.260971064E0,-2.995218092E0,-1.420035644E0,7.084320102E0
5.609373042E0,4.690943083E0,-1.623771202E0,-9.958527464E-1,5.062934190E0
5.619411042E0,3.237572901E0,-7.981461060E-1,-6.844673167E-1,3.404028643E0
5.629449042E0,1.840651886E0,1.711398160E-1,-1.772439876E0,2.561021537E0
5.639487042E0,2.480700244E-1,5.964867479E-1,-3.205699144E0,3.270144061E0
5.649525042E0,-1.356699481E0,5.045053679E-1,-4.032452168E0,4.284370389E0
5.659563042E0,-3.061811446E0,-3.861530453E-1,-3.824907002E0,4.914643129E0
5.669601042E0,-2.729690766E0,-1.230355915E0,-2.512920156E0,3.908932728E0
5.679639042E0,-2.606187924E0,-1.715053255E0,-2.107516323E0,3.765003083E0
5.689677042E0,-1.817046676E0,-6.819227546E-1,-2.550776492E0,3.205173627E0
5.699715042E0,-1.191050054E-1,1.111910622E0,-2.603439148E0,2.833447834E0
5.709753042E0,9.109770490E-1,2.691500847E0,-3.047828414E0,4.166931009E0
5.719791042E0,1.911572033E0,4.098344441E0,-2.917406854E0,5.381616630E0
5.729829042E0,2.942886389E0,5.354133405E0,-3.220582062E0,6.906480553E0
5.739867042E0,3.485265342E0,6.227944821E0,-3.523497069E0,7.959233806E0
5.749905042E0,3.574564896E0,6.635129131E0,-4.053521732E0,8.557656877E0
5.759943042E0,3.261621330E0,6.738722497E0,-4.573211735E0,8.772845613E0
5.769981042E0,2.852665021E0,6.632308434E0,-4.776428791E0,8.656759491E0
5.780019042E0,2.506312218E0,6.526776717E0,-4.694163437E0,8.421139211E0
5.790057042E0,2.126084741E0,6.397218790E0,-4.504622433E0,8.107790565E0
5.800095042E0,1.530363101E0,6.054871915E0,-4.286920069E0,7.575035895E0
5.810133042E0,9.418053241E-1,5.679687662E0,-4.035753213E0,7.030871440E0
5.820171042E0,3.067920032E-1,5.585666773E0,-3.716616569E0,6.716176989E0
5.830209042E0,-2.561719995E-1,5.688593556E0,-3.129880053E0,6.497835784E0
5.840247042E0,-6.876521489E-1,5.692417635E0,-2.238457993E0,6.155256144E0
5.850285042E0,-1.356887907E0,5.409445142E0,-2.350580692E-1,5.581979383E0
5.860323042E0,-2.091047202E0,4.414840191E0,2.754850166E0,5.608252112E0
5.870361042E0,-2.522063740E0,2.554412876E0,5.784059876E0,6.807435589E0
5.880399042E0,-2.923606657E0,9.510671675E-2,7.365074483E0,7.924698311E0
5.890437042E0,-3.449818936E0,-2.826126555E0,7.069070300E0,8.358229293E0
5.900475042E0,-3.807217129E0,-8.059281653E0,6.956679799E0,1.130673768E1
5.910513042E0,-3.715392162E0,-1.407209747E1,6.793094001E0,1.606157502E1
5.920551042E0,-2.733203189E0,-1.510796914E1,3.748836481E0,1.580426861E1
5.930589042E0,-2.183357195E0,-1.047805374E1,2.792553305E0,1.106142002E1
5.940627042E0,-2.337089996E0,-3.366747835E0,4.474100845E0,6.067500227E0
5.950665042E0,-2.194658401E0,2.874266097E0,6.659752926E0,7.578274218E0
5.960703042E0,1.190105656E0,4.376728624E0,7.026666877E0,8.363381632E0
5.970741042E0,5.686129539E0,3.582544007E0,3.027368130E0,7.371000508E0
5.980779042E0,7.457672160E0,5.527022123E-1,-1.142849994E-1,7.478998251E0
5.990817042E0,4.829163367E0,-4.577167084E0,-9.230490643E-1,6.717387655E0
6.000855042E0,2.757997722E0,-7.080715030E0,-1.282582660E0,7.706367176E0
6.010893042E0,-3.519170860E-1,-7.568782121E0,1.851966394E0,7.800005638E0
6.020931042E0,4.082849027E-1,-4.098290647E0,3.836480396E0,5.628611251E0
6.030969042E0,4.026066716E0,1.927082650E0,-1.991044173E0,4.887444899E0
6.041008042E0,4.755975231E0,5.152771670E0,-7.137789702E0,1.000591815E1
6.051046042E0,5.203327866E0,5.229201795E0,-3.690772460E0,8.248695270E0
6.061084042E0,5.262308146E0,3.444308227E0,-2.712997550E0,6.849489170E0
6.071122042E0,3.303282157E0,3.195345479E-1,-5.262581211E0,6.221618466E0
6.081160042E0,1.730625998E0,-2.387032235E0,-6.183521769E0,6.850469378E0
6.091198042E0,1.137731780E0,-4.117146748E0,-6.326460464E0,7.633441750E0
6.101236042E0,1.344692662E0,-3.977459105E0,-6.130078218E0,7.430090056E0
6.111274042E0,6.640291053E-1,-2.414733419E0,-5.535114670E0,6.075307938E0
6.121312042E0,-4.647174042E-1,-1.177548541E0,-4.904195131E0,5.064949428E0
6.131350042E0,-5.991008918E-1,-7.754448760E-1,-4.535053098E0,4.639713702E0
6.141388042E0,-7.000738277E-1,-6.235687119E-1,-3.969644886E0,4.078850551E0
6.151426042E0,-9.025020947E-1,-7.199512911E-1,-3.099407873E0,3.307441467E0
6.161464042E0,-5.712460721E-1,-1.047768420E-1,-2.172018713E0,2.248325055E0
6.171502667E0,4.491106009E-1,4.608664280E-1,-1.225751233E0,1.384400332E0
6.181540667E0,1.913570612E0,5.542827147E-1,1.453967182E-1,1.997528978E0
6.191578667E0,2.854883747E0,3.162875891E-1,1.016790310E0,3.047008628E0
6.201616667E0,3.204471521E0,1.365354091E-1,6.306629924E-1,3.268794190E0
6.211654667E0,2.673048496E0,2.760219079E-1,3.000615656E-2,2.687429390E0
6.221692667E0,1.117066404E0,8.106369281E-1,-6.757533574E-1,1.536753780E0
6.231730667E0,5.535901120E-1,1.251418755E0,-1.364642339E0,1.932552619E0
6.241768667E0,1.743505222E-1,1.472182136E0,-1.476689755E0,2.092446171E0
6.251806667E0,-1.074546621E0,1.603721684E0,-1.420363526E0,2.396665648E0
6.261844667E0,-1.293367850E0,1.842923675E0,-1.876032364E0,2.930642506E0
6.271882667E0,-1.984216379E0,1.504446487E0,-1.344031050E0,2.829645443E0
6.281920667E0,-2.384761468E0,1.696621077E0,-7.411790228E-1,3.019098654E0
6.291958667E0,-1.878364526E0,1.619972266E0,-6.499203587E-1,2.564168463E0
6.301996667E0,-1.859905159E0,1.457938319E0,-4.674118378E-1,2.409005016E0
6.312034667E0,-1.758273827E0,1.142436596E0,3.122155881E-1,2.119944999E0
6.322072667E0,-1.658733751E0,1.065029401E0,1.173219262E0,2.293933024E0
6.332110667E0,-1.252766538E0,1.166674474E0,1.280691086E0,2.137924925E0
6.342148667E0,-8.286062989E-1,1.310993696E0,9.623335826E-1,1.825206507E0
6.352186667E0,-3.240354422E-1,1.923100696E0,6.325868726E-1,2.050239354E0
6.362224667E0,2.989698905E-1,2.533699114E0,4.800504848E-1,2.596047508E0
6.372262667E0,7.114359909E-1,2.741810290E0,7.221241895E-1,2.923205121E0
6.382300667E0,7.761503425E-1,2.801801553E0,1.641760161E0,3.338843771E0
6.392338667E0,9.022224516E-1,2.794164505E0,2.625217395E0,3.938670715E0
6.402376667E0,6.775870442E-1,2.183110004E0,3.364602492E0,4.067633639E0
6.412414667E0,5.990209311E-2,9.041684049E-1,3.861683650E0,3.966574010E0
6.422452667E0,-5.905114782E-1,-4.878928435E-1,4.172484212E0,4.242212599E0
6.432490667E0,-7.004748005E-1,-1.390263230E0,3.965559728E0,4.260183183E0
6.442528667E0,-5.429332691E-1,-1.856599728E0,2.922977496E0,3.505072971E0
6.452566667E0,-9.583124524E-1,-2.499974713E0,2.219336429E0,3.477598382E0
6.462604667E0,-2.215890664E0,-2.839862249E0,1.840932552E0,4.045246803E0
6.472642667E0,-4.234208882E0,-3.065838423E0,8.135039641E-1,5.290527270E0
6.482680667E0,-6.095924631E0,-3.434500692E0,8.021936949E-1,7.042698832E0
6.492718667E0,-6.743576270E0,-3.951219140E0,1.366820719E0,7.934491318E0
6.502756667E0,-5.986982233E0,-4.423363677E0,1.439964563E0,7.581794011E0
6.512794667E0,-4.728081673E0,-4.847220739E0,1.396944258E0,6.913881577E0
6.522832667E0,-2.620234398E0,-5.154124131E0,1.938907620E0,6.098359338E0
6.532870667E0,-4.430300814E-1,-4.823466425E0,3.293231378E0,5.857258481E0
6.542908667E0,1.318893870E0,-3.237317378E0,3.392383783E0,4.871136682E0
6.552946667E0,2.576825546E0,-1.924597583E0,3.526970900E0,4.773220032E0
6.562984667E0,2.929602099E0,-2.070746984E0,4.352273229E0,5.640287563E0
6.573022667E0,1.870542998E0,-2.088291555E0,4.636004691E0,5.417788499E0
6.583060667E0,-1.009742222E0,-2.541706291E0,2.697422322E0,3.841345781E0
6.593098667E0,-3.727962213E0,-3.710078797E0,1.047594465E0,5.362820257E0
6.603136667E0,-5.027136641E0,-4.591751209E0,4.152658935E-1,6.821196943E0
6.613174667E0,-3.763003992E0,-4.193578042E0,5.288631141E-1,5.659151176E0
6.623212667E0,-1.222848382E0,-2.510295634E0,1.583581535E0,3.210089222E0
6.633250667E0,8.878865406E-1,-1.395602322E0,2.759812113E0,3.217547397E0
6.643288667E0,3.461153763E0,1.242083091E-1,6.869531143E-1,3.530852257E0
6.653326667E0,4.145623565E0,4.689788550E-1,-2.827643323E0,5.040010186E0
6.663364667E0,3.906375381E0,-1.966012827E0,-3.374210052E0,5.523610099E0
6.673402667E0,4.987999472E0,-4.050007848E0,-1.191521047E0,6.534709229E0
6.683440667E0,5.156391097E0,-4.334373733E0,9.503297605E-1,6.802814965E0
6.693478667E0,4.539369512E0,-4.353915712E0,1.759844681E0,6.531424875E0
6.703516667E0,4.906756504E0,-4.475357119E0,1.005909373E0,6.716914053E0
6.713554667E0,5.310175792E0,-4.432889376E0,-4.534705773E-2,6.917407861E0
6.723592667E0,4.967720159E0,-3.638328198E0,-1.283045906E0,6.289823722E0
6.733630667E0,3.866566075E0,-2.482043642E0,-2.728505536E0,5.343745532E0
6.743668667E0,1.793833961E0,-1.505982551E0,-3.030364535E0,3.830004300E0
6.753706667E0,-7.619411699E-1,-9.677492738E-1,-2.074866056E0,2.412915695E0
6.763744667E0,-2.970190254E0,-8.972698599E-1,-2.450672891E0,3.953848880E0
6.773782667E0,-4.111521142E0,-1.931334161E0,-3.389714237E0,5.667876176E0
6.783820667E0,-3.492153654E0,-2.423018923E0,-3.208632400E0,5.325549711E0
6.793858667E0,-2.974313711E0,-1.587948820E0,-2.447939757E0,4.166597240E0
6.803896667E0,-1.868768953E0,-6.006008488E-1,-2.232739416E0,2.972901627E0
6.813934667E0,2.305666767E-1,7.874685055E-1,-2.215585147E0,2.362643686E0
6.823972667E0,1.192370209E0,2.240349568E0,-2.839289515E0,3.808211897E0
6.834010667E0,1.896615294E0,3.231915720E0,-3.577714791E0,5.180972102E0
6.844048667E0,2.570485702E0,4.034634349E0,-3.523880354E0,5.941666754E0
6.854086667E0,3.656877320E0,5.132718644E0,-3.783435918E0,7.350642133E0
6.864124667E0,4.139732788E0,6.297497451E0,-4.224342875E0,8.639498505E0
6.874162667E0,4.199004551E0,7.471185075E0,-4.626930690E0,9.739544817E0
6.884200667E0,3.939574994E0,8.039235059E0,-4.844202113E0,1.017918688E1
6.894238667E0,2.807901076E0,6.982435614E0,-4.742251815E0,8.895373396E0
6.904276667E0,1.247403472E0,5.463207366E0,-4.427567825E0,7.141848990E0
6.914314667E0,1.101034070E0,4.915474702E0,-4.084669558E0,6.485267378E0
6.924352667E0,1.563972312E0,5.115263536E0,-3.858827578E0,6.595641039E0
6.934390667E0,1.547263016E0,5.413061060E0,-3.522636066E0,6.641100642E0
6.944428667E0,1.122811439E0,5.419628652E0,-3.103978349E0,6.345688446E0
6.954466667E0,5.257907677E-1,5.476186430E0,-2.353715677E0,5.983732217E0
6.964504667E0,-4.375497054E-1,5.379776369E0,-1.196609002E0,5.528590836E0
6.974542667E0,-1.477641389E0,4.770294185E0,6.714790428E-1,5.038850542E0
6.984580667E0,-1.972004761E0,3.992643739E0,3.399013941E0,5.602080201E0
6.994618667E0,-2.088704076E0,2.519344785E0,6.014655350E0,6.847325160E0
7.004656667E0,-1.725831720E0,1.630770904E-1,6.350132332E0,6.582497239E0
7.014694667E0,-2.492282116E0,-3.110765505E0,6.242872177E0,7.406874185E0
7.024732667E0,-3.294719202E0,-8.117728667E0,6.766171666E0,1.106949738E1
7.034770667E0,-4.210151975E0,-1.232904599E1,6.387857398E0,1.450984069E1
7.044808667E0,-3.905713184E0,-1.231889055E1,3.649667119E0,1.342869055E1
7.054846667E0,-1.298224985E0,-7.410320238E0,1.846706824E0,7.746519233E0
7.064884667E0,-3.590083699E0,-2.906920457E0,1.886311185E0,4.989695121E0
7.074922667E0,-2.785466479E0,3.430021141E0,4.213646271E0,6.105627194E0
7.084960667E0,2.234359972E-1,6.783442587E0,6.267614086E0,9.238398308E0
7.094998667E0,9.543326182E-1,9.463385242E-1,3.693418910E0,3.930349933E0
7.105036667E0,2.177139705E0,-3.285716536E0,-3.172626123E-1,3.954304745E0
7.115074667E0,4.290064117E0,-3.468016348E0,-1.367197718E0,5.683398378E0
7.125112667E0,5.619016952E0,-3.659324965E0,-6.794458741E-1,6.739855889E0
7.135150667E0,3.488707013E0,-5.763758928E0,3.574663129E-1,6.746834500E0
7.145188667E0,-4.010364018E-1,-7.262266399E0,2.691292101E0,7.755281853E0
7.155226667E0,-1.057371448E0,-5.327992258E0,1.694164077E0,5.689967294E0
7.165264667E0,2.527485863E0,3.431380033E-1,-3.237974020E0,4.121941804E0
7.175302042E0,5.469500139E0,5.185433047E0,-6.525143005E0,9.969034000E0
7.185340042E0,7.642821904E0,6.381455866E0,-2.108684597E0,1.017753685E1
7.195378042E0,8.194193875E0,5.515068076E0,3.339432860E0,1.042653351E1
7.205416042E0,5.179978765E0,2.156564230E0,-2.014318722E0,5.961579421E0
7.215454042E0,1.858707064E0,-1.842814332E0,-6.406209469E0,6.920280079E0
7.225492042E0,4.248734535E-1,-4.595040268E0,-6.954463120E0,8.346224883E0
7.235530042E0,5.060085408E-1,-4.286924163E0,-6.595935245E0,7.882900809E0
7.245568042E0,-9.397644997E-3,-2.118884187E0,-6.097912100E0,6.455562756E0
7.255606042E0,-1.247379206E-1,-5.209541702E-1,-5.422776793E0,5.449170666E0
7.265644042E0,-2.196272671E-1,3.525485122E-1,-4.689366674E0,4.707726244E0
7.275682042E0,-4.121025498E-1,7.837262875E-1,-4.350681033E0,4.439873968E0
7.285720042E0,-4.110085358E-1,6.445537841E-1,-3.757195660E0,3.834174856E0
7.295758042E0,-1.461144640E-1,4.490801954E-1,-2.740956012E0,2.781341820E0
7.305796042E0,6.550584532E-1,4.118217373E-1,-1.597064775E0,1.774630840E0
7.315834042E0,1.752548964E0,1.491747504E-1,2.702412044E-1,1.779525579E0
7.325872042E0,2.952028803E0,1.220360684E-1,3.096369075E0,4.279821060E0
7.335910042E0,3.559159822E0,4.973454523E-1,3.881201071E0,5.289488906E0
7.345948042E0,3.074572117E0,7.507807356E-1,1.509377883E0,3.506406566E0
7.355986042E0,1.707687517E0,6.110129857E-1,-3.571017390E-1,1.848527841E0
7.366024042E0,1.047611861E0,6.121637177E-1,-1.072492787E0,1.619406004E0
7.376062042E0,-4.229985438E-1,9.307416612E-1,-1.430959120E0,1.758650565E0
7.386100042E0,-1.768658920E0,1.033580736E0,-1.893909788E0,2.789863401E0
7.396138042E0,-2.458493104E0,1.325676055E0,-2.136646859E0,3.516655392E0
7.406176042E0,-2.468432493E0,1.687716937E0,-1.568771707E0,3.376772438E0
7.416214042E0,-2.226295200E0,1.820542288E0,-7.442435485E-1,2.970633434E0
7.426252042E0,-2.297727710E0,1.425917212E0,-3.579794792E-1,2.727808980E0
7.436290042E0,-2.323417452E0,7.872474808E-1,-2.890875844E-1,2.470141470E0
7.446328042E0,-1.949985317E0,3.793112183E-1,7.020402828E-2,1.987774721E0
7.456366042E0,-1.646707198E0,4.163252628E-1,5.509217352E-1,1.785633243E0
7.466404042E0,-1.005032583E0,1.013091508E0,1.017821320E0,1.752827754E0
7.476442042E0,-5.627813503E-1,1.727714231E0,1.010803492E0,2.079289064E0
7.486480042E0,-2.840545204E-1,2.270226501E0,9.760289311E-1,2.487417900E0
7.496518042E0,1.183710337E-1,2.427732364E0,1.086230235E0,2.662290791E0
7.506556042E0,2.213790929E-1,2.322868983E0,1.264860334E0,2.654166664E0
7.516594042E0,4.026831239E-1,2.364250898E0,1.461309239E0,2.808426730E0
7.526632042E0,5.899323115E-1,2.165197059E0,1.923220564E0,2.955482325E0
7.536670042E0,9.658112141E-1,1.582767602E0,2.500675210E0,3.113088673E0
7.546708042E0,1.315520318E0,7.777861011E-1,3.357252542E0,3.688724652E0
7.556746042E0,9.545643872E-1,-9.159078598E-3,4.352431104E0,4.455887518E0
7.566784042E0,2.173336968E-1,-7.211634189E-1,4.462101481E0,4.525224883E0
7.576822042E0,-5.371217215E-1,-1.656751837E0,3.388988889E0,3.810324407E0
7.586860042E0,-1.673233676E0,-2.537806199E0,2.391347626E0,3.867649765E0
7.596898042E0,-3.077398369E0,-2.680788163E0,1.746161173E0,4.439153606E0
7.606936042E0,-4.965450854E0,-2.498683063E0,9.540656197E-1,5.639978763E0
7.616974042E0,-6.596211233E0,-2.599723535E0,4.704237020E-1,7.105621968E0
7.627012042E0,-7.153949068E0,-3.421666054E0,9.173464210E-1,7.983001334E0
7.637050042E0,-6.067021844E0,-4.239118497E0,1.954056587E0,7.654881896E0
7.647088042E0,-4.336495103E0,-5.043214729E0,2.984217725E0,7.290045268E0
7.657126042E0,-3.231699373E0,-5.985522768E0,1.804064834E0,7.037401052E0
7.667164042E0,-1.913794560E0,-5.948419846E0,1.054980083E0,6.337135887E0
7.677202042E0,1.047186622E0,-4.188436586E0,3.822381005E0,5.766298414E0
7.687240042E0,3.287982332E0,-2.711344543E0,6.931961864E0,8.137217727E0
7.697278042E0,3.850312862E0,-2.162713162E0,6.972394191E0,8.253273176E0
7.707316042E0,2.580235057E0,-2.153595014E0,4.320568457E0,5.473837431E0
7.717354042E0,3.371399295E-1,-2.577635677E0,2.986368331E0,3.959326309E0
7.727392042E0,-1.595167208E0,-3.154343634E0,2.824627329E0,4.524705706E0
7.737430042E0,-2.164079656E0,-2.829533728E0,2.809868957E0,4.537054709E0
7.747468042E0,-1.758037307E0,-2.242563908E0,2.587563665E0,3.849061415E0
7.757506042E0,-5.837991670E-1,-9.431436056E-1,1.194430622E0,1.630032465E0
7.767544042E0,8.747858539E-1,1.313509169E0,-2.108128234E0,2.633393491E0
7.777582042E0,-2.129658267E-1,8.776156139E-1,-6.092893435E0,6.159457283E0
7.787620042E0,4.275717974E-2,-2.736993354E0,-5.194910799E0,5.871972327E0
7.797658042E0,2.805983482E0,-4.466403862E0,2.187956176E0,5.710469244E0
7.807696042E0,4.389182609E0,-4.971196328E0,3.498584422E0,7.497853684E0
7.817734042E0,4.911030818E0,-5.834714890E0,1.888700942E0,7.856800417E0
7.827772042E0,5.953677077E0,-6.737359511E0,9.640421391E-1,9.042547272E0
7.837810042E0,6.905621327E0,-6.229932874E0,5.279316527E-1,9.315491472E0
7.847848042E0,6.631377558E0,-4.650478889E0,-3.490431064E-1,8.107031102E0
7.857886042E0,5.214670880E0,-2.761501958E0,-1.524867888E0,6.094580176E0
7.867924042E0,3.360555926E0,-1.435432971E0,-3.307723409E0,4.928979418E0
7.877962042E0,1.535111187E0,-6.941264784E-1,-4.304154738E0,4.622134348E0
7.888000042E0,3.728500450E-1,-4.354503357E-1,-2.541705122E0,2.605551588E0
7.898038042E0,-5.967374472E-1,-1.455699420E-1,-2.211038060E0,2.294771338E0
7.908076042E0,-2.263723520E0,-1.118870562E-1,-2.530923149E0,3.397430628E0
7.918114042E0,-4.356762429E0,-1.177669578E0,-3.151236716E0,5.504414350E0
7.928152042E0,-3.971630600E0,-1.944323750E0,-2.344569755E0,5.005122556E0
7.938190042E0,-2.148396985E0,-1.073569259E0,-2.326642484E0,3.343863904E0
7.948228042E0,1.870948210E-2,7.011600941E-1,-3.218004317E0,3.293558457E0
7.958266042E0,1.337185130E0,2.370552442E0,-4.082737345E0,4.906763412E0
7.968304042E0,2.115971397E0,3.760791113E0,-4.454387249E0,6.201810261E0
7.978342042E0,2.885460299E0,5.167703120E0,-4.458887267E0,7.410311217E0
7.988380042E0,2.794424998E0,6.024904935E0,-4.091472793E0,7.800541017E0
7.998418042E0,2.828713656E0,6.408140219E0,-4.452587184E0,8.300085219E0
8.008456042E0,2.982496012E0,6.931059639E0,-5.262357262E0,9.199308351E0
8.018494042E0,3.080154161E0,7.309272750E0,-5.552578549E0,9.682145750E0
8.028532042E0,2.885361773E0,7.238760592E0,-5.477228404E0,9.524967111E0
8.038570042E0,2.641032944E0,6.750343253E0,-5.158974397E0,8.897033543E0
8.048608042E0,2.490418316E0,6.282575356E0,-4.813568258E0,8.297190842E0
8.058646042E0,2.328520025E0,6.105605866E0,-4.448442970E0,7.905003059E0
8.068684042E0,1.751701410E0,5.971680070E0,-4.100029609E0,7.452493776E0
8.078722042E0,9.582811698E-1,5.755432493E0,-3.585339561E0,6.848208944E0
8.088760042E0,7.390827960E-1,5.814995155E0,-2.713270323E0,6.459276111E0
8.098798042E0,4.767088741E-1,5.484547949E0,-1.211029990E0,5.636852951E0
8.108836042E0,-3.755046078E-1,4.386834367E0,1.135093662E0,4.546840342E0
8.118874042E0,-9.911363091E-1,2.705028380E0,4.201586389E0,5.094394754E0
8.128912042E0,-8.330832195E-1,5.789813536E-1,6.586807741E0,6.664479220E0
8.138950042E0,-2.033015048E0,-2.944660141E0,7.567140223E0,8.370530729E0
8.148988042E0,-2.760944134E0,-8.800793383E0,7.703642887E0,1.201760752E1
8.159026042E0,-3.315248483E0,-1.490603555E1,9.407450777E0,1.793546483E1
8.169064083E0,-3.228462647E0,-1.675400362E1,6.569615173E0,1.828331075E1
8.179102083E0,-2.660061538E0,-1.251519093E1,2.985571940E0,1.313847675E1
8.189140083E0,-2.962646177E0,-5.558759056E0,2.689451398E0,6.849103841E0
8.199177083E0,-3.684287898E0,1.208553402E0,4.467831752E0,5.915750097E0
8.209215083E0,-3.182257949E0,5.893820300E0,5.845942129E0,8.890383724E0
8.219253083E0,-6.944309722E-1,7.179259910E0,4.807262913E0,8.667974616E0
8.229291083E0,1.668882178E0,4.872943225E0,9.215948617E-1,5.232597872E0
8.239329083E0,3.117697379E0,1.026924266E0,-3.293967542E0,4.650250806E0
8.249367083E0,5.234764252E0,-1.041721814E0,-4.773368651E0,7.160516000E0
8.259405083E0,6.640184049E0,-2.295926768E0,-2.994322883E0,7.637361681E0
8.269443083E0,3.592850017E0,-5.023549958E0,-4.800414947E-1,6.194761114E0
8.279481083E0,-7.968447351E-1,-8.876175102E0,3.706148006E0,9.651786312E0
8.289519083E0,-2.876851151E0,-9.565963531E0,6.272224030E0,1.179511446E1
8.299557083E0,8.366108447E-1,-4.012062927E0,2.429336840E0,4.764267427E0
8.309595083E0,5.703627332E0,4.583451671E0,-5.710527631E0,9.281676561E0
8.319633083E0,8.909963238E0,8.228963174E0,-3.523938534E0,1.263017904E1
8.329671083E0,9.769568258E0,7.831758306E0,4.163393546E0,1.319525475E1
8.339709083E0,6.157089431E0,4.773200836E0,-5.558667254E-1,7.810389510E0
8.349747083E0,2.207075987E0,1.177132219E-1,-6.243063966E0,6.622755355E0
8.359785083E0,3.648373130E-1,-3.338299962E0,-7.623845351E0,8.330688497E0
8.369823083E0,-3.745147473E-1,-4.632955953E0,-7.786055884E0,9.067921944E0
8.379861083E0,-8.115695590E-1,-3.567174016E0,-6.185970583E0,7.186766148E0
8.389899083E0,-2.014814566E-1,-1.312755463E0,-5.296642996E0,5.460617979E0
8.399937083E0,6.516941115E-2,-1.062474167E-1,-4.995445901E0,4.997000632E0
8.409975083E0,-1.548459649E-2,4.927337533E-1,-4.406847340E0,4.434335328E0
8.420013083E0,4.169824898E-2,4.404537982E-1,-3.429008695E0,3.457432418E0
8.430051083E0,1.109612958E-1,2.164288402E-1,-2.421238592E0,2.433423550E0
8.440089083E0,5.710221237E-1,2.201827526E-2,-1.465917429E0,1.573361046E0
8.450127083E0,1.368735974E0,-3.696574652E-1,-3.315669483E-1,1.456029344E0
8.460165083E0,2.524092431E0,-3.729400921E-1,8.897031243E-1,2.702165532E0
8.470203083E0,3.475625330E0,-3.323352724E-1,2.081897479E0,4.065060304E0
8.480241083E0,3.538404545E0,1.396484667E-1,2.109463007E0,4.121849415E0
8.490279083E0,2.137444858E0,5.092819583E-1,7.762471139E-1,2.330364395E0
8.500317083E0,5.424507277E-1,6.216864932E-1,-8.156379054E-1,1.160177607E0
8.510355083E0,-5.090238038E-1,8.167197865E-1,-1.541195068E0,1.816980650E0
8.520393083E0,-1.499885074E0,1.428960688E0,-2.276974187E0,3.078342953E0
8.530431083E0,-1.831304381E0,2.215567313E0,-2.722841338E0,3.959328126E0
8.540469083E0,-1.692205552E0,2.595404781E0,-2.387576026E0,3.911547633E0
8.550507083E0,-1.660319808E0,1.828137236E0,-1.964884899E0,3.155870765E0
8.560545083E0,-1.898330137E0,7.837280416E-1,-1.083116008E0,2.321858574E0
8.570583083E0,-1.493247461E0,9.004378814E-1,-4.405233800E-2,1.744281218E0
8.580621083E0,-1.211117991E0,9.158757001E-1,7.200126868E-1,1.680491998E0
8.590659083E0,-9.932470809E-1,9.154675645E-1,1.542479117E0,2.050332278E0
8.600697083E0,-1.008976383E0,9.712704670E-1,1.941060419E0,2.393557021E0
8.610735083E0,-1.139689427E0,8.198041928E-1,1.669185941E0,2.181089776E0
8.620773083E0,-5.787679303E-1,9.567547542E-1,1.254479188E0,1.680496953E0
8.630811083E0,-3.484271023E-1,1.381709338E0,1.002874668E0,1.742492393E0
8.640849083E0,-3.607012850E-1,1.785476536E0,9.508695316E-1,2.054795548E0
8.650887083E0,-2.632843333E-1,2.275293113E0,1.068383363E0,2.527393994E0
8.660925083E0,-3.400062346E-1,2.853487431E0,1.251609374E0,3.134409161E0
8.670963083E0,-2.341669536E-1,3.120143854E0,1.560847706E0,3.496623714E0
8.681001083E0,3.173587990E-1,2.752525313E0,2.252552268E0,3.570868791E0
8.691039083E0,8.454468647E-1,1.886098346E0,3.056531410E0,3.689787478E0
8.701077083E0,1.043753722E0,3.564673162E-1,3.582923491E0,3.748844025E0
8.711115083E0,7.853129295E-1,-1.483457907E0,3.466595474E0,3.851577332E0
8.721153083E0,3.512130082E-2,-2.868308369E0,3.235436329E0,4.323942026E0
8.731191083E0,-1.143875595E0,-3.766969866E0,3.192061683E0,5.068310482E0
8.741229083E0,-2.749437106E0,-3.868163534E0,2.828198808E0,5.524563515E0
8.751266083E0,-4.255713480E0,-3.315910388E0,2.402032828E0,5.905600785E0
8.761304083E0,-5.616317877E0,-2.963873507E0,2.551439567E0,6.843786710E0
8.771342083E0,-6.016527629E0,-3.153492864E0,2.590255723E0,7.269975699E0
8.781380083E0,-5.122497711E0,-3.838767827E0,1.718143508E0,6.627830591E0
8.791418083E0,-3.988268852E0,-4.467955129E0,5.840571754E-1,6.017477399E0
8.801456083E0,-2.151084804E0,-4.586078825E0,1.848524138E-2,5.065533193E0
8.811494083E0,5.541148996E-1,-4.431312967E0,8.302087283E-1,4.542336895E0
8.821532083E0,2.192407954E0,-4.192684003E0,3.584417747E0,5.935764683E0
8.831570083E0,3.222795525E0,-3.508370907E0,6.408873460E0,7.985532947E0
8.841608083E0,3.255672665E0,-2.769805589E0,7.363650101E0,8.514374335E0
8.851646083E0,1.752667809E0,-2.137653165E0,5.451252733E0,6.112083267E0
8.861684083E0,-7.909426287E-1,-2.528447145E0,2.759033556E0,3.825036127E0
8.871722083E0,-2.629068371E0,-3.411698306E0,2.027156138E0,4.760362154E0
8.881760083E0,-2.825129897E0,-3.896459965E0,2.512256497E0,5.429105995E0
8.891798083E0,-1.863422551E0,-3.313513615E0,2.966269112E0,4.821873964E0
8.901836083E0,-7.815540469E-1,-1.626912911E0,2.106291039E0,2.773830256E0
8.911874083E0,2.638629153E-1,1.059200896E0,-2.062839941E-1,1.110893002E0
8.921912083E0,2.417063534E-2,2.007387725E0,-4.547708226E0,4.971100463E0
8.931950083E0,-2.562551031E-1,-1.466171198E0,-5.954473468E0,6.137676999E0
8.941988083E0,1.799267778E0,-3.678340110E0,4.248575199E-1,4.116801479E0
8.952026083E0,3.893383160E0,-4.725574095E0,3.024688058E0,6.829218170E0
8.962064083E0,4.337306111E0,-5.393176433E0,1.936551046E0,7.186710395E0
8.972102083E0,4.891660162E0,-6.374976566E0,1.222320598E0,8.127898437E0
8.982140083E0,6.393184211E0,-6.078132724E0,6.687280740E-1,8.846677286E0
8.992178083E0,7.137529501E0,-4.519687784E0,1.155515063E-1,8.448979654E0
9.002216083E0,6.573075555E0,-2.777115194E0,-1.404492867E0,7.272571159E0
9.012254083E0,4.832446579E0,-1.565859209E0,-2.013781802E0,5.464409588E0
9.022292083E0,2.787301043E0,-1.004862136E0,-2.588618503E0,3.934430171E0
9.032330083E0,1.075667240E0,-5.248817450E-1,-3.461095583E0,3.662204731E0
9.042368083E0,-5.996932147E-1,1.452518535E-1,-3.277782449E0,3.335354230E0
9.052406083E0,-1.533325301E0,4.297463769E-1,-2.735338007E0,3.165097540E0
9.062444083E0,-3.058678508E0,2.104945010E-1,-2.755523765E0,4.122224323E0
9.072482083E0,-4.903650463E0,-8.984732169E-1,-3.068284606E0,5.853837408E0
9.082520083E0,-4.405498679E0,-1.269258025E0,-2.761707196E0,5.352238894E0
9.092558083E0,-2.071719230E0,-2.288424790E-1,-2.867237159E0,3.544776209E0
9.102596083E0,-2.169732890E-1,1.115641145E0,-3.011136551E0,3.218489693E0
9.112634083E0,1.054811976E0,2.882003133E0,-3.221629883E0,4.449434735E0
9.122672083E0,1.752454678E0,4.620209023E0,-4.488729116E0,6.675785938E0
9.132710083E0,1.999710916E0,5.839487972E0,-4.923174316E0,7.895321961E0
9.142747083E0,2.560565316E0,6.718826761E0,-4.626788895E0,8.550222410E0
9.152785083E0,3.272288698E0,7.392623640E0,-4.531773394E0,9.267994805E0
9.162823083E0,3.480750999E0,7.487083654E0,-4.502523283E0,9.404507700E0
9.172861417E0,3.080413778E0,7.209258465E0,-4.712838274E0,9.147305683E0
9.182899417E0,2.727993904E0,6.976648040E0,-4.911080520E0,8.957359013E0
9.192937417E0,2.424503385E0,6.770037260E0,-4.814114973E0,8.653746249E0
9.202975417E0,1.875701120E0,6.304318812E0,-4.318127829E0,7.868222056E0
9.213013417E0,8.323065631E-1,5.744025745E0,-3.783147358E0,6.928114455E0
9.223051417E0,-1.683577839E-1,5.546491597E0,-3.057033394E0,6.335405792E0
9.233089417E0,-4.473351670E-1,5.810855911E0,-2.292057665E0,6.262562057E0
9.243127417E0,-9.607305685E-1,5.792518458E0,-8.508947155E-1,5.932983662E0
9.253165417E0,-1.726416588E0,4.662682028E0,1.901856592E0,5.323361384E0
9.263203417E0,-1.732199192E0,2.647487100E0,4.534247351E0,5.528933082E0
9.273241417E0,-1.254507839E0,6.321196800E-1,6.282978230E0,6.438103808E0
9.283279417E0,-1.471505175E0,-2.087486978E0,6.910078075E0,7.366960592E0
9.293317417E0,-2.365526760E0,-7.470668766E0,6.296325084E0,1.005237873E1
9.303355417E0,-3.366775610E0,-1.432805466E1,7.993430895E0,1.674882879E1
9.313393417E0,-3.263418764E0,-1.691478334E1,6.007624658E0,1.824421419E1
9.323431417E0,-2.269386548E0,-1.266724661E1,3.204275639E0,1.326184883E1
9.333469417E0,-2.484657932E0,-5.998511188E0,2.856109031E0,7.093167156E0
9.343507417E0,-3.329050836E0,3.893374389E-1,4.274676877E0,5.432036958E0
9.353545417E0,-3.043019957E0,4.923459075E0,5.801138424E0,8.194731645E0
9.363583417E0,-7.924691905E-1,6.459982803E0,5.921343144E0,8.798959590E0
9.373621417E0,9.037248205E-1,4.013685529E0,2.643879368E0,4.890448670E0
9.383659417E0,2.481019794E0,2.732631916E-1,-2.061809515E0,3.237466675E0
9.393697417E0,4.398629370E0,-1.202448909E0,-4.088196891E0,6.124310372E0
9.403735417E0,4.076117128E0,-1.941684317E0,-5.594705983E0,7.189270051E0
9.413773417E0,1.677908525E0,-3.827238287E0,-5.647048504E0,7.025118272E0
9.423811417E0,1.947119889E-1,-5.248194721E0,-8.183833194E-1,5.315186906E0
9.433849417E0,1.102328862E0,-3.998289810E0,5.607648795E0,6.974752708E0
9.443887417E0,5.727388662E0,2.350761956E-1,4.224450172E0,7.120689641E0
9.453925417E0,1.003695851E1,3.822460527E0,1.428970628E0,1.083483722E1
9.463963417E0,1.076116189E1,4.860455911E0,3.587465023E0,1.234084852E1
9.474001417E0,6.752622498E0,4.170629475E0,4.232021731E-1,7.948028743E0
9.484039417E0,2.146027255E0,1.310151113E0,-5.611048366E0,6.148641532E0
9.494076417E0,-5.821112220E-1,-2.334964533E0,-7.687287641E0,8.055141471E0
9.504114417E0,-1.152322629E0,-5.069930073E0,-7.892873989E0,9.451428368E0
9.514152417E0,-8.161808194E-1,-5.024709461E0,-7.184628823E0,8.805268175E0
9.524190417E0,4.054634750E-2,-2.614605868E0,-6.268649043E0,6.792184382E0
9.534228417E0,5.393107729E-1,-3.158741909E-1,-5.372032902E0,5.408268680E0
9.544266417E0,3.234334713E-1,9.331103683E-1,-4.879750261E0,4.978681229E0
9.554304417E0,-6.989586174E-2,1.077957594E0,-4.150987508E0,4.289239478E0
9.564342417E0,-4.063453813E-1,4.544958866E-1,-3.046960103E0,3.107354011E0
9.574380417E0,-5.177076499E-1,-5.124341923E-1,-1.909590851E0,2.043807043E0
9.584418417E0,-1.561320600E-1,-1.400739686E0,-9.864936930E-1,1.720354235E0
9.594456417E0,1.025809933E0,-1.771434447E0,-2.557133585E-1,2.062923978E0
9.604494417E0,2.439653521E0,-1.689256509E0,8.136881514E-1,3.076944144E0
9.614532417E0,2.823811935E0,-9.825567627E-1,2.257738602E0,3.746560453E0
9.624570417E0,2.285074920E0,2.984547508E-1,2.324897382E0,3.273498200E0
9.634608417E0,1.535762274E0,1.003074642E0,1.230005228E0,2.208537381E0
9.644646417E0,5.167237097E-1,1.263634758E0,-8.096703833E-1,1.587243624E0
9.654684417E0,-7.713421771E-1,1.275763053E0,-2.250495071E0,2.699494061E0
9.664722417E0,-1.526489906E0,1.484689915E0,-2.300754667E0,3.134955760E0
9.674760417E0,-1.913927000E0,2.011342782E0,-2.065081033E0,3.460227741E0
9.684798417E0,-1.808071054E0,2.504239672E0,-1.455663752E0,3.414570871E0
9.694836417E0,-2.152203084E0,1.864700460E0,-1.616649878E0,3.274544663E0
9.704874417E0,-3.190742259E0,1.097442856E0,-2.059622657E0,3.953133247E0
9.714912417E0,-3.699359389E0,7.975935441E-1,-1.798889464E0,4.190157354E0
9.724950417E0,-2.530496010E0,7.603578901E-1,-4.138974988E-1,2.674484121E0
9.734988417E0,-9.003887647E-1,1.471123790E0,7.423975825E-1,1.877780420E0
9.745026417E0,-2.250777492E-1,1.904109524E0,1.242813993E0,2.284924440E0
9.755064417E0,1.667412481E-1,2.241706122E0,1.669778849E0,2.800216132E0
9.765102417E0,3.095217758E-1,2.682668043E0,1.853527601E0,3.275374196E0
9.775140417E0,3.047872853E-1,2.786171361E0,1.717838284E0,3.287341557E0
9.785177417E0,3.083888778E-1,2.581691891E0,1.485298172E0,2.994385977E0
9.795215417E0,2.601563653E-1,2.472391643E0,1.544477841E0,2.926741118E0
9.805253417E0,4.078927007E-1,2.445996142E0,1.782280447E0,3.053816821E0
9.815291417E0,1.061928914E0,2.247907094E0,1.924708242E0,3.144086694E0
9.825329417E0,1.639447879E0,1.591228523E0,2.535716404E0,3.413159129E0
9.835367417E0,1.866046489E0,5.561590862E-1,3.420213021E0,3.935644743E0
9.845405417E0,1.676253471E0,-8.586203492E-1,4.096014326E0,4.508257752E0
9.855443417E0,7.858640295E-1,-2.028661065E0,4.302025766E0,4.820837446E0
9.865481417E0,-4.138489670E-1,-3.006181036E0,3.596204857E0,4.705431411E0
9.875519417E0,-1.881729599E0,-3.871858975E0,2.995155526E0,5.244345034E0
9.885557417E0,-3.842797436E0,-4.010587674E0,1.897717202E0,5.869687914E0
9.895595417E0,-6.135660555E0,-3.907097805E0,1.109108197E0,7.358115567E0
9.905633417E0,-7.264399463E0,-3.558877986E0,1.497808582E0,8.226818500E0
9.915671417E0,-6.476257943E0,-3.166913393E0,2.420907494E0,7.604738686E0
9.925709417E0,-5.100068961E0,-3.757990882E0,1.735148381E0,6.568404584E0
9.935747417E0,-3.358081677E0,-4.915231458E0,-8.324490890E-2,5.953414361E0
9.945785417E0,-8.251391923E-1,-5.321763804E0,7.967638242E-1,5.443974400E0
9.955823417E0,2.171172621E0,-4.530973495E0,4.700778684E0,6.880481931E0
9.965861417E0,3.749042888E0,-4.214754903E0,7.296556810E0,9.222755703E0
9.975899417E0,4.119696718E0,-3.965106277E0,7.204094789E0,9.197442610E0
9.985937417E0,2.413892297E0,-3.369766168E0,5.060099734E0,6.541162692E0
9.995975417E0,-3.662877148E-1,-3.567352356E0,3.396702536E0,4.939408633E0
1.000601342E1,-2.490716817E0,-3.793367706E0,2.827154496E0,5.346598111E0
1.001605142E1,-3.099292683E0,-3.319599397E0,3.085147684E0,5.490308873E0
1.002608942E1,-2.681184312E0,-2.363928131E0,2.666764201E0,4.459656582E0
1.003612742E1,-1.471605308E0,-4.297528088E-1,7.265468773E-1,1.696519975E0
1.004616542E1,-7.757998019E-2,1.795768805E0,-1.652389230E0,2.441555737E0
1.005620342E1,-8.292760974E-1,1.491759784E0,-4.539070719E0,4.849351410E0
1.006624042E1,-3.078591201E-1,-1.307293578E0,-3.710652409E0,3.946230484E0
1.007627842E1,1.413994739E0,-2.863967396E0,2.234764892E-1,3.201817001E0
1.008631642E1,2.580050870E0,-4.380597142E0,3.317475103E0,6.070579451E0
1.009635442E1,3.620086640E0,-5.540375410E0,3.209443701E0,7.355359667E0
1.010639242E1,4.815484683E0,-5.780564411E0,1.477461002E0,7.667249093E0
1.011643042E1,5.631121273E0,-5.019983157E0,-2.922638650E-1,7.549514942E0
1.012646842E1,5.764880424E0,-3.585503283E0,-1.110697324E0,6.879195348E0
1.013650642E1,4.834314472E0,-2.275738086E0,-1.607367423E0,5.579714176E0
1.014654442E1,2.943743883E0,-1.672233510E0,-1.615562296E0,3.751271050E0
1.015658242E1,1.704037247E0,-1.435439402E0,-1.326478001E0,2.593023930E0
1.016662042E1,9.573840608E-1,-1.057395861E0,-2.446429567E0,2.831905343E0
1.017665817E1,-1.870313787E-1,-8.484514564E-1,-3.491832057E0,3.598297059E0
1.018669617E1,-2.547538304E-1,-8.206602252E-1,-2.653465586E0,2.789132900E0
1.019673417E1,-6.461377949E-1,-5.916651338E-1,-2.310073521E0,2.470627725E0
1.020677217E1,-1.180263988E0,-2.161505127E-1,-2.863628842E0,3.104853341E0
1.021681017E1,-1.957178123E0,-3.090235931E-1,-3.749250171E0,4.240627151E0
1.022684817E1,-5.874080685E-1,2.929747403E-1,-3.435511676E0,3.497659634E0
1.023688617E1,9.205658249E-1,1.988933328E0,-3.372513482E0,4.022082099E0
1.024692417E1,1.287353404E0,2.831745729E0,-3.119167077E0,4.405140851E0
1.025696217E1,1.494986423E0,3.833151577E0,-3.879068007E0,5.654662149E0
1.026700017E1,1.944930983E0,4.976835383E0,-4.342349335E0,6.885320959E0
1.027703817E1,2.446548412E0,5.803673776E0,-4.156177497E0,7.545994952E0
1.028707617E1,3.008231362E0,6.274619635E0,-4.249258153E0,8.153312354E0
1.029711417E1,3.308154057E0,6.235712847E0,-4.468504182E0,8.354371765E0
1.030715117E1,3.230244586E0,5.908495642E0,-4.728071440E0,8.227968181E0
1.031718917E1,2.804218792E0,5.525603004E0,-4.710984122E0,7.783913090E0
1.032722717E1,2.400674666E0,5.542458188E0,-4.382001643E0,7.462172607E0
1.033726517E1,2.105217490E0,5.805650135E0,-4.036171582E0,7.377546693E0
1.034730317E1,1.392329051E0,5.937568583E0,-3.772038525E0,7.170883871E0
1.035734117E1,5.207263481E-1,6.142713466E0,-3.240691221E0,6.964636692E0
1.036737917E1,1.642753311E-2,6.285513582E0,-2.325468655E0,6.701921763E0
1.037741717E1,-8.550752554E-1,5.756194970E0,-6.355709991E-1,5.853963164E0
1.038745517E1,-2.062530185E0,4.543784745E0,1.822638222E0,5.312440179E0
1.039749317E1,-2.537933083E0,2.894165341E0,4.141607697E0,5.654220696E0
1.040753117E1,-1.138591613E0,6.682975727E-1,5.407564092E0,5.566395775E0
1.041756917E1,-9.586479364E-1,-2.224027650E0,5.716774212E0,6.208607915E0
1.042760717E1,-2.987982162E0,-6.895969913E0,6.066416658E0,9.658356460E0
1.043764517E1,-4.551023598E0,-1.239435471E1,7.317684554E0,1.509570640E1
1.044768317E1,-3.847892407E0,-1.367256775E1,4.905497013E0,1.502695198E1
1.045772117E1,-2.215926186E0,-9.650935854E0,1.756162689E0,1.005658983E1
1.046775917E1,-1.693213758E0,-2.431755248E0,2.363798908E0,3.790508105E0
1.047779717E1,-8.481437467E-1,3.747541907E0,5.458022640E0,6.674835526E0
1.048783517E1,4.299589232E-1,3.419902534E0,6.840932996E0,7.660219466E0
1.049787317E1,1.328625683E0,-1.496241090E0,4.018867624E0,4.489463285E0
1.050791117E1,3.740555947E0,-3.479770421E0,9.321543485E-1,5.193214101E0
1.051794917E1,6.244086644E0,-3.192014905E0,-2.540071410E-1,7.017271322E0
1.052798717E1,5.415962448E0,-4.738154964E0,-3.204584080E-1,7.203155926E0
1.053802517E1,6.013229799E-1,-6.606866030E0,8.384673357E-1,6.686949643E0
1.054806217E1,-2.627775552E0,-5.887903503E0,1.450877514E0,6.608907441E0
1.055810017E1,9.095941094E-1,-1.369217931E0,-2.875695741E-1,1.668776632E0
1.056813817E1,5.095525090E0,4.849086000E0,-3.581351759E0,7.893294078E0
1.057817617E1,5.893301652E0,6.906622955E0,-5.962509881E0,1.086204258E1
1.058821417E1,6.021631079E0,5.186372695E0,-2.254861187E0,8.260926192E0
1.059825217E1,5.521555561E0,2.704070606E0,-5.589733511E-1,6.173493733E0
1.060829017E1,3.317701975E0,1.173401695E-1,-3.269038523E0,4.659133822E0
1.061832817E1,5.012040299E-1,-2.472766449E0,-5.777972925E0,6.304819626E0
1.062836617E1,-7.509845111E-1,-4.596425473E0,-6.720558706E0,8.176613858E0
1.063840417E1,-6.450671697E-1,-4.667259813E0,-6.894669492E0,8.350801951E0
1.064844217E1,-5.315301754E-1,-2.935879378E0,-5.695269907E0,6.429464313E0
1.065848017E1,-3.167929347E-1,-1.051809431E0,-4.568154185E0,4.698371367E0
1.066851817E1,-8.098686039E-1,-6.941755950E-2,-3.671595055E0,3.760494143E0
1.067855617E1,-1.194836565E0,5.610578835E-2,-1.772487238E0,2.138338908E0
1.068859417E1,-5.605482987E-1,2.426401538E-1,7.001806855E-2,6.148098643E-1
1.069863217E1,7.795203853E-1,6.684864378E-1,3.935181981E-1,1.099719383E0
1.070867017E1,2.008230894E0,4.175449920E-1,-8.856836021E-2,2.053090231E0
1.071870817E1,3.018537957E0,-3.672051430E-3,-2.834923106E-1,3.031823341E0
1.072874617E1,3.191602092E0,-1.259250516E-1,-3.779084712E-2,3.194308873E0
1.073878417E1,2.536196752E0,6.622965753E-2,-4.974825695E-2,2.537549058E0
1.074882217E1,1.832486395E0,3.564170301E-1,-1.444028378E-1,1.872402646E0
1.075886017E1,1.081131902E0,8.419370735E-1,-4.483212268E-1,1.441768410E0
1.076889817E1,4.671122776E-1,1.248114493E0,-6.860612677E-1,1.498887498E0
1.077893517E1,-6.240426287E-1,1.586495202E0,-8.546435116E-1,1.907042674E0
1.078897317E1,-1.336562255E0,1.385284910E0,-1.116921539E0,2.225517169E0
1.079901117E1,-2.019158170E0,1.121212957E0,-1.240031887E0,2.621411317E0
1.080904917E1,-2.406959253E0,1.055924116E0,-1.068938922E0,2.837438811E0
1.081908717E1,-2.508053226E0,1.129780297E0,-6.601043811E-1,2.828864136E0
1.082912517E1,-2.256100797E0,9.520565164E-1,-1.559627100E-1,2.453716932E0
1.083916317E1,-2.334791164E0,7.640281874E-1,3.088060766E-1,2.475954370E0
1.084920117E1,-2.409426486E0,9.683661550E-1,8.068379921E-1,2.719201454E0
1.085923917E1,-1.856393029E0,1.661792722E0,9.182753974E-1,2.655368116E0
1.086927717E1,-1.090705109E0,2.156707487E0,8.270810527E-1,2.554425158E0
1.087931517E1,-8.909738705E-1,2.176471660E0,2.236659390E-1,2.362390691E0
1.088935317E1,-8.831570202E-1,2.043219463E0,-6.257818830E-1,2.312209995E0
1.089939117E1,-9.529873931E-1,2.161274162E0,-8.851374722E-1,2.522451054E0
1.090942917E1,-7.979943708E-1,2.464730621E0,-8.162420690E-1,2.716236949E0
1.091946717E1,-4.312532043E-1,2.623993573E0,-5.375533191E-1,2.712984550E0
1.092950517E1,-2.477906737E-1,2.800040957E0,3.547365403E-1,2.833278594E0
1.093954317E1,2.883773670E-1,2.861189384E0,1.736295751E0,3.359209599E0
1.094958117E1,1.699941711E0,2.327045065E0,3.358575182E0,4.425490685E0
1.095961917E1,3.073952897E0,1.230332526E0,5.557758597E0,6.469280111E0
1.096965717E1,3.129160553E0,-4.346498519E-1,6.436287546E0,7.169823124E0
1.097969517E1,1.942282780E0,-2.004322615E0,5.536453682E0,6.200168620E0
1.098973317E1,2.665494186E-1,-2.579688050E0,3.814046384E0,4.612243364E0
1.099977017E1,-1.134791069E0,-2.666685264E0,2.352762873E0,3.732888185E0
1.100980817E1,-3.155485303E0,-2.789573856E0,1.623494482E0,4.513817024E0
1.101984617E1,-5.227820098E0,-3.064018185E0,7.270080033E-1,6.103019831E0
1.102988417E1,-6.529820777E0,-3.466228854E0,-4.529852584E-2,7.392925930E0
1.103992217E1,-6.111976408E0,-3.870214153E0,-6.876808003E-2,7.234607263E0
1.104996017E1,-4.716092250E0,-4.058779256E0,4.731239462E-1,6.240117101E0
1.105999817E1,-2.793483304E0,-4.160961104E0,1.325891379E0,5.184123285E0
1.107003617E1,-1.109162138E0,-4.434292123E0,2.068517149E0,5.017165582E0
1.108007417E1,1.801822427E-1,-4.324643381E0,2.624853406E0,5.062100495E0
1.109011217E1,1.078585001E0,-3.597885346E0,4.964673175E0,6.225440089E0
1.110015017E1,1.664766323E0,-3.223130279E0,6.803151212E0,7.709921019E0
1.111018817E1,1.481724207E0,-3.035020089E0,5.773932499E0,6.689181569E0
1.112022617E1,-1.372414604E-1,-3.052181082E0,3.800308936E0,4.876165766E0
1.113026417E1,-1.953059490E0,-3.792217559E0,2.615412784E0,5.003572665E0
1.114030217E1,-2.857829574E0,-4.000140454E0,2.013259353E0,5.312393693E0
1.115034017E1,-2.688449185E0,-3.336530594E0,2.270258953E0,4.849151590E0
1.116037817E1,-2.218790883E0,-2.389103903E0,2.024527084E0,3.837910937E0
1.117041617E1,-9.937366390E-1,-6.153194600E-1,2.190964130E-1,1.189173572E0
1.118045467E1,2.057942167E-1,3.463457859E-1,-2.136258019E0,2.173914669E0
1.119049267E1,2.777085373E-1,-7.517928886E-1,-2.863225969E0,2.973277237E0
1.120053067E1,8.494943073E-1,-1.982839360E0,7.528640985E-1,2.284753128E0
1.121056767E1,2.188512831E0,-2.884963578E0,2.530738084E0,4.417831879E0
1.122060567E1,3.366044708E0,-3.493428932E0,5.686609815E-1,4.884432207E0
1.123064367E1,3.973188591E0,-4.043489372E0,-2.756775435E-1,5.675564464E0
1.124068167E1,4.463158073E0,-4.285338398E0,1.443677545E-1,6.189082906E0
1.125071967E1,4.984749005E0,-3.927855420E0,-1.828101276E-1,6.348951912E0
1.126075767E1,5.043351554E0,-3.391746436E0,-1.347094991E0,6.225271376E0
1.127079567E1,4.664299660E0,-2.497053444E0,-2.059357047E0,5.677316150E0
1.128083367E1,3.069655193E0,-1.739701608E0,-1.707010848E0,3.919595735E0
1.129087167E1,9.879566664E-1,-1.843039450E0,-1.000259354E0,2.318053400E0
1.130090967E1,-6.582109796E-1,-2.681907905E0,-6.997083767E-1,2.848765262E0
1.131094767E1,-9.757402249E-1,-2.596412841E0,-1.393239609E0,3.103956384E0
1.132098567E1,-1.763523895E0,-1.853282602E0,-2.590511831E0,3.640799978E0
1.133102367E1,-1.471226847E0,-1.571567845E0,-2.510818082E0,3.307346576E0
1.134106167E1,-2.706458317E-1,-6.833991766E-1,-2.619337435E0,2.720516899E0
1.135109967E1,2.720318411E-1,5.821856278E-1,-3.220068969E0,3.283562942E0
1.136113767E1,1.058233474E0,1.707633723E0,-3.510788438E0,4.044935905E0
1.137117567E1,2.084526825E0,3.197555727E0,-3.967237295E0,5.505323466E0
1.138121367E1,3.592546254E0,6.068806999E0,-3.556660722E0,7.898521537E0
1.139125167E1,4.453126297E0,7.577610247E0,-4.348891200E0,9.806292141E0
1.140128967E1,1.252871203E0,3.259008794E0,-4.280311839E0,5.523757236E0
1.141132667E1,-1.757898728E0,8.586145020E-1,-3.340286261E0,3.871038505E0
1.142136467E1,-1.020736011E0,1.619029110E0,-2.997697311E0,3.556591969E0
1.143140267E1,1.862669430E0,3.710183462E0,-3.441413856E0,5.392432480E0
1.144144067E1,3.638581675E0,5.568807496E0,-3.900320589E0,7.711251146E0
1.145147867E1,3.993318508E0,6.245110492E0,-3.965404485E0,8.406689627E0
1.146151667E1,3.757142743E0,6.091122313E0,-4.035854663E0,8.216204445E0
1.147155467E1,2.947517676E0,5.949931351E0,-4.248458839E0,7.882826018E0
1.148159267E1,1.901710850E0,5.850915771E0,-4.045916844E0,7.363366256E0
1.149163067E1,9.399847204E-1,5.982117934E0,-3.242829840E0,6.869152177E0
1.150166867E1,1.129954690E-1,5.932508987E0,-2.511079161E0,6.443054354E0
1.151170667E1,-2.090636142E-1,5.814751911E0,-1.532098263E0,6.016840738E0
1.152174467E1,-8.008793870E-1,5.399834073E0,2.831221819E-2,5.458975856E0
1.153178267E1,-1.417752452E0,4.350270558E0,2.192199501E0,5.073520927E0
1.154182067E1,-1.889079841E0,3.071281596E0,3.719647473E0,5.180460463E0
1.155185867E1,-2.852695718E0,1.474211120E0,4.858218766E0,5.823526498E0
1.156189667E1,-3.667337404E0,-1.022380394E0,6.188027633E0,7.265418866E0
1.157193467E1,-5.239753096E0,-5.850182530E0,7.581020343E0,1.091565470E1
1.158197267E1,-6.457849154E0,-1.144582407E1,7.265157847E0,1.501643176E1
1.159201067E1,-4.068640001E0,-1.190348096E1,3.136424549E0,1.296471555E1
1.160204767E1,5.782394882E-1,-5.867739379E0,-4.900071967E-1,5.916488264E0
1.161208567E1,-1.292234659E0,-2.863189716E0,1.613228672E0,3.531321639E0
1.162212367E1,-7.484414985E0,-1.711898682E0,6.200668144E0,9.868908258E0
1.163216167E1,-7.832703216E0,-1.528128880E-1,7.716480449E0,1.099630220E1
1.164219967E1,-1.923194836E0,-4.501362026E-1,4.812302336E0,5.201879925E0
1.165223767E1,2.256433211E0,-2.723336597E0,-2.351226810E-1,3.544479614E0
1.166227567E1,6.379577156E0,-2.840922934E0,-3.666331683E0,7.887447991E0
1.167231367E1,9.236706818E0,-1.815481523E0,-2.973465572E0,9.871890574E0
1.168235167E1,6.968960121E0,-2.662733715E0,-1.247298222E0,7.563881865E0
1.169238967E1,2.486443964E0,-4.745141802E0,1.397646801E0,5.536442078E0
1.170242767E1,-4.790631093E-2,-4.554312657E0,3.847571980E0,5.962203362E0
1.171246567E1,1.645659377E0,-1.007142550E0,2.542002161E0,3.191285930E0
1.172250367E1,6.401144611E0,4.453952801E0,-1.013879712E0,7.863860372E0
1.173254167E1,7.322351217E0,6.283036117E0,-2.977165398E0,1.009737015E1
1.174257967E1,6.116469993E0,4.781005699E0,3.628562763E-1,7.771800650E0
1.175261767E1,3.510640211E0,2.072031618E0,-4.565962064E-1,4.101998271E0
1.176265567E1,-2.033220139E-1,-1.779142247E0,-6.362066499E0,6.609279621E0
1.177269367E1,-1.609654562E0,-4.657320716E0,-7.723894134E0,9.161886523E0
1.178273167E1,-9.864194334E-1,-4.891959540E0,-7.309136510E0,8.850297620E0
1.179276867E1,1.137336069E-1,-3.017425817E0,-8.001493621E0,8.552291743E0
1.180280667E1,8.502206777E-1,-5.870370626E-1,-6.243057534E0,6.327974011E0
1.181284467E1,8.618735938E-1,2.597502762E-1,-2.983154701E0,3.116008387E0
1.182288267E1,3.096856441E-1,-3.254846746E-1,-6.195452428E-1,7.652984904E-1
1.183292067E1,2.709034015E-1,-8.227102590E-1,5.264248252E-2,8.677626715E-1
1.184295867E1,8.018719518E-1,-3.432888615E-1,-4.252697486E-1,9.704124013E-1
1.185299667E1,1.365690452E0,-1.810064077E-1,-1.065481390E0,1.741586726E0
1.186303467E1,1.997403312E0,-3.744948667E-1,-1.355144268E0,2.442597466E0
1.187307267E1,2.508752553E0,-3.210290962E-1,-1.019986690E0,2.727136209E0
1.188311067E1,2.511469755E0,9.434657872E-2,-2.124277367E-1,2.522202836E0
1.189314867E1,2.084946363E0,6.991913366E-1,-2.273805289E-1,2.210785328E0
1.190318667E1,1.425787111E0,1.212281002E0,-5.726698691E-1,1.957152241E0
1.191322467E1,7.012495565E-1,1.357000759E0,-1.310811410E0,2.012816075E0
1.192326267E1,-4.051301837E-2,1.320286676E0,-2.021934574E0,2.415164101E0
1.193330067E1,-8.267544857E-1,1.236226519E0,-1.915483528E0,2.425047656E0
1.194333867E1,-1.196839236E0,1.252435001E0,-1.301246388E0,2.166624045E0
1.195337667E1,-1.499328127E0,1.462162347E0,-8.164046216E-1,2.247758899E0
1.196341467E1,-1.715971560E0,1.505872039E0,-7.030610240E-1,2.388828959E0
1.197345267E1,-1.739617700E0,1.644025957E0,9.514406584E-2,2.395442231E0
1.198348967E1,-2.593017363E0,1.263295619E0,1.717472687E-1,2.889489919E0
1.199352767E1,-3.442408759E0,7.926777899E-1,-1.687933649E-1,3.536524755E0
1.200356567E1,-3.358187219E0,1.069210745E0,-7.249717104E-1,3.598085185E0
1.201360367E1,-2.242882289E0,1.715868942E0,-1.228865460E0,3.079746338E0
1.202364167E1,-1.044295759E0,1.890667945E0,-8.917787397E-1,2.336760200E0
1.203367967E1,-7.580739677E-2,2.130331281E0,-3.151076210E-1,2.154843601E0
1.204371767E1,3.048059964E-1,2.361835998E0,2.087023659E-1,2.390550701E0
1.205375567E1,2.574201608E-1,2.533058844E0,7.549410295E-1,2.655670952E0
1.206379367E1,4.851563466E-1,2.605722778E0,1.519035290E0,3.054936348E0
1.207383167E1,9.663143671E-1,2.438250920E0,2.274888486E0,3.471879697E0
1.208386967E1,1.394361835E0,2.332937304E0,2.712702266E0,3.839999346E0
1.209390767E1,1.682519055E0,2.214555745E0,3.285106087E0,4.304305928E0
1.210394567E1,2.022047864E0,1.640798879E0,4.185608872E0,4.929525348E0
1.211398367E1,1.501036684E0,2.688222313E-1,4.561950874E0,4.810069885E0
1.212402167E1,4.718948615E-1,-8.607218385E-1,3.882561718E0,4.004723753E0
1.213405967E1,-4.755774379E-2,-1.278151640E0,2.939250298E0,3.205483687E0
1.214409767E1,-6.180913326E-1,-1.832417983E0,2.816640033E0,3.416614352E0
1.215413567E1,-2.148728961E0,-2.716015298E0,2.910484335E0,4.523792028E0
1.216417267E1,-4.282355441E0,-3.253424118E0,1.849049803E0,5.687031017E0
1.217421058E1,-6.435946069E0,-3.845047737E0,4.835625418E-1,7.512631139E0
1.218424858E1,-7.659698138E0,-4.671222471E0,1.120017786E0,9.041334790E0
1.219428658E1,-6.476873070E0,-5.066530502E0,3.010803845E0,8.756971844E0
1.220432458E1,-4.451990768E0,-5.204894335E0,3.278773552E0,7.593517159E0
1.221436258E1,-3.177201861E0,-5.508030952E0,1.826810503E0,6.615909102E0
1.222440058E1,-1.456605446E0,-5.384339536E0,2.532951548E0,6.126063598E0
1.223443858E1,1.262995657E-1,-4.962241902E0,5.732962228E0,7.583314064E0
1.224447658E1,9.362473994E-1,-4.616898329E0,7.198570340E0,8.603006702E0
1.225451458E1,1.419381779E0,-3.480699543E0,6.107209758E0,7.171326584E0
1.226455258E1,4.450304139E-1,-2.242095546E0,2.863327711E0,3.663835434E0
1.227459058E1,-1.131857521E0,-2.096722655E0,1.435314711E0,2.781631834E0
1.228462858E1,-2.029557151E0,-2.798621253E0,2.906910517E0,4.516803283E0
1.229466658E1,-1.874269429E0,-2.775951598E0,3.534156543E0,4.869194557E0
1.230470458E1,-1.242333351E0,-2.304430958E0,2.881077518E0,3.892865508E0
1.231474258E1,1.525822154E-1,-1.289447291E0,8.207689834E-1,1.536104610E0
1.232478058E1,1.725275650E0,7.662162155E-1,-3.262615356E0,3.769392832E0
1.233481858E1,1.136613061E0,-1.148475015E-1,-6.394163035E0,6.495413776E0
1.234485658E1,1.958843556E0,-3.412057909E0,-5.688264942E0,6.916325998E0
1.235489358E1,4.260528369E0,-4.515438028E0,-2.201642169E0,6.586995583E0
1.236493158E1,4.478581858E0,-5.662705008E0,4.464267874E0,8.488439852E0
1.237496958E1,4.808779973E0,-6.579966499E0,5.368733318E0,9.759283857E0
1.238500758E1,6.155417127E0,-6.887145880E0,2.172473919E0,9.489024255E0
1.239504558E1,6.780809001E0,-5.765511339E0,-8.872671743E-1,8.944704285E0
1.240508358E1,5.849365674E0,-3.619279139E0,-2.067830539E0,7.182630675E0
1.241512158E1,3.978517451E0,-1.973476213E0,-2.156619340E0,4.937025060E0
1.242515958E1,1.963220782E0,-1.588223054E0,-1.671936618E0,3.028540963E0
1.243519758E1,8.690722471E-1,-1.014860875E0,-1.721211835E0,2.178944549E0
1.244523558E1,3.529597177E-1,-3.807215667E-1,-3.612143197E0,3.649261288E0
1.245527358E1,-4.691229889E-1,-7.918650270E-2,-4.626703525E0,4.651100127E0
1.246531158E1,-1.641925929E0,7.523670852E-2,-3.320558632E0,3.705089871E0
1.247534958E1,-2.649247112E0,-3.169705439E-1,-3.239487280E0,4.196815271E0
1.248538758E1,-2.191508360E0,-2.833619177E-2,-2.945830462E0,3.671706543E0
1.249542558E1,-1.595057280E0,5.030885875E-1,-3.154043671E0,3.570055649E0
1.250546358E1,-8.044281352E-1,1.237229902E0,-3.832634098E0,4.106936399E0
1.251550158E1,3.539416113E-1,3.176751918E0,-3.537991732E0,4.768061756E0
1.252553858E1,1.029168354E0,4.349239109E0,-3.895437287E0,5.928701374E0
1.253557658E1,1.642233054E0,5.153286225E0,-4.141206286E0,6.811965783E0
1.254561458E1,2.531727726E0,6.086270878E0,-4.397743517E0,7.924171031E0
1.255565258E1,3.425901485E0,7.096384984E0,-4.844811978E0,9.250280208E0
1.256569058E1,3.830481445E0,7.673684678E0,-5.453949469E0,1.016383734E1
1.257572858E1,3.870291629E0,7.699752735E0,-5.751658115E0,1.036083590E1
1.258576658E1,3.581812228E0,7.429589152E0,-5.722898585E0,1.003891140E1
1.259580458E1,3.284405590E0,7.197938840E0,-5.329214326E0,9.539296041E0
1.260584258E1,2.529309610E0,6.949523976E0,-4.884755478E0,8.863076592E0
1.261588058E1,1.660390121E0,6.405148784E0,-4.255476667E0,7.867141029E0
1.262591858E1,1.207320151E0,6.227054290E0,-3.519073358E0,7.253806199E0
1.263595658E1,7.819916379E-1,6.339434266E0,-2.650099052E0,6.915414862E0
1.264599458E1,-5.964817777E-2,6.002622365E0,-9.100954351E-1,6.071516027E0
1.265603258E1,-9.474050564E-1,4.933758361E0,1.883791912E0,5.365465485E0
1.266607058E1,-1.305582975E0,3.174120086E0,5.384469345E0,6.385303074E0
1.267610858E1,-8.341937520E-1,7.043269461E-1,7.422909293E0,7.502768691E0
1.268614658E1,-1.632835994E0,-2.478007309E0,7.137025471E0,7.729411762E0
1.269618358E1,-3.275588574E0,-8.452203435E0,7.020268269E0,1.146531247E1
1.270622158E1,-3.880228679E0,-1.586653896E1,8.959005005E0,1.862973440E1
1.271625958E1,-4.192860004E0,-1.866089993E1,5.215401782E0,1.982447167E1
1.272629758E1,-3.028018925E0,-1.360400213E1,1.611848437E0,1.402981924E1
1.273633558E1,-2.826535860E0,-5.786114003E0,2.575666335E0,6.935594949E0
1.274637358E1,-3.839504576E0,1.773857533E0,5.841101804E0,7.211576542E0
1.275641158E1,-3.383856788E0,6.892854517E0,7.954825239E0,1.105627309E1
1.276644958E1,-1.028990745E0,7.297272509E0,5.543892510E0,9.221916948E0
1.277648758E1,9.775008946E-1,3.340344733E0,-6.594027883E-1,3.542347099E0
1.278652558E1,3.713578063E0,-6.339960515E-2,-4.269083723E0,5.658600301E0
1.279656358E1,6.434765516E0,-1.382443748E0,-5.172254593E0,8.370757166E0
1.280660158E1,5.925741420E0,-2.884035625E0,-3.496249336E0,7.460283660E0
1.281663958E1,2.179800772E0,-7.346943437E0,-1.944462329E-2,7.663516645E0
1.282667758E1,-2.233051073E0,-1.106377518E1,6.438014814E0,1.299390908E1
1.283671558E1,-3.141103199E0,-8.500458167E0,4.246009440E0,1.000764281E1
1.284675358E1,4.791854038E0,9.061973888E-1,-2.161789302E0,5.334453282E0
1.285679158E1,9.496316176E0,8.793254567E0,-3.841527128E0,1.350032138E1
1.286682858E1,1.027853271E1,9.683518878E0,2.445649402E0,1.433178194E1
1.287686658E1,6.597387693E0,6.759188336E0,-4.110487354E-1,9.454158471E0
1.288690458E1,1.788620291E0,1.669378899E0,-7.235662737E0,7.638115193E0
1.289694258E1,-1.515454894E0,-3.378760940E0,-8.775190179E0,9.524525800E0
1.290698058E1,-1.157686719E0,-5.688998183E0,-9.010715441E0,1.071904528E1
1.291701858E1,4.845657778E-1,-4.650739675E0,-7.756104691E0,9.056563559E0
1.292705658E1,9.029333268E-1,-2.289407707E0,-6.282694055E0,6.747512195E0
1.293709458E1,9.423369822E-1,-7.735012615E-1,-5.231319072E0,5.371499085E0
1.294713258E1,6.323228708E-1,-3.351618165E-1,-4.102612031E0,4.164563739E0
1.295717058E1,4.218868420E-2,-4.848669094E-1,-2.684209076E0,2.727976204E0
1.296720858E1,-1.362806167E-1,-4.380272037E-1,-8.436330584E-1,9.602900472E-1
1.297724658E1,9.278962599E-1,6.047541261E-2,1.519771893E0,1.781672067E0
1.298728458E1,2.091533836E0,1.325949705E-1,2.552903125E0,3.302939536E0
1.299732258E1,2.493041670E0,-1.356431240E-1,1.153546159E0,2.750331719E0
1.300736058E1,2.467027407E0,-2.361503291E-1,4.176005405E-1,2.513241218E0
1.301739858E1,2.145837366E0,-5.105905652E-2,2.615002017E-1,2.162315284E0
1.302743658E1,1.644434093E0,3.510422695E-1,-2.151839679E-1,1.695198602E0
1.303747358E1,6.604706360E-1,8.195007223E-1,-1.003478246E0,1.454225390E0
1.304751158E1,-2.962428953E-1,1.423709303E0,-2.300000523E0,2.721159760E0
1.305754958E1,-9.662594032E-1,1.590049140E0,-2.705853422E0,3.283832554E0
1.306758758E1,-1.689290277E0,1.789491234E0,-2.198152551E0,3.299675007E0
1.307762558E1,-2.271384980E0,1.961458431E0,-1.689055365E0,3.443750416E0
1.308766358E1,-2.735064650E0,1.987147003E0,-1.086785209E0,3.551117281E0
1.309770158E1,-3.100523230E0,1.601095115E0,-2.620517768E-1,3.499345796E0
1.310773958E1,-2.404378000E0,1.720777679E0,6.111843091E-1,3.019214409E0
1.311777758E1,-1.655608122E0,1.515871947E0,1.067816768E0,2.485787333E0
1.312781558E1,-1.248748916E0,9.437745202E-1,1.369864633E0,2.080051277E0
1.313785358E1,-6.641238302E-1,1.147309080E0,1.219609902E0,1.801340307E0
1.314789158E1,-1.457330793E-1,1.621295491E0,9.881829536E-1,1.904295867E0
1.315792958E1,-6.392345721E-1,1.998645553E0,1.001949638E0,2.325318895E0
1.316796758E1,-7.998239645E-1,2.343436564E0,8.986071181E-1,2.634180718E0
1.317800492E1,-7.630294830E-1,2.641437571E0,1.037600039E0,2.938710648E0
1.318804292E1,-5.879764178E-1,2.683408885E0,1.240713673E0,3.014261092E0
1.319807992E1,-3.661011887E-1,2.416189376E0,1.830863793E0,3.053532939E0
1.320811792E1,1.671324268E-1,1.694407321E0,3.216189634E0,3.639069274E0
1.321815592E1,6.278845417E-1,5.676938885E-1,4.524525186E0,4.603025473E0
1.322819392E1,4.286421302E-1,-4.720194072E-1,4.634810690E0,4.678461983E0
1.323823192E1,-5.492903620E-2,-1.263847012E0,3.517599567E0,3.738159063E0
1.324826992E1,-6.308411863E-1,-1.901687608E0,2.815730206E0,3.455823050E0
1.325830792E1,-2.160444442E0,-2.330766233E0,2.822238157E0,4.250296417E0
1.326834592E1,-4.769436691E0,-2.609148077E0,2.002703813E0,5.793617401E0
1.327838392E1,-6.758818792E0,-3.073405305E0,9.306286637E-1,7.482881888E0
1.328842192E1,-8.024936863E0,-4.163823316E0,4.415570216E-1,9.051630177E0
1.329845992E1,-8.136522202E0,-4.948372892E0,6.662912469E-1,9.546377944E0
1.330849792E1,-7.105432380E0,-5.220361975E0,7.411018395E-1,8.848083431E0
1.331853592E1,-5.752186704E0,-5.723475705E0,1.285201482E0,8.215690408E0
1.332857392E1,-2.680622687E0,-6.152214022E0,2.866268860E0,7.297326397E0
1.333861192E1,6.072374386E-1,-5.891522344E0,4.379674451E0,7.366160543E0
1.334864992E1,2.443031019E0,-5.026705116E0,5.769439498E0,8.032595907E0
1.335868792E1,3.180650549E0,-3.523401175E0,6.238843446E0,7.839264079E0
1.336872492E1,2.662540172E0,-2.317531060E0,5.472106243E0,6.511836693E0
1.337876292E1,8.589615342E-1,-2.239161998E0,3.696743052E0,4.406537253E0
1.338880092E1,-2.241310850E-1,-2.287605010E0,3.437738296E0,4.135385836E0
1.339883892E1,-5.409060395E-1,-2.612652898E0,3.455464715E0,4.365635223E0
1.340887692E1,-3.332462686E-1,-1.944143071E0,2.429695859E0,3.129563440E0
1.341891492E1,1.387624674E0,5.927322507E-2,-2.879589621E-1,1.418427268E0
1.342895292E1,1.048900441E0,5.152519655E-1,-4.312181211E0,4.467726885E0
1.343899092E1,1.126638588E-1,-8.252058506E-1,-5.534241096E0,5.596559867E0
1.344902892E1,1.724591233E0,-1.921980370E0,-3.003743332E0,3.961148504E0
1.345906692E1,4.112896407E0,-2.648022705E0,6.409507298E-1,4.933432774E0
1.346910492E1,5.323913240E0,-4.194156917E0,3.016619486E0,7.418557647E0
1.347914292E1,5.857782156E0,-6.083820895E0,3.806098264E0,9.263523761E0
1.348918092E1,6.746315106E0,-7.044606720E0,3.521993750E0,1.037032745E1
1.349921892E1,7.474935479E0,-6.481128674E0,1.816940403E0,1.005887477E1
1.350925692E1,6.860377327E0,-4.297287183E0,-4.376021111E-1,8.106969212E0
1.351929492E1,5.048069673E0,-2.646015941E0,-1.662018278E0,5.936894183E0
1.352933192E1,2.614694161E0,-1.861887950E0,-3.287184480E0,4.594435122E0
1.353936992E1,1.671551725E0,-8.659352160E-1,-3.515531992E0,3.987843296E0
1.354940792E1,3.668484628E-1,-8.747960865E-1,-2.102234241E0,2.306346633E0
1.355944592E1,-1.840774093E0,-1.314835317E0,-2.690296320E0,3.514958814E0
1.356948392E1,-4.545550019E0,-1.455854956E0,-2.968859136E0,5.621001975E0
1.357952192E1,-6.463539079E0,-2.070249971E0,-2.040194113E0,7.087006730E0
1.358955992E1,-4.821338916E0,-1.202779276E0,-2.294437482E0,5.473246777E0
1.359959792E1,-1.493039447E0,7.449194866E-1,-3.031396277E0,3.460265195E0
1.360963592E1,2.762983350E-1,2.196949779E0,-3.763673791E0,4.366711520E0
1.361967392E1,1.686402191E0,3.993375810E0,-3.878786171E0,5.816870711E0
1.362971192E1,2.204484501E0,5.289418761E0,-3.967623796E0,6.969916881E0
1.363974992E1,2.587089163E0,5.781947277E0,-4.371087230E0,7.696125534E0
1.364978792E1,2.992816348E0,6.322046986E0,-4.625810655E0,8.385901979E0
1.365982592E1,2.875211007E0,7.114745826E0,-5.029677840E0,9.175189681E0
1.366986392E1,2.918071975E0,7.716897941E0,-5.497241669E0,9.913895493E0
1.367990092E1,2.953122524E0,7.806412380E0,-5.840385520E0,1.018681059E1
1.368993892E1,2.973860844E0,7.778617056E0,-6.055750751E0,1.029673972E1
1.369997692E1,2.918851116E0,7.852538726E0,-5.831360927E0,1.020719484E1
1.371001492E1,2.410109148E0,7.486439291E0,-5.391011794E0,9.535114448E0
1.372005292E1,1.398046458E0,6.644584079E0,-4.962488070E0,8.410191397E0
1.373009092E1,4.629178505E-1,6.015976236E0,-4.370592556E0,7.450392091E0
1.374012892E1,3.802331780E-1,6.047127863E0,-3.402916080E0,6.949256831E0
1.375016692E1,2.235167619E-1,5.988590217E0,-1.925039341E0,6.294358505E0
1.376020492E1,-9.250214763E-2,5.227571592E0,2.989675516E-1,5.236930684E0
1.377024292E1,-6.741326554E-1,3.842526417E0,3.694954096E0,5.373281109E0
1.378028092E1,-1.488986449E0,1.472487946E0,9.205089169E0,9.440284318E0
1.379031892E1,-2.868747202E0,-3.113756356E0,1.105494238E1,1.183794493E1
1.380035692E1,-4.317511532E0,-9.714955264E0,7.005632688E0,1.273185576E1
1.381039492E1,-2.086007779E0,-1.659045817E1,8.176997799E0,1.861338292E1
1.382043292E1,3.364161904E-1,-1.879003569E1,8.302009515E0,2.054512056E1
1.383046992E1,1.717534813E-1,-1.442872500E1,4.293447316E0,1.505494252E1
1.384050792E1,-1.996833793E0,-6.267574909E0,2.932139499E0,7.201894368E0
1.385054592E1,-2.504109572E0,2.511714168E0,5.509584557E0,6.552464788E0
1.386058392E1,6.037040392E-1,8.653488572E0,7.308396252E0,1.134283822E1
1.387062192E1,5.200221241E0,9.310513882E0,6.265931257E0,1.236890716E1
1.388065992E1,7.094154271E0,4.738311669E0,3.364999518E0,9.170705755E0
1.389069792E1,6.599618990E0,-5.326977181E-1,-7.349394590E-1,6.661747045E0
1.390073592E1,5.004825420E0,-5.199216104E0,-2.731657770E0,7.716351453E0
1.391077392E1,4.367941721E-1,-9.538792689E0,-2.294066768E0,9.820493748E0
1.392081192E1,-3.926607040E0,-1.140577532E1,8.405644396E-1,1.209200157E1
1.393084992E1,-1.796316104E0,-6.055872374E0,8.562715226E-1,6.374444499E0
1.394088792E1,3.875153296E0,4.398913545E0,-6.557543596E0,8.795944034E0
1.395092592E1,8.662240684E0,8.880052391E0,-8.096466436E0,1.481359217E1
1.396096392E1,1.193369118E1,7.567061285E0,3.040704167E0,1.445404039E1
1.397100192E1,8.508570009E0,3.997751867E0,9.843846023E-1,9.452343447E0
1.398103992E1,2.833709224E0,-1.476196834E0,-5.568908068E0,6.420420713E0
1.399107692E1,1.441552082E-1,-5.892007079E0,-7.787802447E0,9.766595880E0
1.400111492E1,1.226393549E-1,-6.529496257E0,-8.598445807E0,1.079734375E1
1.401115292E1,6.695091158E-2,-4.544799237E0,-7.146798508E0,8.469735027E0
1.402119092E1,-3.029148607E-1,-2.061467453E0,-5.261819319E0,5.659341659E0
1.403122892E1,-2.823209672E-1,-5.280912817E-2,-4.914350867E0,4.922736879E0
1.404126692E1,-2.134925146E-1,9.596959037E-1,-4.805737667E0,4.905273673E0
1.405130492E1,-7.698254094E-2,1.147197399E0,-4.119662805E0,4.277102969E0
1.406134292E1,-1.873443510E-1,1.028697726E0,-3.307198037E0,3.468555286E0
1.407138092E1,-1.092559554E-1,9.229748046E-1,-2.732012111E0,2.885777110E0
1.408141892E1,4.360087448E-1,4.409256685E-1,-2.055109776E0,2.146624155E0
1.409145692E1,1.668364700E0,-2.221789920E-1,-6.489935750E-1,1.803883848E0
1.410149492E1,2.655471473E0,-6.284523064E-1,1.387081613E0,3.061123397E0
1.411153292E1,2.768825596E0,-5.715150440E-1,3.145859908E0,4.229593265E0
1.412157092E1,2.573803997E0,2.044408786E-1,3.151908268E0,4.074406560E0
1.413160792E1,1.469541241E0,7.993231505E-1,1.900901742E0,2.532172267E0
1.414164592E1,-5.062431604E-1,1.238556050E0,4.580708011E-1,1.414260261E0
1.415168392E1,-2.049898152E0,1.426076256E0,-1.249474556E0,2.792304172E0
1.416172192E1,-2.242449156E0,1.803743822E0,-2.011898852E0,3.511382489E0
1.417175992E1,-2.431896459E0,2.114490589E0,-2.169028739E0,3.884569025E0
1.418179833E1,-2.890012649E0,2.310055395E0,-2.100701101E0,4.254582724E0
1.419183633E1,-2.950375795E0,2.151077203E0,-1.836934372E0,4.087319213E0
1.420187433E1,-3.128259205E0,1.568493964E0,-1.186962046E0,3.695275073E0
1.421191233E1,-2.931015079E0,1.141399884E0,1.565036505E-1,3.149307302E0
1.422195033E1,-2.164980420E0,8.735395199E-1,1.468760930E0,2.758164277E0
1.423198833E1,-1.256496769E0,1.047382504E0,2.120422590E0,2.678056422E0
1.424202633E1,-8.650370836E-1,1.281233123E0,2.581413563E0,3.008910676E0
1.425206433E1,-5.452841422E-1,1.244200367E0,3.164955161E0,3.444170512E0
1.426210233E1,-2.406512234E-1,1.359244920E0,3.296314030E0,3.573674012E0
1.427214033E1,-6.006756932E-2,1.540374704E0,3.006163495E0,3.378369621E0
1.428217733E1,5.498663127E-2,1.859101167E0,2.671611543E0,3.255270943E0
1.429221533E1,1.779322341E-1,2.014449992E0,1.918680786E0,2.787652168E0
1.430225333E1,6.143640250E-2,1.749804427E0,1.468271957E0,2.285041029E0
1.431229133E1,6.897638708E-2,1.141880525E0,1.826517996E0,2.155183720E0
1.432232933E1,1.516647872E-1,5.521209991E-1,2.546786352E0,2.610356399E0
1.433236733E1,-1.759579217E-1,-3.821418554E-1,3.081601932E0,3.110187142E0
1.434240533E1,-8.077340779E-1,-1.305875044E0,3.649632035E0,3.959489609E0
1.435244333E1,-1.807150995E0,-2.266317052E0,4.017630061E0,4.954123435E0
1.436248133E1,-3.339415318E0,-2.881310238E0,3.229960996E0,5.466835592E0
1.437251933E1,-5.161610321E0,-3.371026828E0,1.416102076E0,6.325455562E0
1.438255733E1,-6.323671342E0,-3.955365985E0,4.458164258E-1,7.472114266E0
1.439259533E1,-6.837343390E0,-4.343718168E0,1.085585433E0,8.172860447E0
1.440263333E1,-6.394027380E0,-4.862679607E0,1.931824303E0,8.262032694E0
1.441267133E1,-4.845387636E0,-5.356310908E0,1.818613730E0,7.448167814E0
1.442270933E1,-2.594475074E0,-5.575359301E0,1.441553690E0,6.316170460E0
1.443274733E1,1.981448892E-1,-5.272748349E0,2.278765921E0,5.747513434E0
1.444278433E1,2.447955544E0,-4.211764053E0,4.682309961E0,6.756883109E0
1.445282233E1,3.349466682E0,-2.809682431E0,5.904806049E0,7.347106702E0
1.446286033E1,3.230895381E0,-2.071067997E0,5.330908849E0,6.568606912E0
1.447289833E1,1.199605700E0,-2.598024918E0,4.427717514E0,5.271951223E0
1.448293633E1,-9.085298431E-1,-2.944080098E0,3.522569700E0,4.679907199E0
1.449297433E1,-1.631614949E0,-2.730580713E0,2.309024531E0,3.930627514E0
1.450301233E1,-9.587293589E-1,-1.813307528E0,1.215239693E0,2.384125350E0
1.451305033E1,-8.894024312E-1,-4.251112890E-1,6.443807796E-1,1.177702374E0
1.452308833E1,-1.591390491E0,-6.775233096E-1,1.231691419E0,2.123352369E0
1.453312633E1,-6.866239160E-2,-1.557273742E0,-1.086669946E0,1.900175677E0
1.454316433E1,1.795484191E0,-1.945051728E0,-3.567099756E0,4.441980457E0
1.455320233E1,3.723306076E0,-2.960141814E0,-3.783025736E0,6.077559659E0
1.456324033E1,4.882812155E0,-4.479427366E0,-9.233308270E-1,6.690266354E0
1.457327833E1,5.195674446E0,-6.269305100E0,3.647593111E0,8.922116055E0
1.458331533E1,6.312606071E0,-7.164695665E0,4.547451534E0,1.057644434E1
1.459335333E1,7.707740031E0,-6.752493274E0,1.887486475E0,1.041959822E1
1.460339133E1,7.344060175E0,-5.481166504E0,-1.171374027E0,9.238534689E0
1.461342933E1,5.017802730E0,-4.209731560E0,-2.830424259E0,7.135228485E0
1.462346733E1,3.100262444E0,-2.463057148E0,-2.315643725E0,4.586990690E0
1.463350533E1,1.436849166E0,-8.680179942E-1,-1.811429548E0,2.469669568E0
1.464354333E1,-3.723293504E-1,-3.416721064E-1,-3.870225847E0,3.903077899E0
1.465358133E1,-3.357288210E0,-8.131857294E-1,-5.202120416E0,6.244574603E0
1.466361933E1,-6.708467833E0,-2.103931103E0,-3.563851628E0,7.882328665E0
1.467365733E1,-6.353146572E0,-2.748799467E0,-1.355833362E0,7.053839662E0
1.468369533E1,-2.643188520E0,-1.439437144E0,-1.918521742E0,3.569194659E0
1.469373333E1,-7.010466582E-1,1.075370201E0,-2.971056519E0,3.236520405E0
1.470377133E1,2.849233436E-1,2.716099498E0,-3.467896188E0,4.414145644E0
1.471380933E1,1.654626082E0,3.969925552E0,-3.875810523E0,5.789646239E0
1.472384733E1,2.204207781E0,5.265665617E0,-4.424029675E0,7.222036063E0
1.473388433E1,2.531416361E0,6.333331527E0,-5.345274289E0,8.665512925E0
1.474392233E1,3.245223691E0,6.868041857E0,-5.691994881E0,9.492116807E0
1.475396033E1,4.405537563E0,8.017007453E0,-5.726077716E0,1.079208672E1
1.476399833E1,2.858552582E0,7.310197195E0,-6.271147558E0,1.004677051E1
1.477403633E1,2.530408301E0,6.486418650E0,-5.809918603E0,9.068172210E0
1.478407433E1,2.523293409E0,6.552866993E0,-5.926377597E0,9.188526916E0
1.479411233E1,2.262353809E0,6.385193991E0,-5.772978233E0,8.900349698E0
1.480415033E1,2.156661001E0,6.265500317E0,-4.928147957E0,8.257985419E0
1.481418833E1,1.883549837E0,6.304726363E0,-4.246673684E0,7.831447624E0
1.482422633E1,1.232159781E0,6.301311589E0,-3.908096801E0,7.516512894E0
1.483426433E1,5.143513481E-1,6.289374499E0,-3.096983033E0,7.029373571E0
1.484430233E1,-4.630724363E-2,6.078105826E0,-1.696711709E0,6.310653328E0
1.485434033E1,-6.446626154E-1,5.248571282E0,3.335225496E-1,5.298521273E0
1.486437833E1,-1.183246068E0,3.721214234E0,4.230740021E0,5.757314284E0
1.487441533E1,-1.127540814E0,1.224071912E0,7.904035739E0,8.077343703E0
1.488445333E1,-1.676591586E0,-2.638015780E0,7.490515385E0,8.116520643E0
1.489449133E1,-2.525643990E0,-8.213473899E0,5.614518104E0,1.026464050E1
1.490452933E1,-1.267490412E0,-1.502132861E1,9.394261798E0,1.776229152E1
1.491456733E1,-2.244562486E0,-1.806308762E1,8.054173526E0,1.990434390E1
1.492460533E1,-3.176830856E0,-1.391313156E1,3.258544525E0,1.463849707E1
1.493464333E1,-3.637510757E0,-5.332676463E0,2.324260620E0,6.860838884E0
1.494468133E1,-3.995104832E0,3.161436891E0,4.640930970E0,6.891573558E0
1.495471933E1,-2.437539606E0,8.436163938E0,6.262080281E0,1.078536558E1
1.496475733E1,7.684084097E-1,9.456910620E0,5.894558219E0,1.117002357E1
1.497479533E1,2.513916522E0,5.106661112E0,2.323293491E0,6.147800960E0
1.498483333E1,3.039352875E0,-5.195350510E-1,-1.977959858E0,3.663319229E0
1.499487133E1,4.814005630E0,-2.846752608E0,-4.071307501E0,6.917672686E0
1.500490933E1,5.191560345E0,-2.793899626E0,-3.093761217E0,6.658042685E0
1.501494733E1,1.504171230E0,-3.920399051E0,-2.026067240E0,4.662296459E0
1.502498433E1,-1.413441592E0,-6.937366446E0,1.955083212E0,7.344877174E0
1.503502233E1,-2.199506766E0,-9.004004592E0,7.581126763E0,1.197428126E1
1.504506033E1,1.956138342E0,-6.530256979E0,4.090274991E0,7.949910876E0
1.505509833E1,7.752225648E0,2.416090558E0,-7.604657713E0,1.112498607E1
1.506513633E1,1.046818832E1,8.029794145E0,-4.264221178E0,1.386521341E1
1.507517433E1,8.594721715E0,7.065545014E0,2.179264875E0,1.133756425E1
1.508521233E1,3.861712886E0,3.731176136E0,-2.413754595E0,5.887334967E0
1.509525033E1,-1.226140657E-1,-5.543961507E-1,-6.919414324E0,6.942671236E0
1.510528833E1,-1.748144549E0,-4.104446595E0,-8.146233258E0,9.287820386E0
1.511532633E1,-1.113532639E0,-4.679824310E0,-8.200162128E0,9.507016853E0
1.512536433E1,-2.535833640E-1,-3.226027574E0,-7.329999960E0,8.012518820E0
1.513540233E1,3.384824502E-1,-1.297322906E0,-6.384138569E0,6.523407266E0
1.514544033E1,7.045000237E-1,-5.142105764E-1,-5.946845775E0,6.010466494E0
1.515547833E1,5.948638532E-1,-2.954422653E-1,-5.359421042E0,5.400420636E0
1.516551533E1,2.340823151E-1,-4.730011547E-1,-4.260478083E0,4.293040661E0
1.517555396E1,1.625407545E-1,-5.382823938E-1,-2.554948481E0,2.616090436E0
1.518559196E1,1.045008534E0,-2.691420740E-1,-2.726024562E-1,1.113010508E0
1.519562996E1,2.762311798E0,-1.036015517E-1,3.888010738E0,4.770505974E0
1.520566796E1,4.176356823E0,-1.531666446E-1,6.124666035E0,7.414644319E0
1.521570596E1,3.404826950E0,-6.700464749E-1,2.129060097E0,4.071204457E0
1.522574396E1,2.973809389E0,-3.819915819E-1,-8.532081664E-2,2.999456532E0
1.523578196E1,2.366981255E0,6.011621815E-1,-6.832372087E-1,2.535904043E0
1.524581996E1,8.057188350E-1,1.397171130E0,-1.009634049E0,1.902795554E0
1.525585796E1,-5.814955102E-1,1.894541726E0,-1.682793581E0,2.599849922E0
1.526589596E1,-1.567379339E0,2.008695163E0,-2.916657826E0,3.872780283E0
1.527593396E1,-2.162981549E0,2.187407123E0,-3.126445398E0,4.386103046E0
1.528597196E1,-2.877498730E0,2.150954411E0,-2.657868247E0,4.468877649E0
1.529600996E1,-2.588047522E0,2.175251346E0,-1.156232078E0,3.573035266E0
1.530604796E1,-2.313986185E0,1.760853910E0,5.204431236E-2,2.908237812E0
1.531608496E1,-2.539127085E0,1.446484208E0,3.487372971E-1,2.942974791E0
1.532612296E1,-1.824780057E0,1.202631927E0,1.313108050E0,2.549587919E0
1.533616096E1,-1.332477829E0,1.354260169E0,1.416465772E0,2.369787554E0
1.534619896E1,-9.397206455E-1,1.931998989E0,1.338469763E0,2.531244020E0
1.535623696E1,-4.046390176E-1,1.940269876E0,1.607352805E0,2.551854809E0
1.536627496E1,-3.522508889E-1,1.822944324E0,1.658867798E0,2.489788961E0
1.537631296E1,-4.276618445E-1,1.703616101E0,1.430600832E0,2.265352337E0
1.538635096E1,-5.467921391E-1,1.983599498E0,1.223104271E0,2.393665112E0
1.539638896E1,-7.637004510E-1,2.351729085E0,1.382321541E0,2.832786775E0
1.540642696E1,-7.522188583E-1,2.313847314E0,1.704695059E0,2.970809292E0
1.541646496E1,-4.120962641E-1,1.530506943E0,2.674360904E0,3.108774851E0
1.542650296E1,2.667251274E-1,2.998475575E-1,3.909711510E0,3.930253801E0
1.543654096E1,6.154521918E-1,-8.214800048E-1,4.464150345E0,4.580638504E0
1.544657896E1,3.705491656E-1,-1.645336903E0,4.504392053E0,4.809780450E0
1.545661596E1,-5.490248984E-1,-2.409978463E0,3.575727907E0,4.346867217E0
1.546665396E1,-2.305571165E0,-3.486053839E0,2.212791494E0,4.729130571E0
1.547669196E1,-4.591208003E0,-4.213236381E0,1.249606118E0,6.355475370E0
1.548672996E1,-6.212937942E0,-4.495766240E0,1.589713071E0,7.831966522E0
1.549676796E1,-6.939657969E0,-4.284098788E0,2.496736525E0,8.529129407E0
1.550680596E1,-6.289656335E0,-4.170917743E0,2.772743815E0,8.040176608E0
1.551684396E1,-5.308922734E0,-4.838332971E0,1.509422468E0,7.339787648E0
1.552688196E1,-4.156005881E0,-5.614374847E0,-5.699047208E-2,6.985473336E0
1.553691996E1,-1.708202072E0,-5.472752361E0,1.176894530E0,5.852696255E0
1.554695796E1,1.515440422E0,-4.523478534E0,3.994652842E0,6.222191660E0
1.555699596E1,4.121929478E0,-3.138150355E0,6.461135289E0,8.281579529E0
1.556703396E1,4.663716985E0,-1.957227386E0,7.242972926E0,8.834118630E0
1.557707196E1,2.539996566E0,-1.580434563E0,5.572343892E0,6.324584762E0
1.558710996E1,-6.773820993E-1,-2.341647901E0,3.397110672E0,4.181210628E0
1.559714696E1,-2.910985734E0,-3.525146568E0,2.847057248E0,5.385743333E0
1.560718496E1,-3.189815475E0,-3.663243769E0,3.145666658E0,5.787011007E0
1.561722296E1,-2.605295639E0,-2.520299635E0,3.080140128E0,4.756757175E0
1.562726096E1,-1.420100694E0,-4.456075341E-1,1.080235743E0,1.839065337E0
1.563729896E1,-4.981947604E-1,8.470551413E-1,-3.237817315E0,3.383660946E0
1.564733696E1,-2.310933647E-1,-8.977814913E-1,-5.142294044E0,5.225189354E0
1.565737496E1,1.116632248E0,-2.332161378E0,-2.080243447E0,3.318622767E0
1.566741296E1,2.829347786E0,-3.508510070E0,-1.810317262E0,4.857169999E0
1.567745096E1,3.749293149E0,-4.669688162E0,-3.360921085E-1,5.998011716E0
1.568748896E1,3.899725635E0,-6.242168173E0,2.519790342E0,7.779580123E0
1.569752696E1,5.007939062E0,-7.093109373E0,3.377833571E0,9.316727637E0
1.570756496E1,6.720451117E0,-6.841800722E0,1.672314348E0,9.735057043E0
1.571760296E1,7.770272495E0,-5.449259418E0,-6.299370606E-1,9.511486926E0
1.572764096E1,6.756053059E0,-3.995301883E0,-2.164165172E0,8.141885590E0
1.573767796E1,4.351650501E0,-2.638955428E0,-3.061992710E0,5.939423136E0
1.574771596E1,2.454652360E0,-9.392505294E-1,-2.442347479E0,3.587836531E0
1.575775396E1,1.430672752E0,-1.006188869E-2,-1.614234393E0,2.157006825E0
1.576779196E1,-4.765338962E-1,4.647910792E-1,-2.715576172E0,2.795973757E0
1.577782996E1,-3.155704865E0,3.832107264E-1,-4.281824513E0,5.332855222E0
1.578786796E1,-4.176417634E0,-4.408572561E-1,-3.012269450E0,5.168228576E0
1.579790596E1,-3.778079868E0,-1.125465637E0,-3.177583392E0,5.063358234E0
1.580794396E1,-2.883654094E0,-1.227001952E0,-3.505053197E0,4.701743574E0
1.581798196E1,-1.759739285E0,-5.352547055E-1,-4.089171329E0,4.483804424E0
1.582801996E1,4.649273924E-1,1.507638482E0,-3.604781845E0,3.934918477E0
1.583805796E1,1.114287369E0,3.138209412E0,-4.372190015E0,5.496002200E0
1.584809596E1,2.345037678E0,5.011239815E0,-4.629645552E0,7.214245916E0
1.585813396E1,3.744287055E0,6.850997223E0,-4.105624517E0,8.821111108E0
1.586817196E1,3.885671560E0,7.506639082E0,-4.536377492E0,9.593059707E0
1.587820996E1,3.282278081E0,7.714109988E0,-5.391974831E0,9.967659449E0
1.588824696E1,3.037703083E0,7.730430152E0,-5.872238227E0,1.017203874E1
1.589828496E1,3.132144095E0,7.721316682E0,-5.780723455E0,1.014129290E1
1.590832296E1,2.743581119E0,7.682677111E0,-5.631908308E0,9.913080053E0
1.591836096E1,2.157876783E0,7.323781446E0,-5.223674423E0,9.250998938E0
1.592839896E1,1.784395970E0,6.743574516E0,-4.483027496E0,8.292008307E0
1.593843696E1,1.395347384E0,6.282281241E0,-3.921231694E0,7.535921305E0
1.594847496E1,9.860156831E-1,6.148908591E0,-3.399284374E0,7.094817690E0
1.595851296E1,5.061610070E-1,6.170194795E0,-2.474404255E0,6.667096759E0
1.596855096E1,-2.562147573E-1,5.768727892E0,-8.259592643E-1,5.833187482E0
1.597858896E1,-8.729482202E-1,4.354338466E0,1.921269348E0,4.838757896E0
1.598862696E1,-8.982628633E-1,2.320782697E0,5.076857854E0,5.653971539E0
1.599866496E1,-8.667175734E-1,6.158112109E-2,6.811891630E0,6.867085201E0
1.600870296E1,-2.558712918E0,-4.108698106E0,7.681053339E0,9.078931232E0
1.601874096E1,-3.183337637E0,-1.168808357E1,7.994000999E0,1.451375168E1
1.602877796E1,-3.567626590E0,-1.845434002E1,9.659970387E0,2.113304646E1
1.603881596E1,-3.881022731E0,-1.815066020E1,4.807324309E0,1.917339746E1
1.604885396E1,-3.484785578E0,-1.127788268E1,1.626999450E0,1.191559883E1
1.605889196E1,-3.186132022E0,-2.833479429E0,4.020291713E0,5.860272041E0
1.606892996E1,-3.231771879E0,4.081997965E0,6.803885622E0,8.567375118E0
1.607896796E1,-1.205664585E0,7.962369316E0,7.847304883E0,1.124424947E1
1.608900596E1,1.804104303E0,6.824929166E0,4.922478497E0,8.606116721E0
1.609904396E1,2.892378725E0,2.362178060E0,-6.242814875E-1,3.786220708E0
1.610908196E1,4.454087872E0,-8.108164376E-1,-4.143549265E0,6.137208044E0
1.611911996E1,5.892567242E0,-2.504480578E0,-4.909627486E0,8.068408376E0
1.612915796E1,3.273179229E0,-5.640301402E0,-2.994028768E0,7.175716719E0
1.613919596E1,-6.421714823E-1,-9.634844901E0,1.861835325E0,9.834076024E0
1.614923396E1,-3.097567754E0,-9.518346146E0,3.914193401E0,1.074777881E1
1.615927096E1,2.916975914E0,-2.381508370E0,-1.043563102E0,3.907602148E0
1.616930896E1,8.730772390E0,6.508060949E0,-4.937879478E0,1.195675113E1
1.617934679E1,1.091239896E1,8.961743841E0,2.718365879E0,1.437994495E1
1.618938479E1,8.587026780E0,7.195191234E0,2.262478063E0,1.142920001E1
1.619942279E1,3.966357581E0,2.960183914E0,-6.232360053E0,7.958454190E0
1.620946079E1,2.867230435E-1,-2.580617173E0,-8.265515288E0,8.663748500E0
1.621949879E1,-2.755352734E-1,-6.224932335E0,-8.639517235E0,1.065208713E1
1.622953679E1,9.493407771E-2,-6.224096183E0,-8.336549603E0,1.040415518E1
1.623957479E1,-7.116792351E-2,-3.462036985E0,-7.201447170E0,7.990720011E0
1.624961279E1,-1.596465290E-1,-9.633416426E-1,-5.347193345E0,5.435622393E0
1.625965079E1,-5.654582056E-1,-4.933939040E-2,-4.266228235E0,4.303821640E0
1.626968879E1,-9.259093760E-1,2.135502559E-1,-3.046182131E0,3.190946170E0
1.627972679E1,-1.174617478E0,2.935904521E-1,-1.749194855E0,2.127346754E0
1.628976479E1,-5.510799024E-1,3.381965214E-1,-5.994781834E-1,8.817256026E-1
1.629980179E1,4.516135016E-1,2.893944901E-1,4.777517250E-1,7.182970392E-1
1.630983979E1,1.367106501E0,2.775796062E-1,1.871594328E0,2.334287033E0
1.631987779E1,2.322658045E0,3.156397176E-1,2.717059026E0,3.588422854E0
1.632991579E1,2.968546310E0,7.804921925E-1,1.932135229E0,3.626924565E0
1.633995379E1,3.280966843E0,9.572500134E-1,3.952473660E-1,3.440536512E0
1.634999179E1,2.370447923E0,1.101552864E0,-8.141218686E-1,2.737742954E0
1.636002979E1,2.706296057E-1,1.412194381E0,-1.858787756E0,2.350026654E0
1.637006779E1,-1.569964539E0,1.648393242E0,-3.070712662E0,3.822468468E0
1.638010579E1,-2.724188244E0,1.543632188E0,-3.639353800E0,4.800926786E0
1.639014379E1,-2.760279013E0,1.586400477E0,-2.378678318E0,3.974156168E0
1.640018179E1,-2.979238236E0,1.323638300E0,-8.572292966E-1,3.370863522E0
1.641021979E1,-2.754815083E0,1.596122643E0,7.431348433E-1,3.269382667E0
1.642025779E1,-2.597688411E0,1.512205158E0,8.774372739E-1,3.131237086E0
1.643029579E1,-2.852472062E0,1.073798470E0,1.520164973E0,3.405956777E0
1.644033279E1,-3.181796019E0,5.191263306E-1,1.453202659E0,3.536257346E0
1.645037079E1,-2.287308556E0,5.228428209E-1,8.195381445E-1,2.485314430E0
1.646040879E1,-8.831213522E-1,1.040775735E0,6.696301532E-1,1.520369032E0
1.647044679E1,-1.029098260E-1,1.774317124E0,6.882839406E-1,1.905918800E0
1.648048479E1,-3.915471017E-2,2.394063511E0,9.536890590E-1,2.577323420E0
1.649052279E1,-1.290550661E-1,2.577158545E0,1.286263483E0,2.883205702E0
1.650056079E1,-9.703162014E-3,2.620577044E0,1.510652722E0,3.024828895E0
1.651059879E1,1.574713647E-1,2.585965036E0,1.451565439E0,2.969689314E0
1.652063679E1,4.346045360E-1,2.087536680E0,1.738488311E0,2.751187398E0
1.653067479E1,6.243253416E-1,1.145402303E0,3.049718235E0,3.317003147E0
1.654071279E1,6.576497930E-1,-1.122408128E-1,4.681680801E0,4.728978365E0
1.655075079E1,5.077371240E-1,-1.157244669E0,5.084908301E0,5.239590121E0
1.656078879E1,-1.050101459E-2,-1.628119192E0,4.345186404E0,4.640207674E0
1.657082679E1,-8.739222202E-1,-2.007830359E0,3.317990828E0,3.975447891E0
1.658086379E1,-2.367408394E0,-2.282682824E0,1.651766940E0,3.680162687E0
1.659090179E1,-4.861459293E0,-2.798537053E0,3.867418599E-1,5.622736466E0
1.660093979E1,-7.085499807E0,-3.758058125E0,4.375297518E-1,8.032355860E0
1.661097779E1,-7.830196515E0,-4.825301281E0,1.669997535E0,9.347962435E0
1.662101579E1,-6.419476801E0,-5.117322341E0,1.547996550E0,8.354218315E0
1.663105379E1,-4.794211051E0,-5.674323426E0,3.950131850E-1,7.438981204E0
