"Time (s)","Linear Acceleration x (m/s^2)","Linear Acceleration y (m/s^2)","Linear Acceleration z (m/s^2)","Absolute acceleration (m/s^2)"
5.790374940E-3,1.976046795E0,-2.676293408E0,8.163272922E-1,3.425448524E0
1.582637499E-2,3.146452231E0,-2.899229615E0,1.612440906E0,4.572270736E0
2.586337505E-2,3.656214831E0,-2.775811265E0,1.694871444E0,4.893426640E0
3.589937498E-2,3.756605676E0,-2.036388745E0,1.658590786E0,4.583654517E0
4.593637504E-2,3.955534385E0,-1.065023553E0,1.346220832E0,4.311941322E0
5.597337498E-2,3.697207029E0,-8.703171194E-2,5.138774313E-2,3.698588248E0
6.600937503E-2,3.206181539E0,1.149105345E0,-1.409454961E0,3.686001417E0
7.604637498E-2,2.856042665E0,1.889342966E0,-1.456594044E0,3.721325403E0
8.608337503E-2,3.046316909E0,1.552412367E0,-8.661726860E-1,3.527078960E0
9.611937497E-2,3.174927002E0,7.674014461E-1,-5.917416593E-1,3.319521749E0
1.061560416E-1,2.952695970E0,4.262737155E-2,-7.476074517E-1,3.046169313E0
1.161920417E-1,2.401499123E0,-2.634825540E-1,-6.521914172E-1,2.502393802E0
1.262290416E-1,1.787845827E0,-4.420956963E-1,-7.386097562E-1,1.984284677E0
1.362660417E-1,1.231255509E0,1.336837220E-1,-8.818618619E-1,1.520375549E0
1.463020417E-1,4.606344397E-1,1.034000566E0,-1.079239304E0,1.564000874E0
1.563390417E-1,-4.474925302E-2,2.014195638E0,-1.012761213E0,2.254921693E0
1.663760417E-1,-2.944989632E-1,2.838696899E0,-1.278870263E0,3.127369322E0
1.764120416E-1,-7.493830318E-1,3.286556781E0,-1.570773793E0,3.718919294E0
1.864490417E-1,-1.425108396E0,3.498344686E0,-2.046684523E0,4.296308534E0
1.964860416E-1,-1.838761481E0,3.492655345E0,-2.674094270E0,4.767647776E0
2.065220417E-1,-2.071548345E0,3.257316610E0,-2.817544012E0,4.779118988E0
2.165590416E-1,-2.033160790E0,2.755707952E0,-2.335552325E0,4.145174758E0
2.265950417E-1,-2.040108744E0,2.174094182E0,-1.352431891E0,3.273805312E0
2.366320416E-1,-1.709587862E0,1.789877150E0,3.433892874E-1,2.498853152E0
2.466690417E-1,-1.200623189E0,1.267481641E0,2.472327908E0,3.026617095E0
2.567050416E-1,-6.560353768E-1,9.702337557E-1,4.778934031E0,4.920360396E0
2.667420417E-1,-2.641325816E-1,9.502836406E-1,5.772551386E0,5.856206496E0
2.767790416E-1,-6.420666710E-1,6.021790123E-1,5.305772839E0,5.378298484E0
2.868150417E-1,-1.407119144E0,2.179467773E-1,3.922739106E0,4.173172316E0
2.968520416E-1,-1.780082479E0,1.858455634E-1,2.395262775E0,2.990069559E0
3.068880417E-1,-1.599118464E0,2.856347305E-1,5.414415713E-1,1.712286785E0
3.169250416E-1,-1.606817493E0,5.662174666E-1,-8.861371998E-1,1.920339504E0
3.269620417E-1,-1.966221573E0,1.027593772E0,-2.010100833E0,2.993740402E0
3.369980417E-1,-1.075524129E0,1.281710256E0,-3.967207181E0,4.305608686E0
3.470350417E-1,-6.313908977E-1,1.440589630E0,-5.459235352E0,5.681302983E0
3.570720417E-1,-1.604234046E0,1.682750897E0,-4.396144888E0,4.973058147E0
3.671080417E-1,-1.003480732E0,1.766616341E0,-3.357240847E0,3.924152518E0
3.771450417E-1,6.487949158E-1,1.368035624E0,-3.236790544E0,3.573411442E0
3.871820417E-1,3.481898807E0,6.457624036E-1,-4.339882979E0,5.601358109E0
3.972180417E-1,5.564168900E0,-1.331182963E-1,-5.579327806E0,7.880773743E0
4.072550416E-1,4.938633184E0,-4.519991255E-1,-5.079269246E0,7.098829271E0
4.172910417E-1,1.607375025E0,-9.179333353E-1,-3.120483577E0,3.628177757E0
4.273280416E-1,-2.342964109E0,-1.882433896E0,-2.091386486E0,3.661548255E0
4.373650417E-1,-4.036930550E0,-2.638054372E0,-2.549196575E0,5.454772435E0
4.474010416E-1,-3.312860481E0,-3.056496327E0,-1.921113228E0,4.899784729E0
4.574380417E-1,-3.729792100E0,-2.893298199E0,-1.632080680E0,4.994618196E0
4.674750416E-1,-3.932692529E0,-1.457252440E0,-2.420426853E0,4.842326027E0
4.775110417E-1,-3.318075612E0,-2.527283549E-1,-4.144775426E0,5.315323200E0
4.875480416E-1,-2.511532612E0,1.455389518E-1,-4.840257289E0,5.455003967E0
4.975840417E-1,-2.170506915E0,3.231036884E-1,-3.653867759E0,4.262187919E0
5.076210416E-1,-1.963492385E0,5.331812829E-1,-2.241738281E0,3.027370996E0
5.176580417E-1,-1.676337525E0,4.462589139E-1,-1.270940269E0,2.150475222E0
5.276940416E-1,-1.388831831E0,1.429538977E-1,3.372747079E-3,1.396173717E0
5.377310417E-1,-5.864463111E-1,2.965041196E-1,1.011863008E0,1.206524229E0
5.477680416E-1,7.281145158E-1,5.730651408E-1,1.606045368E0,1.854167233E0
5.578040417E-1,1.936427816E0,5.313411641E-1,1.586626765E0,2.559191398E0
5.678410417E-1,3.196542404E0,-2.218421924E-1,1.217458200E0,3.427725451E0
5.778780417E-1,5.067214041E0,-1.262583429E0,9.016535906E-1,5.299410746E0
5.879140417E-1,5.878943814E0,-2.719846979E0,5.246367466E-1,6.498830023E0
5.979510417E-1,5.724418861E0,-4.469133343E0,-5.387975335E-2,7.262577171E0
6.079870417E-1,4.572464753E0,-6.048228893E0,-2.045027129E-1,7.584874951E0
6.180240416E-1,2.354418951E0,-6.362205078E0,-5.580816507E-2,6.784103228E0
6.280610417E-1,-1.350326016E0,-6.413437797E0,-2.471735001E-1,6.558708673E0
6.380970416E-1,-4.314734982E0,-6.030168598E0,-5.026570630E-1,7.431859485E0
6.481340417E-1,-6.279064103E0,-4.682811652E0,1.553267230E0,7.985487466E0
6.581710416E-1,-6.940895240E0,-3.200907351E0,3.804891983E0,8.538093324E0
6.682070417E-1,-5.769830092E0,-1.013706635E0,4.849756384E0,7.605174384E0
6.782440416E-1,-5.749839631E0,-1.609504580E-2,4.748619726E0,7.457231667E0
6.882800417E-1,-4.454261534E0,4.524616402E-1,5.463423128E0,7.063579803E0
6.983170416E-1,-2.680539072E0,1.206632591E0,5.641774900E0,6.361672417E0
7.083540417E-1,-1.535404571E0,1.703313800E0,5.505863389E0,5.964333722E0
7.183900416E-1,-1.581793895E-1,2.148781586E0,4.689208506E0,5.160519299E0
7.284270417E-1,1.086624264E0,2.189876402E0,3.052106530E0,3.910455884E0
7.384640416E-1,1.997716138E0,1.931940517E0,1.125165675E0,2.998209753E0
7.485000417E-1,2.738575318E0,2.157068844E0,-6.842952624E-1,3.552604788E0
7.585370416E-1,3.192711309E0,2.555041451E0,-3.378220657E0,5.304150934E0
7.685730417E-1,2.706671740E0,2.628202983E0,-5.849696041E0,6.960780603E0
7.786100417E-1,3.022219656E0,2.504758905E0,-4.107251797E0,5.681297928E0
7.886470417E-1,4.140881473E0,2.042220173E0,-2.091312227E0,5.068643748E0
7.986830417E-1,3.389143841E0,1.937843866E0,-4.192754754E-1,3.926490385E0
8.087200416E-1,3.093092296E0,1.802635190E0,1.543985652E0,3.898795361E0
8.187570417E-1,2.643159284E0,1.753177101E0,3.294028938E0,4.572805221E0
8.287930416E-1,2.130790873E0,1.934368281E0,4.309116977E0,5.181750622E0
8.388300417E-1,1.431542379E0,2.132480718E0,4.315907933E0,5.022335003E0
8.488670416E-1,8.306085317E-1,2.451238756E0,4.007553262E0,4.770635714E0
8.589030417E-1,3.302258894E-1,2.726757803E0,3.590783611E0,4.520838882E0
8.689400416E-1,2.427340016E-2,3.049741039E0,2.583951547E0,3.997288481E0
8.789760417E-1,3.498374507E-2,3.704446759E0,9.040780655E-1,3.813332768E0
8.890130416E-1,-6.198487133E-3,4.744652975E0,-1.857744320E0,5.095388526E0
8.990500417E-1,1.991117994E-1,4.081037267E0,-3.005719399E0,5.072362348E0
9.090860416E-1,2.568374857E-1,3.682706226E0,-3.013420182E0,4.765395244E0
9.191230417E-1,-2.228738167E0,4.537636982E0,2.156391152E0,5.496130093E0
9.291600416E-1,-6.823894209E0,1.823112724E0,2.451974920E0,7.476727439E0
9.391960417E-1,-8.698401620E0,-1.313477594E0,5.546142519E-1,8.814477358E0
9.492330416E-1,-7.144584167E0,-3.848889942E0,-1.319103785E0,8.221865451E0
9.592690417E-1,-4.927068561E0,-4.691460269E0,-3.824968106E0,7.804882131E0
9.693060416E-1,-1.867025021E0,-5.164885347E0,-4.821935332E0,7.308411826E0
9.793430417E-1,1.409373831E0,-5.209952177E0,-4.269851170E0,6.881973939E0
9.893790417E-1,2.458945971E0,-4.095614961E0,-2.586069994E0,5.432148305E0
9.994160417E-1,5.997699594E-1,-2.565102171E0,-1.110291235E0,2.858709460E0
1.009453042E0,-1.599169334E0,-1.714155707E0,-9.780792573E-1,2.540140032E0
1.019489042E0,-2.302532075E0,-2.460096118E0,-1.052691776E0,3.530139776E0
1.029526042E0,-2.016926727E0,-2.934989432E0,-1.245921203E0,3.772860457E0
1.039562042E0,-4.792841341E-1,-2.647635620E0,-1.739432928E0,3.203952960E0
1.049599042E0,1.504023441E0,-3.547285296E0,-1.183307171E0,4.030575064E0
1.059636042E0,2.438399293E0,-3.864477450E0,-3.157016981E-1,4.580354204E0
1.069672042E0,1.849373885E0,-2.872526550E0,4.006268044E-1,3.439781154E0
1.079709042E0,5.824619088E-1,-1.825912371E0,1.254997251E0,2.290902870E0
1.089746042E0,1.454132366E-1,-1.199368011E0,2.165785581E0,2.479970931E0
1.099782042E0,7.006869082E-1,-8.102153438E-1,2.907851627E0,3.098872719E0
1.109819042E0,8.463730636E-1,-8.751644611E-1,3.013359078E0,3.250014328E0
1.119855042E0,3.569296847E-1,-1.885822942E0,2.519507337E0,3.167277094E0
1.129892042E0,-2.231626399E-1,-3.355747468E0,1.964759330E0,3.895012434E0
1.139929042E0,-6.527795009E-1,-4.496107133E0,2.170618305E0,5.035144909E0
1.149965042E0,-7.123924492E-1,-4.798467824E0,2.555879942E0,5.483185091E0
1.160002042E0,-5.827858445E-1,-4.194965587E0,2.536835561E0,4.936892775E0
1.170039042E0,-3.460867542E-1,-2.969441811E0,1.991083495E0,3.591903979E0
1.180075042E0,5.512140960E-2,-1.449372733E0,1.114558825E0,1.829196836E0
1.190112042E0,1.205518843E0,3.033079398E-1,5.224802935E-1,1.348427619E0
1.200148042E0,1.992063050E0,1.619252474E0,-4.986154675E-1,2.615131192E0
1.210185042E0,2.996216796E0,2.020582552E0,-9.824867423E-1,3.745043276E0
1.220222042E0,4.073994881E0,1.543257966E0,2.520828223E-1,4.363785649E0
1.230258042E0,4.744953521E0,9.757266301E-1,1.320697736E0,5.021042610E0
1.240295042E0,5.502283139E0,8.819981021E-1,1.242415359E0,5.709346400E0
1.250332042E0,5.576387826E0,6.244200665E-1,1.089816917E0,5.716091542E0
1.260368042E0,4.825456232E0,5.099087799E-1,6.804216282E-1,4.899796772E0
1.270405042E0,3.523333347E0,6.739465678E-1,5.362129180E-1,3.627065776E0
1.280441042E0,2.576630541E0,1.274287800E0,-1.213494591E-1,2.877074909E0
1.290478042E0,1.751070934E0,1.912489169E0,-1.406780591E0,2.950067096E0
1.300515042E0,3.488568726E-1,2.308681884E0,-2.807148832E0,3.651273439E0
1.310551042E0,-6.321699661E-1,2.676603895E0,-3.135123836E0,4.170473444E0
1.320588042E0,-1.113589796E0,2.887764394E0,-2.684835606E0,4.097268317E0
1.330625042E0,-1.107178470E0,2.932084535E0,-1.920797478E0,3.675925303E0
1.340661042E0,-1.177615199E0,2.798455192E0,-1.748982893E0,3.503865034E0
1.350698042E0,-1.463299923E0,2.641963820E0,-2.233856235E0,3.756505447E0
1.360734042E0,-1.650304697E0,2.577470201E0,-2.140682023E0,3.734886578E0
1.370771042E0,-1.877962530E0,2.556914899E0,-9.700600934E-1,3.317464944E0
1.380808042E0,-1.795921125E0,2.187980735E0,-9.371771067E-3,2.830667803E0
1.390844042E0,-1.337945560E0,1.648211394E0,1.371905311E0,2.527612174E0
1.400881042E0,-9.101696947E-1,1.254775642E0,2.818908752E0,3.217004404E0
1.410918042E0,-4.028048191E-1,9.456696028E-1,3.487815020E0,3.636123806E0
1.420954042E0,-4.303470321E-2,6.268776512E-1,3.708058584E0,3.760920903E0
1.430991042E0,3.713964272E-1,3.554352826E-1,3.864671577E0,3.898712088E0
1.441027042E0,4.660536392E-1,1.821799439E-1,3.735553361E0,3.768919532E0
1.451064042E0,1.665375457E-1,3.053088570E-1,2.574700960E0,2.598082617E0
1.461101042E0,-2.605919098E-1,7.097584248E-1,8.031992698E-1,1.103083964E0
1.471137042E0,-7.320275456E-2,1.169034995E0,-8.246596476E-1,1.432503053E0
1.481174042E0,3.685166004E-1,1.446834456E0,-2.769958202E0,3.146713026E0
1.491211042E0,6.885546666E-1,1.749239586E0,-4.083805339E0,4.495710479E0
1.501247042E0,1.096970108E0,2.224567932E0,-4.350737751E0,5.008089943E0
1.511284042E0,1.289669193E0,1.793781336E0,-5.606681081E0,6.026256786E0
1.521320042E0,2.413991700E0,1.201108727E0,-5.780136395E0,6.378087083E0
1.531357042E0,4.902045694E0,1.004545802E0,-5.522336165E0,7.452205108E0
1.541394042E0,5.647872376E0,-7.083667874E-2,-5.368747351E0,7.792748446E0
1.551430042E0,3.147108581E0,-1.111739883E0,-2.996873438E0,4.485700435E0
1.561467042E0,2.090526507E-1,-1.988467889E0,-6.674877334E-1,2.107901191E0
1.571504042E0,-7.227877023E-1,-3.193383738E0,-7.697473490E-1,3.363425745E0
1.581540042E0,-7.595552136E-1,-4.081793312E0,-1.719018252E0,4.493660481E0
1.591577042E0,-1.445784004E0,-4.185508300E0,-2.406092988E0,5.039648260E0
1.601613042E0,-2.935265128E0,-3.325246637E0,-2.979068667E0,5.343023179E0
1.611650042E0,-3.919495071E0,-1.774142293E0,-3.985659825E0,5.864768258E0
1.621687042E0,-3.162306957E0,-2.310386932E-1,-4.883014469E0,5.822146895E0
1.631723042E0,-2.346649902E0,7.167920405E-1,-4.499955186E0,5.125441763E0
1.641760042E0,-2.048879567E0,1.034158441E0,-3.360778413E0,4.069671080E0
1.651796042E0,-2.263676450E0,7.961633152E-1,-2.175958275E0,3.239274843E0
1.661833042E0,-2.047919747E0,2.170913297E-1,-1.138718424E0,2.353249580E0
1.671870042E0,-1.632430782E0,-3.508206600E-1,-5.040884614E-2,1.670462944E0
1.681906042E0,-8.715098783E-1,-5.333175230E-1,1.102894800E0,1.503440716E0
1.691943042E0,9.167105363E-1,-2.925671893E-1,1.764038304E0,2.009424023E0
1.701980042E0,2.650350774E0,-1.460219318E-1,2.206149788E0,3.451489319E0
1.712016042E0,4.346560500E0,-2.124357766E-1,2.589385657E0,5.063855766E0
1.722053042E0,6.113780859E0,-4.312017488E-1,1.803220496E0,6.388728785E0
1.732089042E0,6.901640543E0,-1.140706404E0,7.163763034E-1,7.031859519E0
1.742126042E0,7.101358041E0,-2.404107274E0,-5.158962556E-1,7.514996124E0
1.752163042E0,7.466554665E0,-3.805863206E0,-1.064958065E0,8.447968335E0
1.762199042E0,5.844275672E0,-5.688392996E0,-1.094244283E0,8.228653812E0
1.772236042E0,2.105539233E0,-6.943117767E0,-1.105227839E0,7.339053642E0
1.782273042E0,-1.551422726E0,-6.862146109E0,-1.178845453E0,7.133417014E0
1.792309042E0,-5.293795987E0,-5.821591984E0,-1.034086959E0,7.936280301E0
1.802346042E0,-7.460526770E0,-4.994859425E0,1.268416903E0,9.067356936E0
1.812382042E0,-8.269120681E0,-3.012893640E0,3.818584993E0,9.593616434E0
1.822419042E0,-9.429619326E0,-1.178046724E0,5.523787444E0,1.099171244E1
1.832456042E0,-9.805064950E0,-3.994583845E-2,6.365253232E0,1.169005317E1
1.842492042E0,-6.502078078E0,7.618734884E-1,6.897001362E0,9.509263816E0
1.852529042E0,-2.086772156E0,1.520142753E0,7.521436046E0,7.952197949E0
1.862565042E0,1.855508637E-1,1.941444581E0,6.117521907E0,6.420880817E0
1.872602042E0,9.954074078E-1,2.350424572E0,4.083832237E0,4.815912926E0
1.882639042E0,1.567658105E0,2.674098364E0,3.425266185E0,4.619610636E0
1.892675042E0,2.782433529E0,2.574175295E0,1.668163556E0,4.141386777E0
1.902712042E0,4.642499194E0,2.603152342E0,-7.258745205E-1,5.371786918E0
1.912749042E0,5.957262590E0,2.841298326E0,-2.458885159E0,7.043299651E0
1.922785042E0,6.221687130E0,3.070778151E0,-3.800815597E0,7.911085160E0
1.932822042E0,5.741722527E0,3.191009769E0,-3.603944524E0,7.492552105E0
1.942858042E0,3.779208966E0,3.033949463E0,-2.579406507E0,5.490046236E0
1.952895042E0,1.968461203E0,3.068810563E0,-2.869617561E-1,3.657155292E0
1.962932042E0,1.171563477E0,2.722375900E0,1.710015586E0,3.421702036E0
1.972968042E0,1.311974128E0,2.387419320E0,3.080163809E0,4.111989326E0
1.983005042E0,1.751547190E0,2.285883590E0,3.225223582E0,4.323800238E0
1.993042042E0,1.803810188E0,2.380243617E0,2.917766165E0,4.175242540E0
2.003078042E0,1.706266644E0,2.867980340E0,2.139708169E0,3.964215955E0
2.013115042E0,1.136897528E0,3.505046765E0,8.130474427E-1,3.773451332E0
2.023151042E0,3.366252284E-1,4.060367945E0,-6.120932588E-1,4.120019727E0
2.033188042E0,2.156376388E-1,4.261053157E0,-1.803859012E0,4.632168060E0
2.043225042E0,-1.475723210E-1,3.926013547E0,-1.937772530E0,4.380676014E0
2.053261042E0,-9.907360672E-1,5.277905594E0,6.869823503E0,8.719651391E0
2.063298042E0,-3.077955608E0,2.649152387E0,7.175344030E0,8.244839661E0
2.073334042E0,-5.438079541E0,-1.695554545E0,-1.832784896E0,5.983871221E0
2.083371042E0,-7.577217899E0,-3.968688866E0,-4.599573029E0,9.711889335E0
2.093408042E0,-5.040737849E0,-3.494192578E0,-5.118764849E0,7.988752932E0
2.103444500E0,-3.169743153E0,-3.704730349E0,-7.848604134E0,9.239744881E0
2.113481500E0,-1.305166361E0,-5.988506602E0,-6.981414691E0,9.290092660E0
2.123518500E0,1.398307975E0,-5.494276546E0,-4.745455505E0,7.393354307E0
2.133554500E0,2.284265519E0,-2.997147673E0,-2.541537892E0,4.545346850E0
2.143591500E0,4.953343025E-1,-7.601064599E-1,-1.765386233E0,1.984869380E0
2.153627500E0,-3.126516150E0,5.716717494E-1,-3.061313263E0,4.412884626E0
2.163664500E0,-4.624157063E0,5.608567393E-1,-2.522031288E0,5.296983164E0
2.173701500E0,-4.508276943E0,-6.466500109E-1,-6.078015487E-1,4.594794876E0
2.183737500E0,-2.456124689E0,-1.305305525E0,1.083478828E0,2.985012123E0
2.193774500E0,5.782912360E-1,-2.552130708E0,2.466854914E0,3.596270995E0
2.203810500E0,2.347684566E0,-4.932070854E0,2.737545623E0,6.109918312E0
2.213847500E0,3.054221760E0,-6.129461921E0,2.402156643E0,7.257336326E0
2.223884500E0,2.882205446E0,-4.987941585E0,1.768738004E0,6.026201425E0
2.233920500E0,9.655052586E-1,-3.465692080E0,8.617579651E-1,3.699438983E0
2.243957500E0,5.492655113E-2,-1.940492654E0,1.273261614E0,2.321577870E0
2.253994500E0,3.429684341E-3,-6.753674412E-1,2.127749443E0,2.232364360E0
2.264030500E0,-9.386510436E-1,-3.990520030E-1,1.805835371E0,2.073969544E0
2.274067500E0,-1.312016813E0,-8.840335178E-1,1.838983237E0,2.425852989E0
2.284103500E0,-1.142324914E0,-2.188478333E0,2.302835984E0,3.376003138E0
2.294140500E0,-6.127972636E-1,-3.965881033E0,2.740068405E0,4.859187969E0
2.304177500E0,4.524423444E-1,-5.204937605E0,3.403778837E0,6.235526434E0
2.314213500E0,1.582933078E0,-4.898109056E0,3.573151624E0,6.266144108E0
2.324250500E0,2.717623283E0,-3.190662444E0,2.933583176E0,5.115829687E0
2.334286500E0,3.382862762E0,-9.605390722E-1,9.242109060E-1,3.636009017E0
2.344323500E0,3.180975947E0,7.919860643E-1,-1.682293206E0,3.684557006E0
2.354360500E0,3.573083797E0,1.910439720E0,-1.763184318E0,4.418769815E0
2.364396500E0,4.513076922E0,2.373155622E0,-9.768848173E-1,5.191727541E0
2.374433500E0,4.337722433E0,1.470670046E0,3.282686801E-1,4.592000285E0
2.384470500E0,4.248666415E0,9.085859764E-1,1.171551783E0,4.499914262E0
2.394506500E0,4.013593143E0,6.377961570E-1,8.159532166E-1,4.145056515E0
2.404543500E0,3.714923215E0,6.295124066E-1,9.934222050E-1,3.896643176E0
2.414579500E0,3.686549016E0,1.117631537E0,2.682082736E-1,3.861564395E0
2.424616500E0,2.682364280E0,1.262398072E0,-9.436119676E-2,2.966080083E0
2.434653500E0,1.334088883E0,1.596117965E0,-3.276836662E-1,2.105887530E0
2.444689500E0,7.182880506E-1,2.489197125E0,-2.049062439E-1,2.598851020E0
2.454726500E0,2.287395680E-1,2.990813384E0,-2.041893753E-1,3.006489612E0
2.464762500E0,-7.867108525E-1,3.117471092E0,-3.662042458E-1,3.235992201E0
2.474799500E0,-1.861658446E0,3.172091687E0,-9.066015776E-1,3.788121469E0
2.484836500E0,-2.560029126E0,3.037467733E0,-2.242514938E0,4.561669936E0
2.494872500E0,-3.058277096E0,2.970010160E0,-3.416181951E0,5.462995357E0
2.504909500E0,-3.153103439E0,2.831610659E0,-2.945308013E0,5.160902975E0
2.514946500E0,-2.693493578E0,2.420404049E0,-1.058659590E0,3.772800490E0
2.524982500E0,-1.765981626E0,1.802688984E0,1.072159349E0,2.741879711E0
2.535019500E0,-1.068998856E0,1.157352258E0,2.705813076E0,3.131077643E0
2.545055500E0,2.179739669E-2,5.336800504E-1,3.714559810E0,3.752764862E0
2.555092500E0,8.173465350E-1,-1.020707506E-1,5.277266493E0,5.341162367E0
2.565129500E0,9.959393582E-1,-4.638496774E-1,6.849282235E0,6.936837814E0
2.575165500E0,8.265507833E-1,-4.415571678E-1,6.059061445E0,6.131099781E0
2.585202500E0,9.638644568E-1,-1.427053910E-1,3.311965857E0,3.452320575E0
2.595238500E0,5.991377293E-1,7.223463106E-1,-5.885734186E-3,9.385013868E-1
2.605275500E0,9.614869058E-3,1.930914915E0,-3.479948176E0,3.979769361E0
2.615312500E0,-4.110434729E-1,2.840286173E0,-6.275806035E0,6.900863980E0
2.625348500E0,-3.286320846E-1,3.304811203E0,-7.618137299E0,8.310583135E0
2.635385500E0,3.414271080E-1,3.109433509E0,-7.141015027E0,7.796104465E0
2.645421500E0,2.014200901E0,2.377183769E0,-6.278817351E0,7.009390506E0
2.655458500E0,3.534001592E0,1.313625528E0,-5.786978806E0,6.906801212E0
2.665495500E0,4.644528762E0,-2.741917294E-1,-4.204526954E0,6.270954906E0
2.675531500E0,3.344983622E0,-1.681186767E0,-7.988372469E-1,3.827981886E0
2.685568500E0,-4.045135217E-1,-2.930901643E0,5.403530756E-2,2.959178171E0
2.695605500E0,-2.326255106E0,-3.831081662E0,-1.193161776E0,4.638133735E0
2.705641500E0,-2.084393801E0,-3.885333298E0,-2.273195132E0,4.960637909E0
2.715678500E0,-2.063235359E0,-3.388502401E0,-2.894555351E0,4.910940780E0
2.725714500E0,-2.782363654E0,-2.494708711E0,-3.350528244E0,5.019079454E0
2.735751500E0,-3.233600595E0,-1.292357451E0,-3.942522576E0,5.260213385E0
2.745788500E0,-2.533544748E0,-8.840639234E-2,-4.765050402E0,5.397441061E0
2.755824500E0,-2.125361440E0,6.885020417E-1,-4.975815629E0,5.454350327E0
2.765861500E0,-1.940138167E0,9.854955733E-1,-3.752923100E0,4.338175818E0
2.775897500E0,-1.937814922E0,8.446437496E-1,-2.122904148E0,2.995875791E0
2.785934500E0,-1.734273491E0,4.355538315E-1,-8.732698171E-1,1.989977853E0
2.795971500E0,-1.708805505E0,-2.984009564E-2,1.552003793E-1,1.716098436E0
2.806007500E0,-5.828974532E-1,-3.839223325E-2,1.492657331E0,1.602894043E0
2.816044500E0,1.688204156E0,1.849439228E-1,2.292019658E0,2.852646428E0
2.826080500E0,3.832545805E0,-3.149251878E-2,2.698544987E0,4.687381377E0
2.836117500E0,5.274245237E0,-5.257260829E-1,2.651908765E0,5.926775753E0
2.846154500E0,6.334617330E0,-1.326762468E0,1.629032088E0,6.673935938E0
2.856190500E0,7.620241127E0,-2.145288459E0,6.460097408E-1,7.942774452E0
2.866227500E0,8.188689306E0,-3.549313111E0,-1.455325198E-1,8.925997750E0
2.876264500E0,6.159521288E0,-5.746526599E0,-1.351316096E0,8.531607447E0
2.886300500E0,2.440688771E0,-7.363105141E0,-1.055871491E0,7.828610579E0
2.896337500E0,-1.557648402E0,-7.638677398E0,-2.194601829E-1,7.798962989E0
2.906373500E0,-6.364417664E0,-6.574476548E0,-5.844575635E-1,9.169031832E0
2.916410500E0,-1.059802458E1,-6.478755289E0,-1.224854270E-1,1.242205288E1
2.926447500E0,-9.188196563E0,-4.519776077E0,3.316501834E0,1.076338777E1
2.936483500E0,-8.402505026E0,-1.502819207E0,5.261880130E0,1.002735951E1
2.946520500E0,-7.737291859E0,1.251771927E-1,5.900301354E0,9.731131009E0
2.956556500E0,-5.809567770E0,1.070901175E0,6.411662582E0,8.718217941E0
2.966593500E0,-3.911192025E0,1.325852056E0,6.478168813E0,7.682576254E0
2.976630500E0,-1.528546079E0,1.387109826E0,7.001260725E0,7.299190265E0
2.986666500E0,9.099050351E-1,2.071375560E0,5.525739244E0,5.970956211E0
2.996703500E0,2.593461751E0,2.524634176E0,4.321760996E0,5.637148187E0
3.006739500E0,3.462508271E0,2.518737259E0,3.086176794E0,5.278019335E0
3.016776500E0,3.998402077E0,2.594673879E0,5.240447161E-1,4.795224142E0
3.026813500E0,3.812235501E0,2.936799729E0,-2.480837069E0,5.414100547E0
3.036849500E0,4.254893700E0,3.104827657E0,-5.042981426E0,7.292169556E0
3.046886500E0,4.352599212E0,2.829206868E0,-5.520687250E0,7.578094689E0
3.056922500E0,4.332920700E0,2.549570212E0,-3.533687889E0,6.145035407E0
3.066959500E0,3.845381320E0,2.241231912E0,-1.283725499E0,4.632281203E0
3.076996500E0,3.153096423E0,1.726630157E0,1.109487535E0,3.762210964E0
3.087032500E0,2.520368632E0,1.686918792E0,3.411428164E0,4.564624319E0
3.097069500E0,2.050664430E0,1.786015064E0,4.397559622E0,5.170455013E0
3.107105750E0,1.741230070E0,1.797633482E0,4.550525707E0,5.193327691E0
3.117141750E0,1.106235460E0,2.107265770E0,3.976299894E0,4.634143585E0
3.127178750E0,7.814194147E-1,2.512140430E0,3.137187611E0,4.094314588E0
3.137214750E0,9.608874200E-1,2.650866206E0,2.014688559E0,3.465453255E0
3.147251750E0,1.131037595E0,3.214897399E0,4.853890657E-2,3.408396595E0
3.157288750E0,8.715419649E-1,4.123744746E0,-2.521118830E0,4.911302911E0
3.167324750E0,-3.044484392E-2,3.620606457E0,-2.787940436E0,4.569718797E0
3.177361750E0,-2.500343088E0,3.509161450E0,3.192468649E-1,4.320630533E0
3.187397750E0,-4.836780827E0,5.091991618E0,8.200978400E0,1.079716973E1
3.197434750E0,-5.161278200E0,-5.354260290E-1,4.783921705E0,7.057717802E0
3.207471750E0,-7.252309175E0,-4.383266981E0,-1.326253760E0,8.577177090E0
3.217507750E0,-7.223069589E0,-3.927412786E0,-5.257901684E0,9.759243597E0
3.227544750E0,-5.319924270E0,-4.389922282E0,-6.605932814E0,9.550463874E0
3.237580750E0,-1.781697334E0,-4.172756107E0,-7.405431966E0,8.684858175E0
3.247617750E0,1.777508973E0,-3.380451955E0,-6.521197304E0,7.557314856E0
3.257654750E0,2.844908397E0,-2.019723011E0,-5.702066710E0,6.684784932E0
3.267690750E0,9.901280299E-1,-1.181610602E0,-5.111169316E0,5.338596155E0
3.277727750E0,-1.170715923E0,-1.385521138E-1,-4.719521642E0,4.864530500E0
3.287763750E0,-2.198392141E0,-4.197072923E-2,-2.843670541E0,3.594600352E0
3.297800750E0,-2.978913715E0,-1.035626092E0,-7.013616769E-1,3.230844553E0
3.307837750E0,-2.021151486E0,-1.771285928E0,1.129039163E0,2.915001989E0
3.317873750E0,-2.940963824E-1,-3.109995427E0,2.705899031E0,4.132850566E0
3.327910750E0,8.143605812E-1,-4.516512746E0,3.692139831E0,5.890158493E0
3.337946750E0,1.190320760E0,-4.813403952E0,3.869826483E0,6.289775681E0
3.347983750E0,9.049381909E-1,-4.131474765E0,3.127330374E0,5.260056286E0
3.358020750E0,-3.012044039E-1,-3.328260877E0,1.802569555E0,3.797012188E0
3.368056750E0,-3.547111049E-1,-2.208597432E0,1.488547031E0,2.686911768E0
3.378093750E0,6.369262375E-1,-9.417081141E-1,1.944346262E0,2.252325818E0
3.388130750E0,2.725912003E-1,-4.515781260E-1,1.142610258E0,1.258485982E0
3.398166750E0,-3.834256116E-1,-7.834988308E-1,8.221910262E-1,1.198700839E0
3.408203750E0,-5.093642579E-1,-1.980463051E0,1.599241694E0,2.596008444E0
3.418239750E0,-5.266527204E-1,-3.442465770E0,2.409996589E0,4.235093532E0
3.428276750E0,-2.653258887E-1,-4.249059348E0,2.855283111E0,5.126162777E0
3.438313750E0,2.276655807E-1,-4.010516338E0,2.988432398E0,5.006675655E0
3.448349750E0,1.302298594E0,-2.655697176E0,2.472131442E0,3.854885599E0
3.458386750E0,2.332122640E0,-7.929648882E-1,1.342113894E0,2.805148664E0
3.468422750E0,3.103180497E0,7.982314754E-1,-3.627846479E-1,3.224672911E0
3.478459750E0,4.350668461E0,1.771419244E0,-1.248433167E0,4.860537786E0
3.488496750E0,5.032848786E0,1.569782690E0,-1.035414715E-1,5.272997765E0
3.498532750E0,5.743502419E0,1.578627189E0,4.102429891E-1,5.970609948E0
3.508569750E0,6.087711632E0,7.808886337E-1,7.067460854E-1,6.178147781E0
3.518605750E0,5.683977179E0,-2.023604393E-2,6.920906241E-1,5.725992971E0
3.528642750E0,4.387406225E0,-4.632994545E-1,1.296922664E-1,4.413705909E0
3.538679750E0,3.128795394E0,-2.769101000E-1,-4.209575732E-1,3.169107935E0
3.548715750E0,2.126521090E0,2.833683497E-1,-5.973375177E-1,2.226926509E0
3.558752750E0,1.841018068E0,1.096514903E0,-3.803507070E-1,2.176317789E0
3.568788750E0,1.347310022E0,1.984615744E0,-2.605038361E-1,2.412841933E0
3.578825750E0,7.263001978E-2,2.298222384E0,-2.120773423E-1,2.309129283E0
3.588862750E0,-6.069285594E-1,2.758830366E0,-3.965830162E-2,2.825080537E0
3.598898750E0,-1.187468781E0,3.152909896E0,-2.419658236E-1,3.377790754E0
3.608935750E0,-1.689164708E0,3.399351325E0,-5.830328894E-1,3.840415888E0
3.618971750E0,-2.076366743E0,3.219205043E0,-7.140324470E-1,3.896719427E0
3.629008750E0,-1.947446456E0,2.888449688E0,-6.358215523E-1,3.541180360E0
3.639045750E0,-1.374787112E0,2.410531025E0,-5.925932331E-1,2.837581041E0
3.649081750E0,-1.201794898E0,1.949187464E0,5.649205542E-1,2.358554214E0
3.659118750E0,-1.061148604E0,1.721382281E0,1.959693156E0,2.815952873E0
3.669154750E0,-1.432603211E0,1.492261475E0,8.131721346E-1,2.222711225E0
3.679191750E0,-5.794537356E-1,7.326157755E-1,6.966840506E-2,9.366676000E-1
3.689228750E0,1.455252108E-1,1.821273190E-1,1.841643720E0,1.856340361E0
3.699264750E0,4.816659974E-1,1.368599296E-1,2.544680185E0,2.593478363E0
3.709301750E0,2.894534739E-1,2.590164506E-1,2.588139031E0,2.617123703E0
3.719338750E0,-9.399574578E-2,7.046538055E-1,1.494922543E0,1.655344554E0
3.729374750E0,-7.498109749E-1,1.272375176E0,2.345434412E-1,1.495381460E0
3.739411750E0,-1.671858850E0,2.004457101E0,5.913058955E-2,2.610834485E0
3.749447750E0,-1.487565722E0,2.768295254E0,-7.323392022E-1,3.226860873E0
3.759484750E0,-4.438068840E-1,2.528884517E0,-3.173455843E0,4.082039127E0
3.769521750E0,-2.744153854E-1,1.841678803E0,-5.288235869E0,5.606471549E0
3.779557750E0,1.192659062E0,1.121010059E0,-5.872411305E0,6.096254073E0
3.789594750E0,3.670635234E0,6.198300022E-1,-6.278650120E0,7.299260208E0
3.799630750E0,5.560547719E0,1.582858819E-1,-6.309295378E0,8.411418044E0
3.809667750E0,5.590383722E0,-4.026725990E-1,-4.405903891E0,7.129272367E0
3.819704750E0,3.233935348E0,-1.397548860E0,-2.359181362E0,4.239954876E0
3.829740750E0,1.102770473E0,-2.857762331E0,-2.817289073E0,4.161733531E0
3.839777750E0,4.047514303E-1,-4.000788910E0,-4.197729566E0,5.813008613E0
3.849813750E0,-8.446040616E-1,-4.333592545E0,-3.516527773E0,5.644408555E0
3.859850750E0,-2.990701702E0,-3.917300026E0,-2.364655525E0,5.466363684E0
3.869887750E0,-5.433093036E0,-2.424612874E0,-2.303069726E0,6.379763137E0
3.879923750E0,-5.009665745E0,-3.695615709E-2,-3.692389215E0,6.223492167E0
3.889960750E0,-3.383899181E0,1.214188948E0,-5.664303052E0,6.708901366E0
3.899996750E0,-3.295419990E0,1.383603836E0,-5.557320056E0,6.607416946E0
3.910033750E0,-3.324188876E0,1.087882658E0,-3.507775075E0,4.953605388E0
3.920070750E0,-2.736415649E0,5.382952577E-1,-1.348469671E0,3.097757712E0
3.930106750E0,-2.229274356E0,-1.643096834E-1,7.672283685E-1,2.363324184E0
3.940143750E0,-1.208112376E0,-6.960203916E-1,2.350434512E0,2.732859728E0
3.950179750E0,9.419968935E-1,-7.278502947E-1,2.329101530E0,2.615690757E0
3.960216750E0,3.000874688E0,-6.551430917E-1,2.340839231E0,3.861863497E0
3.970253750E0,4.532667141E0,-6.523030990E-1,2.528062398E0,5.230838388E0
3.980289750E0,5.829562908E0,-9.004881674E-1,1.815023686E0,6.171628118E0
3.990326750E0,7.089239101E0,-1.635453939E0,7.667081125E-1,7.315727028E0
4.000362750E0,8.932931685E0,-2.526893540E0,5.124864518E-1,9.297585806E0
4.010399750E0,8.900581965E0,-4.130777777E0,-3.606914909E-1,9.819052027E0
4.020436750E0,6.410632303E0,-5.984171476E0,-8.134719506E-1,8.807283996E0
4.030472750E0,3.393368454E0,-6.316893834E0,2.427281544E-2,7.170682419E0
4.040509750E0,-7.742309940E-1,-6.032052571E0,-8.881907420E-1,6.146053583E0
4.050545750E0,-6.072591902E0,-6.455244804E0,-1.189185962E0,8.942075885E0
4.060582750E0,-1.039621144E1,-6.305592336E0,1.542849538E0,1.225651221E1
4.070619750E0,-1.090497767E1,-4.170292091E0,5.191006029E0,1.277718348E1
4.080655750E0,-1.178446088E1,-2.384255392E0,6.008622778E0,1.344104683E1
4.090692750E0,-9.521275601E0,1.807432830E-2,6.982077180E0,1.180696479E1
4.100728750E0,-7.393702451E0,1.403688437E0,7.814938205E0,1.084944406E1
4.110766542E0,-5.040662420E0,1.370915962E0,8.123660667E0,9.658237460E0
4.120803542E0,-2.525847181E0,2.142858941E0,7.550409000E0,8.245024226E0
4.130839542E0,1.723324142E0,3.208766009E0,7.036484352E0,7.923265579E0
4.140876542E0,3.521698758E0,2.996405661E0,4.038823879E0,6.139454972E0
4.150912542E0,2.384845084E0,2.537536057E0,-1.140464184E0,3.664319018E0
4.160949542E0,1.993163496E0,2.732187527E0,-5.135125358E0,6.148744738E0
4.170986542E0,2.361216631E0,3.078631546E0,-5.476315069E0,6.711433745E0
4.181022542E0,4.580354986E0,2.731674727E0,-6.099457519E0,8.102165182E0
4.191059542E0,6.196597313E0,2.905538176E0,-4.389412989E0,8.130616012E0
4.201096542E0,7.433329616E0,2.926490504E0,-8.495978031E-1,8.033713480E0
4.211132542E0,6.298883241E0,2.179035079E0,1.209531349E0,6.774001036E0
4.221169542E0,4.548382118E0,2.195003241E0,2.866970234E0,5.807352016E0
4.231205542E0,2.843591604E0,2.362092690E0,3.992137662E0,5.440832492E0
4.241242542E0,1.363250263E0,2.321945708E0,4.426876977E0,5.181420936E0
4.251279542E0,6.031107661E-1,2.237999572E0,4.170078960E0,4.770947831E0
4.261315542E0,5.842375620E-1,2.383535015E0,3.447272473E0,4.231578925E0
4.271352542E0,1.275916688E0,2.508599356E0,2.496225479E0,3.761937768E0
4.281388542E0,1.672581419E0,2.639618502E0,1.183424700E0,3.341497937E0
4.291425542E0,1.009046404E0,3.219149494E0,-7.023593581E-1,3.445926113E0
4.301461542E0,8.301964492E-2,3.548502102E0,-2.746721074E0,4.488121666E0
4.311498542E0,-4.101128885E-1,2.909528900E0,-2.526086040E0,3.874875699E0
4.321535542E0,-3.403908353E-1,4.092476175E0,1.866344697E0,4.510816966E0
4.331571542E0,-1.673257650E0,3.161915193E0,6.378200136E0,7.312929361E0
4.341608542E0,-5.577232749E0,-2.017871198E0,-2.080792501E0,6.285461537E0
4.351645542E0,-1.142411920E1,-4.940826475E0,-5.436286200E0,1.358217484E1
4.361681542E0,-6.817879763E0,-4.026873924E0,-4.851566097E0,9.286382054E0
4.371718542E0,-3.428829186E0,-4.311456156E0,-6.592197704E0,8.590843634E0
4.381754542E0,3.277283974E-1,-4.619647690E0,-7.296600080E0,8.642275360E0
4.391791542E0,2.973457679E0,-3.444433942E0,-6.401827565E0,7.854232740E0
4.401828542E0,1.701139513E0,-2.398313853E0,-5.550651891E0,6.281363021E0
4.411864542E0,-1.311740094E0,-2.340172648E0,-4.187925539E0,4.973508864E0
4.421901542E0,-3.397094885E0,-2.285868972E0,-1.678468104E0,4.425235111E0
4.431937542E0,-4.013328264E0,-1.862077399E0,4.014461455E-1,4.442442460E0
4.441974542E0,-2.985715489E0,-2.547786226E0,2.174041996E0,4.486888703E0
4.452011542E0,-7.352946773E-1,-4.078862688E0,3.953530544E0,5.727842775E0
4.462047542E0,1.855219493E0,-4.027653943E0,4.532911263E0,6.341223869E0
4.472084542E0,3.259445873E0,-2.757873761E0,3.492001626E0,5.515789195E0
4.482120542E0,1.776367889E0,-2.158431246E0,2.426650775E0,3.701748547E0
4.492157542E0,4.284965345E-1,-1.740676923E0,2.651346263E0,3.200500342E0
4.502194542E0,3.197564498E-1,-1.067346067E0,2.643815341E0,2.869012264E0
4.512230542E0,1.464126720E-1,-7.567846566E-1,2.022448983E0,2.164361240E0
4.522267542E0,-5.709129269E-1,-1.631125245E0,1.000976369E0,1.997114125E0
4.532303542E0,-8.973385647E-1,-3.414354111E0,1.013430938E0,3.672883440E0
4.542340542E0,-4.157589599E-1,-4.972908978E0,2.103078286E0,5.415313241E0
4.552377542E0,5.429975885E-1,-5.175581074E0,3.042427634E0,6.028088564E0
4.562413542E0,1.742308881E0,-4.317761208E0,2.881897298E0,5.475767903E0
4.572450542E0,2.759665348E0,-3.249035198E0,2.457231275E0,4.920362597E0
4.582486542E0,3.382427729E0,-1.429388119E0,1.484992509E0,3.960955754E0
4.592523542E0,3.774987568E0,4.932757902E-1,-2.860376036E-1,3.817809536E0
4.602560542E0,4.243168278E0,1.951912851E0,-7.242596658E-1,4.726414379E0
4.612596542E0,4.903287351E0,1.852403181E0,5.615665913E-3,5.241531830E0
4.622633542E0,4.979904002E0,1.112888276E0,1.146157033E0,5.229879552E0
4.632669542E0,4.499253520E0,6.572211921E-1,1.511771441E0,4.791729836E0
4.642706542E0,4.106815302E0,4.155668789E-1,5.626274224E-1,4.165954557E0
4.652743542E0,3.917686527E0,-3.391238898E-1,2.786209953E-1,3.942195124E0
4.662779542E0,2.875933138E0,-5.677061677E-1,1.341282274E0,3.223712122E0
4.672816542E0,2.023088961E0,4.594975948E-1,1.575180401E0,2.604845539E0
4.682852542E0,1.098015152E0,1.444218412E0,9.996741942E-1,2.071413187E0
4.692889542E0,1.132190520E-1,2.295365435E0,5.684290297E-1,2.367410525E0
4.702926542E0,-7.222960246E-1,2.824180602E0,4.755425008E-1,2.953616138E0
4.712962542E0,-9.508841497E-1,3.317887917E0,3.937469704E-1,3.473844782E0
4.722999542E0,-7.780979770E-1,3.535787916E0,-1.955674365E-2,3.620444050E0
4.733035542E0,-1.167629763E0,3.184906445E0,-9.513875949E-1,3.523084825E0
4.743072542E0,-1.875861626E0,2.844104404E0,-1.858518930E0,3.880963710E0
4.753109542E0,-2.041321164E0,2.637994730E0,-2.509447203E0,4.174126682E0
4.763145542E0,-1.931608395E0,2.441551673E0,-1.860391062E0,3.626753434E0
4.773182542E0,-1.288857161E0,2.367609538E0,-1.220674022E0,2.959184478E0
4.783218542E0,-5.554403172E-1,1.915634387E0,-1.502450248E0,2.497103481E0
4.793255542E0,-8.081539080E-2,1.226686787E0,-1.052484784E0,1.618337363E0
4.803292542E0,1.491627637E-1,5.626804858E-1,7.197546785E-1,9.256919879E-1
4.813328542E0,3.282410520E-1,1.614199895E-1,2.570301515E0,2.596198852E0
4.823365542E0,-1.439323562E-1,-1.162397236E-1,3.322600772E0,3.327747600E0
4.833401542E0,-1.840603354E-1,-2.347692168E-1,2.922855874E0,2.938040377E0
4.843438542E0,8.119604453E-2,-2.309398752E-1,2.455408405E0,2.467581095E0
4.853475542E0,1.043336231E-1,1.416780353E-1,2.075650460E0,2.083094573E0
4.863511542E0,-4.082922117E-1,1.002900980E0,1.810830063E0,2.109885879E0
4.873548542E0,-1.266327108E0,1.932016531E0,9.405608904E-1,2.494178624E0
4.883584542E0,-1.233103375E0,2.435687501E0,-1.178769439E0,2.973653465E0
4.893621542E0,-3.677391399E-1,2.292893232E0,-2.316630589E0,3.280147669E0
4.903658542E0,1.151505773E0,1.592951698E0,-3.695723298E0,4.185908665E0
4.913694542E0,3.310337407E0,1.017182220E0,-6.470273902E0,7.338762688E0
4.923731542E0,5.613394269E0,4.041496056E-1,-8.285179474E0,1.001587395E1
4.933767542E0,5.854918190E0,-1.082261145E-2,-8.105286376E0,9.998792496E0
4.943804542E0,3.999313950E0,2.700378674E-1,-5.478554553E0,6.788371860E0
4.953841542E0,9.725001365E-1,-7.028961325E-1,-3.382465736E0,3.588996230E0
4.963877542E0,-8.119382259E-1,-2.016614631E0,-2.997763969E0,3.703048348E0
4.973914542E0,-8.326749377E-2,-2.981740844E0,-2.149928809E0,3.676942456E0
4.983950542E0,-6.685285378E-1,-3.609600243E0,-1.256553195E0,3.880086372E0
4.993987542E0,-2.900830875E0,-3.357568876E0,-7.506000566E-1,4.500165438E0
5.004024542E0,-4.971572889E0,-1.851100422E0,-1.082572217E0,5.414339513E0
5.014060542E0,-5.446428781E0,-2.164990067E-1,-3.285215430E0,6.364204483E0
5.024097542E0,-3.927291164E0,3.613684523E-1,-5.082521467E0,6.433212845E0
5.034133542E0,-3.124871036E0,3.931404680E-1,-4.639173882E0,5.607255365E0
5.044170542E0,-2.395233539E0,2.781941485E-1,-3.028449572E0,3.871181022E0
5.054207542E0,-2.046935661E0,-2.155266148E-1,-1.239058911E0,2.402428834E0
5.064243542E0,-1.852321320E0,-9.694905746E-1,6.197756231E-1,2.180625614E0
5.074280542E0,-9.295730221E-1,-1.538985990E0,1.661085209E0,2.447812892E0
5.084316542E0,6.611785877E-1,-1.365004427E0,2.181011438E0,2.656540063E0
5.094353542E0,2.659876181E0,-7.644123495E-1,2.408636527E0,3.668895945E0
5.104390542E0,4.446138875E0,-4.190974277E-1,2.002817541E0,4.894391857E0
5.114426292E0,5.333034312E0,-4.999872243E-1,1.085580025E0,5.465320319E0
5.124463292E0,6.565280047E0,-8.434667051E-1,5.537101992E-1,6.642359006E0
5.134499292E0,7.943948248E0,-1.370195585E0,7.080334961E-1,8.092284050E0
5.144536292E0,7.870729998E0,-2.414335223E0,-4.876124695E-2,8.232847802E0
5.154573292E0,5.136631016E0,-4.027805970E0,-1.264323706E0,6.648812944E0
5.164609292E0,2.310172924E0,-4.471290380E0,-1.623513486E0,5.288206940E0
5.174646292E0,-9.612027311E-1,-4.941978377E0,-1.681936380E0,5.308104271E0
5.184682292E0,-5.285658417E0,-4.760442211E0,-1.917246902E0,7.367213220E0
5.194719292E0,-8.871000901E0,-5.330638708E0,2.369503744E-1,1.035212594E1
5.204755292E0,-9.937875098E0,-4.636724483E0,3.702982908E0,1.157465584E1
5.214792292E0,-1.029441375E1,-2.950368778E0,5.816492043E0,1.218651755E1
5.224829292E0,-9.512400112E0,-1.444200870E0,6.303064000E0,1.150217753E1
5.234865292E0,-6.698069730E0,-5.432250452E-1,7.111281935E0,9.784148523E0
5.244902292E0,-4.020073612E0,5.136246854E-1,7.766848950E0,8.760636094E0
5.254938292E0,-1.372598353E0,1.683732644E0,7.845527914E0,8.140718034E0
5.264975292E0,4.893330127E-1,1.988284287E0,7.127678697E0,7.415964186E0
5.275012292E0,2.031736847E0,1.373185267E0,5.654415995E0,6.163279374E0
5.285048292E0,2.085210365E0,1.672094346E0,3.844648664E0,4.682448624E0
5.295085292E0,2.353585284E0,2.429180719E0,2.117129146E0,3.990303056E0
5.305122292E0,3.465234535E0,2.859639872E0,-2.581041388E-1,4.500223142E0
5.315158292E0,3.219098623E0,2.853389783E0,-4.060072368E0,5.915117652E0
5.325195292E0,3.560671327E0,2.410777193E0,-6.444380093E0,7.747274472E0
5.335231292E0,4.011522059E0,2.229083737E0,-5.667910784E0,7.292896283E0
5.345268292E0,4.297940902E0,2.019719503E0,-4.000901762E0,6.209571464E0
5.355304292E0,3.055360798E0,1.882720410E0,-1.388996723E0,3.848269434E0
5.365341292E0,2.543341173E0,1.997243391E0,2.240010137E0,3.933854458E0
5.375378292E0,2.282920367E0,2.146269622E0,3.943179511E0,5.036552724E0
5.385414292E0,1.736958240E0,2.479724051E0,4.846557372E0,5.714470549E0
5.395451292E0,1.036169591E0,2.742553471E0,4.862434317E0,5.677897009E0
5.405487292E0,6.718485868E-1,3.086131185E0,3.157506685E0,4.466031200E0
5.415524292E0,8.632032506E-1,3.386831852E0,8.226310292E-1,3.590608814E0
5.425561292E0,1.323984163E0,3.536418246E0,-1.386021075E-1,3.778676834E0
5.435597292E0,5.357786892E-1,4.289967054E0,-1.403115994E0,4.545284437E0
5.445634292E0,-8.464043462E-1,4.901622064E0,-2.216028366E0,5.445464249E0
5.455670292E0,-2.309540255E0,5.005383829E0,-3.203250915E-2,5.512610048E0
5.465707292E0,-4.840715126E0,6.398236206E0,8.069863944E0,1.137948389E1
5.475744292E0,-7.916468089E0,4.269642717E-1,3.284432195E0,8.581390350E0
5.485780292E0,-9.040716335E0,-4.175376245E0,-1.884964279E0,1.013515708E1
5.495817292E0,-5.544282519E0,-5.400190169E0,-4.593870532E0,9.000264939E0
5.505853292E0,-2.469960663E0,-6.180674760E0,-5.921920849E0,8.909017494E0
5.515890292E0,1.473199406E-1,-5.568139159E0,-5.762690642E0,8.014641620E0
5.525927292E0,2.164232268E0,-4.020771770E0,-4.898736755E0,6.696874549E0
5.535963292E0,2.315385132E0,-2.514680461E0,-3.084931337E0,4.604500785E0
5.546000292E0,4.854127470E-1,-1.541775112E0,-2.490648404E0,2.969179265E0
5.556036292E0,-1.742239299E0,-1.005502991E0,-2.876752041E0,3.510290066E0
5.566073292E0,-2.580496428E0,-9.529295057E-1,-2.404843584E0,3.653807483E0
5.576110292E0,-2.789545789E0,-1.499071727E0,-1.375489362E0,3.452644311E0
5.586146292E0,-1.526189651E0,-1.225919048E0,-9.421662435E-1,2.172512277E0
5.596183292E0,2.220050374E-1,-1.814662328E0,-4.417510030E-1,1.880805559E0
5.606219292E0,1.022579200E0,-3.315910973E0,3.191129637E-1,3.484647311E0
5.616256292E0,7.597013940E-1,-4.195119953E0,1.079908518E0,4.397997276E0
5.626293292E0,2.436553766E-1,-3.968216411E0,1.817038636E0,4.371239965E0
5.636329292E0,-9.165957847E-1,-3.703941559E0,2.248037048E0,4.428656848E0
5.646366292E0,-1.185650443E0,-2.699874644E0,2.655759449E0,3.968393670E0
5.656402292E0,-4.395492339E-1,-9.404404378E-1,3.153147586E0,3.319634233E0
5.666439292E0,-5.951426192E-1,3.128903568E-2,3.029757010E0,3.087814968E0
5.676476292E0,-1.008265070E0,6.687168181E-2,2.387986354E0,2.592980736E0
5.686512292E0,-8.967222682E-1,-6.834915626E-1,2.110346814E0,2.392662788E0
5.696549292E0,-4.977405779E-1,-1.861031917E0,2.183201952E0,2.911624330E0
5.706585292E0,-1.713511929E-1,-3.134274820E0,2.368038286E0,3.932002696E0
5.716622292E0,2.291952123E-1,-3.708011806E0,2.423516668E0,4.435686535E0
5.726659292E0,1.181507398E0,-3.032798731E0,2.209213729E0,3.933758149E0
5.736695292E0,2.272197158E0,-1.615198014E0,1.893704843E0,3.370142814E0
5.746732292E0,3.841265173E0,-2.486610317E-1,1.709452207E0,4.211814014E0
5.756768292E0,4.324990121E0,3.784405679E-1,1.076348514E0,4.472950138E0
5.766805292E0,4.022863904E0,4.098190659E-1,4.133174551E-1,4.064753003E0
5.776842292E0,4.120679051E0,4.879524851E-1,7.911528361E-1,4.224217830E0
5.786878292E0,4.137920735E0,5.506393147E-1,1.024246314E0,4.298217326E0
5.796915292E0,3.888600723E0,6.151083755E-1,-5.220511079E-2,3.937295933E0
5.806951292E0,3.577849862E0,6.440848374E-1,-6.524299836E-1,3.693442811E0
5.816988292E0,2.999595317E0,7.246273094E-1,-8.886703598E-1,3.211291300E0
5.827025292E0,2.560564147E0,1.152389141E0,-1.228081348E0,3.064746854E0
5.837061292E0,2.147466839E0,1.456193510E0,-1.721933674E0,3.114027768E0
5.847098292E0,1.590782381E0,1.922821784E0,-2.423622941E0,3.478761325E0
5.857134292E0,1.004271275E0,2.293003744E0,-3.074591120E0,3.964787198E0
5.867171292E0,1.649659603E-1,2.533031947E0,-3.725849322E0,4.508371966E0
5.877208292E0,-4.154959814E-1,2.869173757E0,-3.838837409E0,4.810557931E0
5.887244292E0,-1.314062461E0,2.654512530E0,-3.564084932E0,4.634209568E0
5.897281292E0,-2.221299485E0,2.215694783E0,-2.571425350E0,4.056562967E0
5.907317292E0,-2.731039134E0,1.918488997E0,-5.477765179E-1,3.382193652E0
5.917354292E0,-2.824322689E0,1.748611010E0,1.536012096E0,3.659750303E0
5.927391292E0,-2.728816315E0,1.494403895E0,2.943614659E0,4.283053671E0
5.937427292E0,-2.687818270E0,1.398316015E0,3.886962333E0,4.928298987E0
5.947464292E0,-2.253829885E0,1.404208254E0,4.492001803E0,5.218201814E0
5.957500292E0,-1.617238693E0,1.180545824E0,4.687248520E0,5.097003837E0
5.967537292E0,-5.517984521E-1,5.842321533E-1,4.404583590E0,4.477294422E0
5.977574292E0,1.192710883E0,1.005738634E-1,4.450219939E0,4.608376271E0
5.987610292E0,2.272051417E0,-8.443964124E-3,4.801216600E0,5.311682387E0
5.997647292E0,2.536104659E0,3.131827176E-1,3.895689887E0,4.659003107E0
6.007683292E0,1.276118856E0,1.125377929E0,9.148378193E-1,1.931808234E0
6.017720292E0,-3.180978139E-1,2.008056062E0,-2.533671048E0,3.248532645E0
6.027757292E0,-1.328592061E0,3.029338349E0,-4.208152227E0,5.352624858E0
6.037793292E0,-1.159287833E0,3.801881837E0,-4.982435846E0,6.373611279E0
6.047830292E0,1.240383013E0,2.759670610E0,-6.259486456E0,6.952373881E0
6.057866292E0,3.789925158E0,1.265992940E0,-7.691469569E0,8.667466467E0
6.067903292E0,5.899066422E0,3.867272419E-1,-8.504638342E0,1.035748116E1
6.077939292E0,4.725052231E0,-4.396813810E-1,-7.170296713E0,8.598406437E0
6.087976292E0,1.534313188E0,-1.042812320E0,-2.971642703E0,3.503174967E0
6.098013292E0,-9.525469516E-1,-1.581810413E0,-3.826359451E-1,1.885704151E0
6.108049417E0,-2.256018644E0,-2.724900143E0,-5.402464736E-1,3.578626435E0
6.118086417E0,-2.374131669E0,-3.595769239E0,-2.334797888E0,4.900748798E0
6.128122417E0,-3.418512358E0,-3.387970889E0,-3.899216927E0,6.194228454E0
6.138159417E0,-5.633942555E0,-1.886380767E0,-4.222074448E0,7.288734715E0
6.148196417E0,-6.320112727E0,-2.890617836E-1,-4.460128630E0,7.740809324E0
6.158232417E0,-4.423477698E0,3.833615845E-1,-4.477698344E0,6.305862630E0
6.168269417E0,-3.569651481E0,2.159891295E-1,-3.929513690E0,5.313204386E0
6.178305417E0,-2.955017607E0,-2.471325696E-1,-2.735476002E0,4.034356519E0
6.188342417E0,-2.080429827E0,-1.174646568E0,-1.269283168E0,2.705376607E0
6.198379417E0,-1.417001670E0,-1.861092728E0,6.175946847E-1,2.419293920E0
6.208415417E0,-5.493327543E-2,-1.838910731E0,1.761628082E0,2.547144252E0
6.218452417E0,1.893327844E0,-1.431344597E0,2.128646114E0,3.188192585E0
6.228488417E0,4.147509584E0,-9.766247624E-1,2.266359737E0,4.826180492E0
6.238525417E0,6.145295012E0,-7.774703515E-1,2.300535543E0,6.607690574E0
6.248562417E0,7.444670291E0,-7.164143103E-1,2.087003267E0,7.764788976E0
6.258598417E0,8.471355990E0,-1.380484346E0,1.778900757E0,8.765506103E0
6.268635417E0,8.403665113E0,-2.766008992E0,1.641397487E0,8.998143075E0
6.278671417E0,6.999839852E0,-4.358001162E0,1.277124138E0,8.343918632E0
6.288708417E0,4.009577568E0,-5.044706939E0,6.597869503E-1,6.477738741E0
6.298745417E0,4.215818000E-1,-5.007380068E0,8.682062745E-2,5.025845619E0
6.308781417E0,-3.007625591E0,-5.112429975E0,-6.729278366E-1,5.969554742E0
6.318818417E0,-7.818234866E0,-4.821673084E0,-2.288483554E0,9.466281462E0
6.328854417E0,-1.024233143E1,-5.599380832E0,-7.374297881E-1,1.169624818E1
6.338891417E0,-9.181893264E0,-4.942519244E0,5.840360377E0,1.195179776E1
6.348928417E0,-8.586878845E0,-2.144563404E0,6.028954132E0,1.070896486E1
6.358964417E0,-7.333175583E0,-2.926274157E-1,6.607810355E0,9.875436832E0
6.369001417E0,-5.433075494E0,8.187516940E-1,7.796945153E0,9.538397003E0
6.379037417E0,-3.669262893E0,1.192605121E0,7.669522630E0,8.585299909E0
6.389074417E0,-2.618126476E0,1.629471068E0,6.474110845E0,7.171044097E0
6.399111417E0,4.251452029E-2,2.698908100E0,5.673901842E0,6.283237583E0
6.409147417E0,2.199802051E0,3.083359020E0,5.089684306E0,6.344376900E0
6.419184417E0,2.758218162E0,2.555957710E0,2.882585808E0,4.738141849E0
6.429220417E0,2.726795225E0,2.395120103E0,-1.580641847E0,3.958590805E0
6.439257417E0,2.592819142E0,2.451236417E0,-6.416340355E0,7.341709244E0
6.449294417E0,2.744314068E0,2.977531434E0,-7.329708184E0,8.373862622E0
6.459330417E0,4.400187361E0,3.443690177E0,-5.575920049E0,7.893765593E0
6.469367417E0,5.337450129E0,3.237680490E0,-3.482730281E0,7.148451514E0
6.479403417E0,4.675377795E0,2.295629144E0,-1.251992659E0,5.356916680E0
6.489440417E0,3.912373747E0,1.570599546E0,1.591947146E0,4.506411764E0
6.499477417E0,3.230255696E0,1.655399961E0,3.390019461E0,4.966601739E0
6.509513417E0,2.218943203E0,1.927673804E0,3.836257325E0,4.832856867E0
6.519550417E0,1.223514965E0,2.033956304E0,4.036467451E0,4.682631375E0
6.529586417E0,4.504193540E-1,2.059660079E0,3.907139027E0,4.439686094E0
6.539623417E0,-2.153529525E-2,2.360667724E0,3.238785321E0,4.007860555E0
6.549659417E0,-1.188952366E-1,3.061007454E0,2.096498122E0,3.712035437E0
6.559696417E0,-5.354713449E-1,4.257411511E0,1.683480629E-1,4.294254697E0
6.569733417E0,-2.270959157E0,4.493215100E0,-4.212506649E-1,5.052097540E0
6.579769417E0,-3.036768991E0,4.139605318E0,1.907862560E0,5.477064692E0
6.589806417E0,-4.590351970E0,4.414623259E0,6.064602267E0,8.794295332E0
6.599842417E0,-3.235934511E0,1.659710528E0,2.692791620E0,4.525156120E0
6.609879417E0,-3.899291187E0,-2.495945397E0,-4.827084682E0,6.688419971E0
6.619916417E0,-5.784303120E0,-3.174430574E0,-9.767039337E0,1.178686682E1
6.629952417E0,-4.490525966E0,-2.922455340E0,-8.683917482E0,1.020372439E1
6.639989417E0,-3.070759440E0,-2.808293132E0,-7.312751259E0,8.413822248E0
6.650025417E0,-1.973414525E0,-3.885478309E0,-4.629766589E0,6.358147942E0
6.660062417E0,1.150828519E-1,-3.251010388E0,-1.275824156E0,3.494286748E0
6.670099417E0,5.342995629E-1,-1.800427281E0,3.262211314E-1,1.906157036E0
6.680135417E0,-7.035823032E-1,-6.114240450E-1,-3.866208225E-2,9.329320322E-1
6.690172417E0,-1.537706620E0,-7.040117812E-1,-1.035950905E0,1.983272173E0
6.700208417E0,-1.134701606E0,-1.172911699E0,-4.732780203E-1,1.699194419E0
6.710245417E0,-2.098122771E-1,-1.086744790E0,3.126202154E-1,1.150116007E0
6.720282417E0,4.046344860E-1,-2.551119139E0,2.580358726E-1,2.595866029E0
6.730318417E0,9.895905246E-1,-4.992413535E0,3.262138224E-1,5.099989977E0
6.740355417E0,8.711608726E-1,-6.693025922E0,4.405608022E-1,6.763845879E0
6.750391417E0,5.389270493E-1,-6.697454603E0,8.697549096E-1,6.775161557E0
6.760428417E0,6.078636754E-1,-4.666597323E0,2.442569235E0,5.302147989E0
6.770465417E0,5.755395363E-1,-2.279194375E0,3.546014404E0,4.254431914E0
6.780501417E0,5.120991468E-2,-1.040423732E0,3.575355440E0,3.724012691E0
6.790538417E0,-5.103141381E-1,-7.103408074E-1,3.144143458E0,3.263532238E0
6.800574417E0,-1.038242429E0,-1.357046952E0,2.697698018E0,3.193289584E0
6.810611417E0,-1.082479392E0,-2.815510935E0,3.056084391E0,4.294009230E0
6.820648417E0,-6.813979670E-1,-4.381918613E0,3.359338828E0,5.563332749E0
6.830684417E0,-7.037815471E-1,-5.511692478E0,3.362891597E0,6.494851987E0
6.840721417E0,-4.352437828E-1,-5.413363361E0,3.428523961E0,6.422516374E0
6.850757417E0,4.811026181E-1,-3.555065017E0,2.943482512E0,4.640478025E0
6.860794417E0,1.511035130E0,-1.174222060E0,1.652550613E0,2.528427997E0
6.870831417E0,2.756649354E0,6.333329773E-1,1.314231884E-1,2.831518740E0
6.880867417E0,3.528001764E0,1.571150354E0,-9.147641444E-1,3.968891951E0
6.890904417E0,4.662176828E0,2.018274071E0,-6.798393917E-1,5.125573588E0
6.900940417E0,5.698695205E0,1.867793053E0,-7.019570696E-1,6.037923622E0
6.910977417E0,6.029241230E0,1.108170158E0,-6.902417345E-1,6.168972731E0
6.921014417E0,5.584743497E0,8.963389832E-1,-6.482478357E-1,5.693242377E0
6.931050417E0,4.860386622E0,1.054398578E0,-7.241706419E-1,5.025886747E0
6.941087417E0,4.333062202E0,1.149556165E0,-7.709331644E-1,4.548763059E0
6.951123417E0,3.511312641E0,1.338000816E0,-7.842390152E-1,3.838566592E0
6.961160417E0,2.361374360E0,1.666679240E0,-9.977046327E-1,3.057666282E0
6.971197417E0,1.405211636E0,2.183400611E0,-1.243784630E0,2.879037717E0
6.981233417E0,6.785825327E-2,2.687615372E0,-1.952371273E0,3.322594576E0
6.991270417E0,-8.057935332E-1,2.874788253E0,-2.786729186E0,4.084062961E0
7.001306417E0,-1.500483976E0,2.858280979E0,-2.999699982E0,4.406747360E0
7.011343417E0,-2.032625916E0,2.923753422E0,-3.064004152E0,4.697661506E0
7.021379417E0,-2.575897008E0,2.851549664E0,-2.766639322E0,4.735068534E0
7.031416417E0,-2.732286345E0,2.675599928E0,-1.220256458E0,4.014131223E0
7.041453417E0,-2.198465962E0,2.461220537E0,5.235142274E-1,3.341395856E0
7.051489417E0,-1.754062954E0,2.041242519E0,1.893221863E0,3.290546594E0
7.061526417E0,-1.496212731E0,1.648773896E0,2.864612929E0,3.628100760E0
7.071562417E0,-1.128574894E0,1.162602473E0,3.543703877E0,3.896557836E0
7.081599417E0,-7.645816994E-1,6.929786700E-1,3.723128028E0,3.863481192E0
7.091636417E0,-2.796895009E-1,3.673595095E-1,4.523293762E0,4.546797300E0
7.101672417E0,8.978494652E-2,2.655641627E-1,4.607432857E0,4.615953118E0
7.111709000E0,1.912960455E-1,3.929714835E-1,3.466954494E0,3.494394686E0
7.121745000E0,3.791457421E-1,7.073809469E-1,1.224992849E0,1.464495400E0
7.131782000E0,1.738662265E-1,1.116244578E0,-9.185027810E-1,1.455980350E0
7.141819000E0,-2.508025014E-1,1.879462926E0,-2.681443051E0,3.284116262E0
7.151855000E0,-6.247502880E-1,2.570537742E0,-4.725134969E0,5.415244933E0
7.161892000E0,-6.857958772E-1,3.144877576E0,-5.538200830E0,6.405641216E0
7.171928000E0,-2.699215078E-1,2.950677511E0,-6.018355469E0,6.708200798E0
7.181965000E0,1.000666978E0,1.901734970E0,-6.071721836E0,6.440786936E0
7.192002000E0,3.242341890E0,9.553584391E-1,-5.831303040E0,6.740147315E0
7.202038000E0,5.145385467E0,4.475909096E-1,-4.797389013E0,7.049132611E0
7.212075000E0,5.006241031E0,-4.321016353E-1,-2.503512279E0,5.613976738E0
7.222111000E0,1.843284302E0,-1.822801067E0,-4.175847530E-1,2.625771844E0
7.232148000E0,-1.264073884E0,-3.089750027E0,3.347532788E-2,3.338496460E0
7.242185000E0,-2.544313565E0,-4.087847520E0,-8.425042534E-1,4.888132801E0
7.252221000E0,-2.845251043E0,-4.266149005E0,-2.113994161E0,5.546571206E0
7.262258000E0,-2.754986991E0,-3.376698042E0,-2.773795145E0,5.165847703E0
7.272294000E0,-3.875548568E0,-1.759435961E0,-3.550748602E0,5.542860925E0
7.282331000E0,-3.593958649E0,-2.671434957E-1,-4.303057215E0,5.612860751E0
7.292368000E0,-2.563590665E0,5.019928193E-1,-4.468624635E0,5.176156877E0
7.302404000E0,-2.418355477E0,7.503193903E-1,-3.574683595E0,4.380614706E0
7.312441000E0,-2.063469832E0,6.473943615E-1,-2.340900042E0,3.186979795E0
7.322477000E0,-1.450327291E0,-1.015661359E-1,-1.623601048E0,2.179413979E0
7.332514000E0,-1.150440337E0,-9.290810519E-1,-6.989738933E-1,1.635624980E0
7.342551000E0,-5.492945281E-1,-1.266676480E0,9.619336331E-1,1.682709154E0
7.352587000E0,1.365558451E0,-1.260381952E0,2.046338367E0,2.764202102E0
7.362624000E0,3.505347604E0,-1.357430529E0,2.171779854E0,4.341279443E0
7.372660000E0,5.545613930E0,-1.445805931E0,1.541218457E0,5.934605546E0
7.382697000E0,7.398177910E0,-1.538162702E0,1.261277161E0,7.660926900E0
7.392734000E0,7.746810542E0,-2.193700481E0,1.978674388E-1,8.053852922E0
7.402770000E0,6.867803875E0,-3.580774639E0,-7.762599047E-1,7.784038574E0
7.412807000E0,5.165648993E0,-4.917075670E0,-4.479714172E-1,7.145784845E0
7.422843000E0,2.407691032E0,-5.600335683E0,7.938647747E-2,6.096477514E0
7.432880000E0,-2.171251997E0,-5.697285442E0,-6.828401828E-1,6.135117550E0
7.442916000E0,-7.503148879E0,-5.215552640E0,-1.199833449E0,9.216226601E0
7.452953000E0,-9.180054315E0,-5.109862463E0,1.623433818E0,1.063106904E1
7.462990000E0,-8.531339067E0,-4.273988952E0,4.987810607E0,1.076703220E1
7.473026000E0,-7.558788060E0,-1.991412547E0,7.069224082E0,1.053920917E1
7.483063000E0,-6.789409086E0,-3.368165785E-1,6.590245904E0,9.467885836E0
7.493099000E0,-5.510645242E0,4.645864266E-1,6.865828686E0,8.816045319E0
7.503136000E0,-3.175901733E0,7.761886418E-1,7.349748931E0,8.044105294E0
7.513173000E0,-1.828199509E0,1.226264618E0,6.315049038E0,6.687741226E0
7.523209000E0,1.714141089E0,2.622853950E0,4.871569422E0,5.792221607E0
7.533246000E0,4.216421944E0,3.536166816E0,2.900924138E0,6.220775725E0
7.543282000E0,3.995450402E0,3.219509098E0,-1.646836129E-1,5.133807889E0
7.553319000E0,2.820733961E0,2.745483511E0,-3.578417627E0,5.319707933E0
7.563356000E0,3.014881693E0,3.312544146E0,-6.479684411E0,7.877104190E0
7.573392000E0,3.340901096E0,2.928739927E0,-4.279268111E0,6.168571411E0
7.583429000E0,3.838322269E0,3.064210559E0,-2.572422592E0,5.544318009E0
7.593465000E0,4.375634318E0,3.143772452E0,-1.562013495E0,5.609756418E0
7.603502000E0,4.494140130E0,2.726994030E0,1.525637089E0,5.473697149E0
7.613539000E0,3.876044119E0,2.931047239E0,3.296206441E0,5.871944553E0
7.623575000E0,3.329893420E0,3.087069663E0,3.145588013E0,5.523849495E0
7.633612000E0,2.790915207E0,2.828660154E0,3.119266479E0,5.051766951E0
7.643648000E0,1.986415663E0,2.666869451E0,2.942066024E0,4.440021660E0
7.653685000E0,1.275189879E0,2.805307544E0,2.487150308E0,3.960022260E0
7.663722000E0,9.782571588E-1,3.049944522E0,1.576697900E0,3.570031502E0
7.673758000E0,1.104430571E0,3.554401942E0,-1.148445779E-1,3.723805759E0
7.683795000E0,5.569662213E-1,4.077541802E0,-1.826502939E0,4.502518352E0
7.693831000E0,-1.237016624E0,4.321474775E0,-1.406254195E0,4.709873164E0
7.703868000E0,-3.504445671E0,4.771451349E0,9.880762419E-1,6.002014836E0
7.713905000E0,-4.677849705E0,6.123132895E0,8.776536208E0,1.167915331E1
7.723941000E0,-5.871573983E0,9.124275970E-1,5.823780012E0,8.320115311E0
7.733978000E0,-1.017986680E1,-4.309879162E0,-1.232029388E0,1.112306805E1
7.744014000E0,-8.961735070E0,-4.222658000E0,-5.121315404E0,1.115219295E1
7.754051000E0,-4.967873356E0,-5.878173151E0,-7.026868021E0,1.042159102E1
7.764088000E0,-1.394337716E0,-7.238420284E0,-7.634523536E0,1.061248583E1
7.774124000E0,2.849240599E0,-5.707538534E0,-6.618590866E0,9.192383432E0
7.784161000E0,3.290076805E0,-3.856717025E0,-4.203647825E0,6.585554390E0
7.794197000E0,1.166756920E0,-1.728697148E0,-1.957721475E0,2.860487531E0
7.804234000E0,-2.209145901E0,-5.375585085E-1,-2.021491940E0,3.042322210E0
7.814270000E0,-3.757381894E0,-9.622563994E-1,-1.724071416E0,4.244558672E0
7.824307000E0,-4.270784386E0,-1.866679743E0,-6.068252099E-1,4.700247798E0
7.834344000E0,-2.476515684E0,-2.065189206E0,5.318086490E-1,3.268173317E0
7.844380000E0,7.768753973E-1,-3.042853603E0,1.464901037E0,3.465317948E0
7.854417000E0,2.992887976E0,-4.259663274E0,2.100285656E0,5.613671658E0
7.864453000E0,3.126750038E0,-3.791517647E0,2.260264599E0,5.409340803E0
7.874490000E0,1.632079949E0,-2.792079388E0,1.789058248E0,3.695960184E0
7.884527000E0,3.290893368E-1,-1.669404042E0,1.795025039E0,2.473322571E0
7.894563000E0,3.215209933E-1,-8.263285160E-1,2.090620063E0,2.270877982E0
7.904600000E0,3.597012649E-1,-5.591592926E-1,1.993894398E0,2.101822777E0
7.914636000E0,-6.204275876E-1,-1.202198063E0,1.331125806E0,1.897921623E0
7.924673000E0,-1.413061523E0,-2.899167634E0,1.237019548E0,3.454291997E0
7.934710000E0,-6.978773211E-1,-4.525495824E0,2.126371255E0,5.048623567E0
7.944746000E0,1.566309737E-1,-5.793279766E0,2.536043555E0,6.325989300E0
7.954783000E0,3.102680267E-1,-6.336487269E0,2.608246144E0,6.859321039E0
7.964819000E0,4.886809020E-1,-5.422479170E0,2.759420350E0,6.103809469E0
7.974856000E0,1.442681179E0,-3.458412881E0,3.464893935E0,5.103669133E0
7.984893000E0,2.791961859E0,-1.039873509E0,3.403015190E0,4.522930502E0
7.994929000E0,3.809670036E0,6.666164982E-1,2.687313656E0,4.709524182E0
8.004966000E0,4.439780612E0,1.760835199E0,2.502209519E0,5.391961143E0
8.015002000E0,5.365502146E0,2.409970862E0,2.068147312E0,6.234886217E0
8.025039000E0,6.219407301E0,2.085598328E0,1.591104708E0,6.749989759E0
8.035076000E0,6.622404420E0,1.467217265E0,6.636100792E-1,6.815375642E0
8.045112000E0,6.309476057E0,8.695698452E-1,-1.539056595E-1,6.370975340E0
8.055149000E0,5.925452567E0,4.746138167E-1,-2.879683542E-1,5.951400858E0
8.065185000E0,5.032755230E0,3.830563599E-1,-8.469656789E-1,5.117881226E0
8.075222000E0,3.936876504E0,8.627911681E-1,-1.429730766E0,4.276392788E0
8.085259000E0,2.732024975E0,1.596737185E0,-2.071428770E0,3.782108836E0
8.095295000E0,1.440447250E0,2.460080330E0,-2.941554101E0,4.096293940E0
8.105332000E0,3.016183868E-1,3.123869700E0,-4.326370064E0,5.344811829E0
8.115368542E0,-9.137474598E-1,3.617406276E0,-6.290539849E0,7.313785215E0
8.125405542E0,-1.964815464E0,3.871757818E0,-7.321976995E0,8.512482336E0
8.135442542E0,-2.679461430E0,3.310380092E0,-7.027583721E0,8.217363498E0
8.145478542E0,-3.684387885E0,2.595826950E0,-4.638542383E0,6.467542584E0
8.155515542E0,-4.394824002E0,2.199207973E0,-1.183398095E0,5.054841716E0
8.165551542E0,-4.479494609E0,2.052829946E0,2.120366457E0,5.364320707E0
8.175588542E0,-3.245682405E0,1.889451140E0,4.146595080E0,5.594526847E0
8.185625542E0,-1.542213069E0,1.586351361E0,6.171745477E0,6.556323209E0
8.195661542E0,2.233746745E-1,1.332363515E0,6.899914445E0,7.030925126E0
8.205698542E0,1.482744985E-1,7.926976705E-1,6.823174417E0,6.870666929E0
8.215734542E0,6.507965639E-2,2.671902734E-1,5.976968876E0,5.983291983E0
8.225771542E0,6.358934730E-1,-2.324700916E-1,5.208629537E0,5.252449381E0
8.235808542E0,3.587495575E-1,-4.198984963E-1,2.990122243E0,3.040698443E0
8.245844542E0,-4.828757132E-1,-6.296808064E-2,-2.252348200E-1,5.365302021E-1
8.255881542E0,-1.307944373E0,9.045262545E-1,-4.017840561E0,4.321102753E0
8.265917542E0,-1.515854405E0,2.010479148E0,-6.816837205E0,7.266987716E0
8.275954542E0,-8.049131618E-1,2.945382273E0,-8.547173327E0,9.076195999E0
8.285990542E0,-5.822117941E-1,3.848598751E0,-7.340589852E0,8.308726876E0
8.296027542E0,1.162394312E0,3.653894071E0,-5.017866465E0,6.315147368E0
8.306064542E0,5.070415977E0,1.335501131E0,-4.730108610E0,7.061629338E0
8.316100542E0,7.255922170E0,-3.188246959E-1,-4.106084400E0,8.343259844E0
8.326137542E0,5.289881276E0,-2.249878775E0,-3.009157269E0,6.488437862E0
8.336173542E0,1.012700329E0,-3.455891562E0,-1.906110442E0,4.074555860E0
8.346210542E0,-1.716256904E0,-3.731397745E0,-8.950601971E-1,4.203569870E0
8.356247542E0,-2.148385291E0,-4.357345104E0,-1.303679999E0,5.030069309E0
8.366283542E0,-2.474308945E0,-4.617905220E0,-2.237221892E0,5.696702131E0
8.376320542E0,-2.772398537E0,-3.531887239E0,-2.513320398E0,5.145600115E0
8.386356542E0,-4.239247136E0,-1.944489811E0,-3.722599440E0,5.967411791E0
8.396393542E0,-4.979282443E0,-3.683792639E-1,-4.918268502E0,7.008446474E0
8.406430542E0,-3.968321368E0,7.231766152E-1,-4.653243452E0,6.158184272E0
8.416466542E0,-3.061133461E0,1.014548049E0,-3.439880716E0,4.715148476E0
8.426503542E0,-2.284772619E0,9.985237545E-1,-2.086216378E0,3.251082033E0
8.436539542E0,-1.335980749E0,4.155896831E-1,-1.058865266E0,1.754638139E0
8.446576542E0,-9.445161664E-1,-3.652626979E-1,-3.737025690E-1,1.079435610E0
8.456613542E0,-3.619388482E-1,-5.034476066E-1,6.980593157E-1,9.336734068E-1
8.466649542E0,1.377688208E0,-3.145609063E-1,1.560017256E0,2.104905508E0
8.476686542E0,3.911385860E0,-3.751544327E-1,1.864656022E0,4.349324347E0
8.486722542E0,6.320241365E0,-5.250922447E-1,1.984548501E0,6.645269410E0
8.496759542E0,8.176568613E0,-8.810444212E-1,1.857449913E0,8.431051757E0
8.506796542E0,9.070002699E0,-2.012298802E0,6.550425196E-1,9.313612411E0
8.516832542E0,8.381740394E0,-4.066729715E0,-2.247751558E-1,9.318926251E0
8.526869542E0,6.513597677E0,-5.920386540E0,-2.392553468E-1,8.805405987E0
8.536905542E0,3.401896618E0,-6.772838076E0,-2.461620779E-1,7.583194048E0
8.546942542E0,-3.702520540E-1,-6.759574837E0,1.062556028E-1,6.770541250E0
8.556979542E0,-5.797714879E0,-6.268905736E0,-2.588328481E-2,8.538931249E0
8.567015542E0,-6.906080918E0,-5.432460367E0,1.517954433E0,8.916824824E0
8.577052542E0,-7.258859226E0,-4.027307788E0,4.493777018E0,9.439506193E0
8.587088542E0,-8.947237483E0,-1.690047053E0,4.344846096E0,1.008895461E1
8.597125542E0,-8.906533846E0,-5.422234172E-1,5.091143187E0,1.027327067E1
8.607162542E0,-8.634766957E0,3.199578863E-1,6.441515542E0,1.077750880E1
8.617198542E0,-6.263904027E0,1.372330404E0,7.280481645E0,9.701814128E0
8.627235542E0,-3.169473304E0,1.748035644E0,7.867054439E0,8.659776855E0
8.637271542E0,-1.756141347E0,2.343126077E0,5.059375849E0,5.845644209E0
8.647308542E0,2.941447681E-1,3.372303275E0,2.396455023E-1,3.393579303E0
8.657344542E0,1.907209572E0,3.671167915E0,-4.097268261E0,5.822587863E0
8.667381542E0,2.508639995E0,3.611006498E0,-4.575853507E0,6.345949721E0
8.677418542E0,3.655227821E0,4.281910175E0,-3.753635583E0,6.766478054E0
8.687454542E0,3.880714875E0,4.312672377E0,-3.973290917E0,7.031794343E0
8.697491542E0,5.485808024E0,3.851885471E0,-1.995790650E0,6.993875297E0
8.707527542E0,7.417064416E0,3.305815170E0,4.957304513E-1,8.135539760E0
8.717564542E0,6.871705137E0,2.359945593E0,1.897885456E0,7.509436990E0
8.727601542E0,5.738373241E0,2.217053676E0,2.853457903E0,6.781332941E0
8.737637542E0,4.632015721E0,2.417261755E0,3.661960013E0,6.380335035E0
8.747674542E0,3.064229854E0,2.559846693E0,3.635977325E0,5.400245439E0
8.757710542E0,1.807546412E0,2.507059200E0,3.549132139E0,4.706262722E0
8.767747542E0,1.563485678E0,2.296211527E0,3.056229694E0,4.130086535E0
8.777784542E0,1.407878844E0,2.278082235E0,2.558386351E0,3.703663353E0
8.787820542E0,1.345138512E0,2.535474329E0,2.004774312E0,3.501020956E0
8.797857542E0,1.136153470E0,3.372895598E0,1.737883124E-1,3.563351203E0
8.807893542E0,6.847177237E-2,4.667187307E0,-2.783782481E0,5.434774204E0
8.817930542E0,-2.639299829E0,4.770826281E0,-3.598789618E0,6.532838105E0
8.827967542E0,-5.593699093E0,3.770993335E0,2.005409027E0,7.037863713E0
8.838003542E0,-4.543151491E0,1.586885796E0,5.626845789E0,7.404041162E0
8.848040542E0,-5.016221643E0,-3.249048647E0,-1.533269606E0,6.170065832E0
8.858076542E0,-9.483940544E0,-4.126839092E0,-7.279148480E0,1.264760577E1
8.868113542E0,-6.961233611E0,-4.069748633E0,-8.721954789E0,1.187830470E1
8.878150542E0,-1.742375832E0,-6.197599525E0,-5.929148008E0,8.752194554E0
8.888186542E0,1.871969865E0,-5.807556328E0,-3.352585587E0,6.962170049E0
8.898223542E0,2.829006601E0,-4.057162501E0,-7.820779574E-1,5.007543494E0
8.908259542E0,8.626577054E-1,-2.192329894E0,-2.031354877E-1,2.364688712E0
8.918296542E0,-2.859422063E0,-1.496132331E0,-1.980980822E0,3.786686085E0
8.928333542E0,-4.185584606E0,-1.907425480E0,-1.159466611E0,4.743601299E0
8.938369542E0,-3.300274349E0,-1.953161232E0,3.275227216E-1,3.848885645E0
8.948406542E0,-1.301072141E0,-2.526776596E0,5.042732334E-1,2.886464996E0
8.958442542E0,5.164946450E-1,-4.318038951E0,1.303192926E0,4.539883138E0
8.968479542E0,1.845731508E0,-4.923049770E0,1.571920140E0,5.487629430E0
8.978516542E0,2.235595196E0,-3.716423610E0,6.285945399E-1,4.382330593E0
8.988552542E0,1.036489433E0,-2.782565968E0,4.312757161E-1,3.000497035E0
8.998589542E0,7.180816439E-1,-1.973764481E0,1.403806551E0,2.526273996E0
9.008625542E0,1.017033700E0,-1.061619304E0,2.158321903E0,2.611464442E0
9.018662542E0,6.657242131E-1,-1.072783978E0,2.609375241E0,2.898774455E0
9.028699542E0,1.549614474E-1,-2.258879394E0,2.303600653E0,3.230034851E0
9.038735542E0,-3.088513926E-2,-3.759719903E0,2.200260472E0,4.356328017E0
9.048772542E0,-1.414853695E-1,-5.228060419E0,2.551190475E0,5.819038296E0
9.058808542E0,-4.844589199E-1,-6.052668099E0,2.992692972E0,6.769468427E0
9.068845542E0,-4.759696399E-1,-5.455297837E0,3.673979841E0,6.594311902E0
9.078882542E0,2.476735832E-1,-3.441474082E0,4.403572022E0,5.594330399E0
9.088918542E0,9.080334145E-1,-1.268988469E0,3.635357813E0,3.956094392E0
9.098955542E0,1.731503665E0,8.305706710E-1,1.080303643E0,2.203408393E0
9.108990792E0,2.499913025E0,2.247645139E0,-5.600638568E-1,3.408099958E0
9.119027792E0,3.271934649E0,2.542758206E0,1.166952217E-1,4.145454548E0
9.129063792E0,5.191754472E0,1.983107162E0,1.332452978E0,5.715108000E0
9.139100792E0,6.354715964E0,1.484125659E0,1.493919453E0,6.694538019E0
9.149137792E0,6.306854750E0,1.303643746E0,9.527323084E-1,6.510269019E0
9.159173792E0,6.252032425E0,1.281343635E0,-9.595865607E-2,6.382707813E0
9.169210792E0,5.847358909E0,1.573945323E0,-1.089132720E0,6.152651475E0
9.179246792E0,4.146303304E0,1.645663762E0,-2.150938039E0,4.952431196E0
9.189283792E0,2.729076224E0,2.264341278E0,-3.208190643E0,4.782006447E0
9.199320792E0,1.844856472E0,3.027886485E0,-3.937980459E0,5.298988778E0
9.209356792E0,1.445124292E0,3.333833274E0,-5.372007759E0,6.485468054E0
9.219393792E0,6.531315033E-1,3.475479734E0,-6.929909492E0,7.780050495E0
9.229429792E0,-7.090112968E-1,3.252114342E0,-6.479860997E0,7.284747302E0
9.239466792E0,-1.712537198E0,3.100579655E0,-4.728995301E0,5.908449408E0
9.249503792E0,-2.443812207E0,2.912656576E0,-2.077156556E0,4.332478020E0
9.259539792E0,-2.643569174E0,2.498111790E0,8.929819505E-1,3.745188548E0
9.269576792E0,-2.483396103E0,2.139262319E0,3.183661573E0,4.569398263E0
9.279612792E0,-2.379516224E0,1.883909149E0,4.299113853E0,5.262470053E0
9.289649792E0,-2.154177250E0,1.479507528E0,4.612977186E0,5.301790327E0
9.299686792E0,-2.159098267E0,6.385925478E-1,4.393455169E0,4.936795934E0
9.309722792E0,-1.232514853E0,-2.965432960E-1,6.136103189E0,6.265683772E0
9.319759792E0,1.142244661E0,-7.415865737E-1,7.596542362E0,7.717650508E0
9.329795792E0,2.774929797E0,-1.066958397E0,6.693425871E0,7.323973340E0
9.339832792E0,1.878169814E0,-1.219506406E0,3.945609906E0,4.536800112E0
9.349869792E0,-2.027507409E-1,-5.110934258E-1,-1.310989019E0,1.421624620E0
9.359905792E0,-1.391412061E0,4.663025844E-1,-6.214687428E0,6.385593587E0
9.369942792E0,-1.698882488E0,1.885889601E0,-8.622189596E0,8.988043987E0
9.379978792E0,-1.389510401E0,3.634575455E0,-8.423688319E0,9.278976387E0
9.390015792E0,-4.282638153E-1,4.933296431E0,-6.458565438E0,8.138420675E0
9.400052792E0,2.218169178E0,3.468655449E0,-4.996337017E0,6.474197148E0
9.410088792E0,4.403527583E0,1.102069758E0,-3.361853131E0,5.648687405E0
9.420125792E0,5.733538179E0,7.175720590E-1,-2.252847991E0,6.201910494E0
9.430161792E0,4.310221224E0,-5.735545528E-1,-3.169116039E0,5.380545353E0
9.440198792E0,5.991741282E-1,-1.589691875E0,-3.240199471E0,3.658554701E0
9.450235792E0,-1.694659190E0,-2.475456169E0,-2.468961082E0,3.885295592E0
9.460271792E0,-2.169132820E0,-3.808686242E0,-2.041333151E0,4.835107973E0
9.470308792E0,-2.194794787E0,-4.513697897E0,-1.839335239E0,5.345441701E0
9.480344792E0,-2.686204731E0,-3.596560367E0,-2.577681870E0,5.176426002E0
9.490381792E0,-3.691899219E0,-1.820679113E0,-4.345795684E0,5.985894453E0
9.500418792E0,-4.254624728E0,-5.846864820E-2,-5.527948322E0,6.975920213E0
9.510454792E0,-4.045910412E0,9.914012611E-1,-5.311835232E0,6.750397103E0
9.520491792E0,-3.531085293E0,1.406309159E0,-3.927682343E0,5.465615920E0
9.530527792E0,-2.812735847E0,9.618886095E-1,-2.668193260E0,3.994492197E0
9.540564792E0,-1.637985345E0,-2.417238951E-3,-1.619476422E0,2.303411755E0
9.550600792E0,-5.400111962E-1,-7.353856015E-1,-2.326572756E-1,9.415590703E-1
9.560637792E0,5.085908905E-1,-1.050965677E0,1.383236046E0,1.810120302E0
9.570674792E0,2.517383921E0,-1.215413355E0,2.431660670E0,3.705053986E0
9.580710792E0,4.583945761E0,-1.994736105E0,3.575558338E0,6.146230413E0
9.590747792E0,6.695543733E0,-2.863721228E0,3.478259793E0,8.070284774E0
9.600783792E0,8.593054090E0,-4.084176053E0,2.814989948E0,9.921957520E0
9.610820792E0,9.585872716E0,-5.383151967E0,2.318097217E0,1.123569560E1
9.620857792E0,8.923472060E0,-6.340654580E0,2.207630303E0,1.116717895E1
9.630893792E0,6.809390191E0,-6.857083005E0,2.228409115E0,9.917317646E0
9.640930792E0,3.435090384E0,-6.350300732E0,1.684651827E0,7.413785612E0
9.650966792E0,-1.811114237E0,-4.731303781E0,1.262432278E0,5.221025331E0
9.661003792E0,-6.236780548E0,-4.237864854E0,3.780774558E-1,7.549826004E0
9.671040792E0,-7.634745145E0,-3.090096182E0,2.180948288E0,8.520244321E0
9.681076792E0,-9.112052366E0,-9.526225269E-1,3.380048204E0,9.765332246E0
9.691113792E0,-8.877439855E0,-5.443863022E-1,4.761157326E0,1.008830580E1
9.701149792E0,-7.753029056E0,-1.917845803E-1,5.740632021E0,9.648890965E0
9.711186792E0,-7.437109256E0,1.074277942E0,6.088753606E0,9.671483219E0
9.721223792E0,-6.932347196E0,2.132255015E0,3.612497246E0,8.102720867E0
9.731259792E0,-4.607938056E0,1.745086893E0,1.947218999E0,5.298120726E0
9.741296792E0,-1.779591752E0,2.797822523E0,1.303181963E0,3.562729417E0
9.751332792E0,7.542947660E-1,3.410311931E0,-6.400710163E-1,3.550898332E0
9.761369792E0,1.971030761E0,3.317129533E0,-2.580647578E0,4.641987992E0
9.771406792E0,2.774070548E0,3.448251005E0,-3.892828552E0,5.894066214E0
9.781442792E0,4.483747289E0,3.539730109E0,-3.866831831E0,6.898265536E0
9.791479792E0,6.460861055E0,3.414072860E0,-2.418141761E0,7.697144187E0
9.801515792E0,7.764432296E0,2.986154323E0,-7.618153086E-1,8.353675184E0
9.811552792E0,7.879233019E0,2.190811372E0,6.351254413E-1,8.202764885E0
9.821589792E0,6.542720904E0,1.463805415E0,2.545089198E0,7.171290132E0
9.831625792E0,4.628267071E0,1.584586671E0,4.251824789E0,6.481495586E0
9.841662792E0,3.152208230E0,1.890174440E0,5.021219258E0,6.222685834E0
9.851698792E0,2.246418246E0,1.864960077E0,4.743209882E0,5.569785544E0
9.861735792E0,1.528491261E0,1.932995355E0,4.196842251E0,4.866851287E0
9.871772792E0,9.620152017E-1,2.108880186E0,3.175169369E0,3.931227469E0
9.881808792E0,9.928537095E-1,2.344115426E0,1.412742265E0,2.911438876E0
9.891845792E0,1.500384865E0,2.502597774E0,3.026691315E-1,2.933557391E0
9.901881792E0,1.007213886E0,2.654804891E0,-2.863369811E-1,2.853849626E0
9.911918792E0,5.603405763E-1,3.314905837E0,-1.662620980E0,3.750585393E0
9.921954792E0,-1.545974582E-1,3.887520157E0,-4.905609280E0,6.261127355E0
9.931991792E0,-1.106750600E0,2.723345368E0,-4.712093631E0,5.553857513E0
9.942028792E0,-3.477955153E0,3.440487072E0,-3.716899574E-2,4.892290350E0
9.952064792E0,-5.712329743E0,2.681917260E0,3.866344466E0,7.400811497E0
9.962101792E0,-1.076314878E1,-2.771374397E0,2.552675668E0,1.140359771E1
9.972137792E0,-1.054623111E1,-5.233795953E0,-1.554091687E0,1.187563942E1
9.982174792E0,-4.024464871E0,-5.570797888E0,-2.784069872E0,7.414927623E0
9.992211792E0,1.051991571E0,-5.640273335E0,-4.523492860E0,7.306254664E0
1.000224779E1,3.583973651E0,-4.010856062E0,-5.408980288E0,7.628164998E0
1.001228479E1,2.297686779E0,-2.354303030E0,-5.816662781E0,6.682490045E0
1.002232079E1,-1.115665119E0,-1.412137079E0,-7.026758094E0,7.253562511E0
1.003235779E1,-3.240763142E0,-7.069675487E-1,-5.608106632E0,6.515612700E0
1.004239479E1,-4.367597612E0,-8.070917612E-1,-2.285252822E0,4.994966113E0
1.005243079E1,-3.536457422E0,-1.391337363E0,4.939892967E-1,3.832280807E0
1.006246779E1,-7.652546409E-1,-2.754181244E0,3.023852491E0,4.161107170E0
1.007250379E1,1.630940181E0,-4.900094186E0,4.336676951E0,6.743712322E0
1.008254079E1,3.024761733E0,-5.505651135E0,4.343194842E0,7.637062223E0
1.009257779E1,2.434373631E0,-4.195434533E0,2.838660354E0,5.620127980E0
1.010261379E1,-1.539289753E-1,-2.891060470E0,9.981819847E-1,3.062399720E0
1.011265075E1,-3.941877043E-1,-1.455987688E0,1.547292252E0,2.160878851E0
1.012268675E1,5.850481322E-1,1.531268835E-2,2.244206099E0,2.319262126E0
1.013272375E1,5.308625695E-1,2.277087039E-1,2.173182894E0,2.248641859E0
1.014276075E1,1.597115792E-1,-8.220658958E-1,2.014310536E0,2.181455262E0
1.015279675E1,-2.109608164E-1,-2.578413357E0,2.153034850E0,3.365750878E0
1.016283375E1,-2.834803239E-1,-4.350272897E0,2.205707592E0,4.885732428E0
1.017286975E1,-4.818601249E-1,-5.305386338E0,1.942359670E0,5.670279928E0
1.018290675E1,-2.003139138E-1,-5.097544134E0,2.018965358E0,5.486465436E0
1.019294375E1,5.308542372E-1,-3.794465813E0,1.994303995E0,4.319377901E0
1.020297975E1,1.562561379E0,-1.993968950E0,1.847935324E0,3.135661844E0
1.021301675E1,2.409779365E0,-7.875848651E-2,1.722989827E0,2.963432711E0
1.022305275E1,2.770083917E0,1.349908086E0,1.340139874E0,3.360296360E0
1.023308975E1,3.385656561E0,2.440137817E0,4.425115795E-1,4.196755820E0
1.024312675E1,4.466245403E0,2.725968429E0,-5.172903049E-1,5.257931260E0
1.025316275E1,5.524044136E0,2.083401529E0,-1.260029511E0,6.036828631E0
1.026319975E1,5.820982704E0,1.217320132E0,-1.345861813E0,6.097298743E0
1.027323575E1,5.778716691E0,5.697310585E-1,-1.166250331E0,5.922693636E0
1.028327275E1,5.900646340E0,6.631409132E-1,-1.257327805E0,6.069452719E0
1.029330975E1,5.444897395E0,9.294184363E-1,-1.599091713E0,5.750462640E0
1.030334575E1,4.483073397E0,1.662779147E0,-8.531529833E-1,4.857020855E0
1.031338275E1,2.987653549E0,1.899361001E0,3.322409861E-1,3.555844486E0
1.032341875E1,9.000636595E-1,2.037236007E0,3.278792556E-1,2.251210773E0
1.033345575E1,-6.895855308E-1,2.509949479E0,6.554853000E-2,2.603780175E0
1.034349275E1,-1.629416543E0,2.821182734E0,-2.591265245E-1,3.268213097E0
1.035352875E1,-2.405728999E0,2.987928953E0,-1.064183820E0,3.980921834E0
1.036356575E1,-2.936973099E0,3.098126748E0,-1.903616166E0,4.674179590E0
1.037360175E1,-3.077414741E0,3.042599834E0,-2.315296400E0,4.908002920E0
1.038363875E1,-3.475046455E0,2.665117040E0,-2.144282738E0,4.876140396E0
1.039367475E1,-3.527359740E0,2.017839038E0,-1.120769738E0,4.215455601E0
1.040371175E1,-2.916866864E0,1.232347476E0,1.541715324E0,3.521885680E0
1.041374875E1,-2.004166786E0,7.741397774E-1,3.674946971E0,4.256901707E0
1.042378475E1,-1.919303222E-1,2.926701003E-1,4.829148749E0,4.841814812E0
1.043382175E1,1.465623899E0,-2.828725058E-1,5.666800983E0,5.860094167E0
1.044385775E1,2.175527481E0,-5.572338045E-1,6.157757767E0,6.554495408E0
1.045389475E1,1.922043081E0,-3.467042202E-1,4.284820919E0,4.708942953E0
1.046393175E1,8.629242653E-1,2.397709250E-1,9.355533350E-1,1.295140312E0
1.047396775E1,-4.761237140E-1,1.199574417E0,-2.306125481E0,2.642704544E0
1.048400475E1,-1.049332843E0,2.494487686E0,-5.499648968E0,6.129413267E0
1.049404075E1,-1.551245409E0,4.195844423E0,-6.465966843E0,7.862582271E0
1.050407775E1,-5.350411360E-1,4.867781888E0,-6.564570780E0,8.189942554E0
1.051411475E1,1.845626989E0,2.495325007E0,-6.788397517E0,7.464270006E0
1.052415075E1,3.829281304E0,2.756348222E-1,-6.511733000E0,7.559235182E0
1.053418775E1,4.993609875E0,-9.313000703E-1,-4.952447816E0,7.094377970E0
1.054422375E1,5.025493573E0,-1.791797960E0,-2.427914797E0,5.861816770E0
1.055426075E1,2.188925352E0,-1.860867611E0,-2.160178978E0,3.594523012E0
1.056429775E1,-7.594685286E-1,-2.256291416E0,-3.326781532E0,4.090857949E0
1.057433375E1,-1.848495779E0,-3.188583174E0,-3.463882366E0,5.057912648E0
1.058437075E1,-2.861565652E0,-3.865263900E0,-2.879411062E0,5.605339514E0
1.059440675E1,-3.151311852E0,-3.242727807E0,-2.250856429E0,5.050980567E0
1.060444375E1,-4.119804015E0,-1.313899763E0,-2.687853938E0,5.091529878E0
1.061448075E1,-4.968016028E0,8.078279257E-1,-4.449455123E0,6.717992267E0
1.062451675E1,-4.241345409E0,2.039636289E0,-5.425738993E0,7.182462717E0
1.063455375E1,-3.412280104E0,2.152370607E0,-4.381818041E0,5.956230694E0
1.064458975E1,-2.747012850E0,1.718829972E0,-2.422128392E0,4.045634934E0
1.065462675E1,-1.863148609E0,5.278035986E-1,-1.099960667E0,2.227063728E0
1.066466375E1,-9.399581156E-1,-8.376346922E-1,1.252158574E-1,1.265239957E0
1.067469975E1,3.517212774E-1,-1.504604362E0,1.536888009E0,2.179350109E0
1.068473675E1,2.415257183E0,-1.907672818E0,2.436659893E0,3.925556556E0
1.069477275E1,4.598290735E0,-2.266460309E0,3.041583588E0,5.960901839E0
1.070480975E1,6.580166473E0,-2.619859591E0,2.836264458E0,7.629328356E0
1.071484675E1,8.264138854E0,-3.037806872E0,1.824155721E0,8.991763213E0
1.072488275E1,9.956930004E0,-3.278766536E0,9.334762578E-1,1.052435951E1
1.073491975E1,9.410986589E0,-4.199844503E0,-1.608640654E-1,1.030685401E1
1.074495575E1,6.180219262E0,-5.959994409E0,-1.196220016E0,8.668770721E0
1.075499275E1,2.896220930E0,-7.212104890E0,-1.129261065E-1,7.772728280E0
1.076502975E1,-7.082742552E-1,-6.437572764E0,4.670067354E-1,6.493234233E0
1.077506575E1,-6.049419386E0,-5.233061543E0,5.872769447E-1,8.020305619E0
1.078510275E1,-1.052555769E1,-5.378703405E0,1.279861951E0,1.188931712E1
1.079513875E1,-1.090230549E1,-3.920472726E0,2.938312989E0,1.195257523E1
1.080517575E1,-1.206056290E1,-1.563775846E0,4.142954311E0,1.284782638E1
1.081521275E1,-1.077780073E1,-4.842079282E-2,6.286762547E0,1.247744832E1
1.082524875E1,-8.202231458E0,7.721552324E-1,6.981533974E0,1.079882592E1
1.083528575E1,-6.681840783E0,3.188475001E-1,6.084037242E0,9.042354181E0
1.084532175E1,-3.218923792E0,1.041235911E0,6.463508674E0,7.295381208E0
1.085535875E1,1.613398095E-1,2.057007197E0,4.987892468E0,5.397812558E0
1.086539575E1,2.057065377E0,2.691801394E0,2.085613238E0,3.978328202E0
1.087543175E1,3.210794408E0,2.622709524E0,-1.330124617E-2,4.145839227E0
1.088546875E1,3.987923282E0,2.901073242E0,-5.896390736E-1,4.966631886E0
1.089550475E1,4.250335795E0,3.544988510E0,-1.519380276E0,5.739408884E0
1.090554175E1,4.741636396E0,4.432515154E0,-2.475493591E0,6.946824802E0
1.091557875E1,5.090998176E0,4.494770460E0,-2.419636017E0,7.209428713E0
1.092561475E1,6.110521621E0,3.500597034E0,-1.173045308E0,7.139235909E0
1.093565175E1,6.596276137E0,3.196893237E0,-7.630938023E-2,7.330539432E0
1.094568775E1,5.531891100E0,2.889927864E0,1.130442202E0,6.342822855E0
1.095572475E1,4.067419687E0,2.371616635E0,2.974464569E0,5.569192746E0
1.096576175E1,2.472883394E0,2.151447916E0,4.501214968E0,5.568196890E0
1.097579775E1,1.694256025E0,2.036541942E0,4.956919767E0,5.620414587E0
1.098583475E1,1.279545324E0,2.105258421E0,3.754345435E0,4.490485375E0
1.099587075E1,1.053190251E0,2.324539533E0,2.126750154E0,3.322011433E0
1.100590775E1,5.906287149E-1,2.559091818E0,5.539286658E-1,2.684144217E0
1.101594375E1,2.895042716E-1,2.576811220E0,-4.483834997E-1,2.631504617E0
1.102598075E1,2.212207796E-1,2.881813098E0,-1.719890364E0,3.363303173E0
1.103601775E1,-9.874576065E-1,3.043789743E0,-2.476905401E0,4.046577429E0
1.104605375E1,-1.958171126E0,3.015540674E0,-1.965616094E0,4.097751377E0
1.105609075E1,-3.427592207E0,4.441635057E0,2.153488594E0,6.009494441E0
1.106612675E1,-7.904861950E0,1.924356678E0,3.861067061E0,9.005433356E0
1.107616375E1,-1.110509746E1,-2.611436677E0,-5.405049205E-1,1.142081156E1
1.108620075E1,-8.118622121E0,-4.717197958E0,-4.703957231E0,1.050196150E1
1.109623675E1,-3.480410691E0,-6.236166006E0,-5.498436255E0,9.013091938E0
1.110627375E1,1.426767397E0,-6.498915319E0,-5.607240075E0,8.701304890E0
1.111631079E1,3.759677219E0,-4.763711389E0,-4.625968823E0,7.630708128E0
1.112634779E1,2.152715885E0,-2.345130503E0,-4.526677254E0,5.533952449E0
1.113638479E1,-1.871264691E0,-7.473811644E-1,-5.618340429E0,5.968748556E0
1.114642079E1,-3.697789119E0,4.185162145E-1,-4.369184254E0,5.739213468E0
1.115645779E1,-4.082931181E0,-1.939322627E-1,-1.395559638E0,4.319204030E0
1.116649379E1,-3.045882753E0,-1.087537673E0,8.584206668E-1,3.346195747E0
1.117653079E1,-3.976115415E-1,-2.900876191E0,3.612731719E0,4.650269679E0
1.118656779E1,1.483048456E0,-5.837765383E0,5.156245501E0,7.928795939E0
1.119660379E1,2.464495563E0,-6.465241789E0,5.173699440E0,8.639459223E0
1.120664079E1,2.152721586E0,-5.006912876E0,3.150053239E0,6.294936233E0
1.121667679E1,-3.085834439E-1,-3.575497527E0,6.329537854E-1,3.644178481E0
1.122671379E1,-9.416475955E-1,-1.986505564E0,7.577631882E-1,2.325319247E0
1.123675079E1,7.410268490E-1,-3.357202256E-1,1.446221522E0,1.659332863E0
1.124678679E1,6.261749621E-1,-3.529964089E-2,1.091809648E0,1.259122494E0
1.125682379E1,-2.347066516E-1,-7.448627687E-1,1.214732155E0,1.444119789E0
1.126685979E1,-6.512358360E-1,-2.206289536E0,2.005180986E0,3.051650769E0
1.127689679E1,-3.983811812E-1,-4.122099924E0,2.993073918E0,5.109687547E0
1.128693379E1,-8.399013653E-2,-5.510825336E0,3.515510942E0,6.537206392E0
1.129696979E1,6.819332796E-1,-5.377574308E0,3.276898642E0,6.334145810E0
1.130700679E1,1.589734998E0,-4.026294465E0,2.631430939E0,5.065839838E0
1.131704279E1,2.371053987E0,-2.047504302E0,2.289884255E0,3.880430489E0
1.132707979E1,3.477909252E0,-3.309997684E-1,2.880990980E0,4.528302401E0
1.133711679E1,4.045635885E0,1.073685619E0,2.341082768E0,4.795898148E0
1.134715279E1,4.510179627E0,1.970318717E0,4.951387131E-1,4.946618892E0
1.135718979E1,4.689283058E0,1.928147428E0,-8.704703164E-1,5.144399545E0
1.136722579E1,5.170229117E0,1.509622443E0,-1.271631410E0,5.534191494E0
1.137726279E1,5.907554240E0,1.347683805E0,-1.896760890E0,6.349263785E0
1.138729979E1,5.754429696E0,1.134391412E0,-2.247272232E0,6.280966286E0
1.139733579E1,5.492277968E0,1.255146940E0,-2.462066045E0,6.148355904E0
1.140737279E1,4.795067668E0,1.436621709E0,-1.912692068E0,5.358632925E0
1.141740879E1,3.685055930E0,1.705918735E0,-1.128827201E0,4.214741604E0
1.142744579E1,2.567527596E0,2.140339376E0,-3.670029755E-1,3.362728324E0
1.143748279E1,1.397576927E0,2.566603736E0,3.402867548E-1,2.942188145E0
1.144751879E1,-9.672537223E-2,2.836128218E0,7.545385949E-1,2.936376603E0
1.145755579E1,-1.701671902E0,2.841306512E0,4.971187265E-1,3.349005372E0
1.146759179E1,-2.870165445E0,2.974071636E0,9.127277054E-2,4.134160434E0
1.147762879E1,-3.753118982E0,3.080399745E0,-4.984388085E-1,4.880902163E0
1.148766579E1,-4.418166672E0,3.183955688E0,-1.633376423E0,5.685568494E0
1.149770179E1,-4.652259951E0,3.093650705E0,-2.706320615E0,6.207927883E0
1.150773879E1,-4.617063221E0,2.602885709E0,-2.880545422E0,6.032398256E0
1.151777479E1,-4.345001047E0,1.934874650E0,-2.355952822E0,5.307851515E0
1.152781179E1,-2.551449507E0,1.198157052E0,-1.650144191E-1,2.823597823E0
1.153784879E1,-7.453042334E-1,6.948813540E-1,1.894172766E0,2.150867026E0
1.154788479E1,8.411282574E-1,2.956445789E-1,3.493318419E0,3.605298329E0
1.155792179E1,2.081601463E0,7.668681800E-2,4.894306612E0,5.319133645E0
1.156795779E1,2.475808756E0,1.357583141E-1,5.508126261E0,6.040489568E0
1.157799479E1,1.464256820E0,8.526439101E-1,4.037922238E0,4.379025653E0
1.158803179E1,1.995334567E-1,1.920031493E0,5.202537103E-1,1.999249473E0
1.159806779E1,-1.699753430E-1,2.826466278E0,-3.978955407E0,4.883634852E0
1.160810479E1,1.154284224E-2,3.234401371E0,-7.914179488E0,8.549603643E0
1.161814079E1,9.731943472E-1,2.865922705E0,-9.832969033E0,1.028824087E1
1.162817779E1,3.017108313E0,1.744445454E0,-1.041764148E1,1.098513935E1
1.163821479E1,4.737278174E0,1.115582673E0,-8.188993946E0,9.526066924E0
1.164825079E1,4.077893804E0,-2.591661394E-1,-5.304707476E0,6.695991814E0
1.165828779E1,1.333520972E0,-1.185203716E0,-1.096649973E0,2.094188911E0
1.166832379E1,-8.756457601E-1,-2.410574294E0,2.077659563E0,3.300650418E0
1.167836079E1,-2.350717225E0,-4.172391826E0,2.124278244E0,5.239015468E0
1.168839679E1,-3.054692461E0,-5.204909538E0,-1.018912411E-1,6.035943270E0
1.169843379E1,-2.998836641E0,-4.519406533E0,-2.580887314E0,6.006582717E0
1.170847079E1,-4.027310711E0,-2.522925619E0,-4.379854546E0,6.462778898E0
1.171850679E1,-4.893541796E0,3.758063972E-2,-4.907647619E0,6.930596567E0
1.172854379E1,-3.910985911E0,1.829418361E0,-4.898769207E0,6.529971062E0
1.173857979E1,-2.555445202E0,2.437960898E0,-4.407728223E0,5.648187462E0
1.174861679E1,-1.962550398E0,1.866187407E0,-2.945748893E0,4.001461739E0
1.175865379E1,-1.624833641E0,3.269739604E-1,-1.252032713E0,2.077157251E0
1.176868979E1,-1.408667341E0,-1.381213494E0,3.255507481E-1,1.999519363E0
1.177872679E1,-6.122178776E-1,-2.457359036E0,1.910747284E0,3.172440597E0
1.178876279E1,1.437783259E0,-2.896659763E0,3.255403401E0,4.588628312E0
1.179879979E1,4.200792337E0,-3.063994796E0,3.670810651E0,6.364712971E0
1.180883679E1,6.776632919E0,-3.120168997E0,2.768418045E0,7.957533963E0
1.181887279E1,8.222272205E0,-3.297715023E0,1.518690305E0,8.988164708E0
1.182890979E1,8.882421098E0,-3.911618872E0,4.750430024E-1,9.717192630E0
1.183894579E1,8.323424358E0,-4.640550901E0,-3.545681405E-1,9.536237427E0
1.184898279E1,7.183886812E0,-5.239685268E0,-8.070327044E-2,8.892077623E0
1.185901979E1,4.856370462E0,-6.014895671E0,9.398301347E-1,7.787591712E0
1.186905579E1,-6.228155905E-1,-6.174321175E0,6.933765730E-1,6.244270358E0
1.187909279E1,-5.995291711E0,-6.446581569E0,7.035694394E-1,8.831587999E0
1.188912879E1,-8.890629419E0,-6.076110756E0,2.606010461E0,1.107942706E1
1.189916579E1,-1.027809534E1,-3.210424864E0,4.106880499E0,1.152443227E1
1.190920279E1,-1.146254477E1,-1.262242536E0,4.732672030E0,1.246520651E1
1.191923879E1,-1.007896256E1,5.996003902E-1,5.975267336E0,1.173238368E1
1.192927579E1,-9.179480118E0,6.720240033E-1,7.348012308E0,1.177742571E1
1.193931179E1,-7.735081027E0,3.492635465E-1,9.148462393E0,1.198531717E1
1.194934879E1,-4.129005486E0,2.026581795E0,7.081162927E0,8.443849150E0
1.195938579E1,-7.452763130E-1,3.058528819E0,4.932763165E0,5.851682472E0
1.196942179E1,1.425128130E0,3.100148715E0,3.017079954E0,4.554633212E0
1.197945879E1,2.703779415E0,3.014329131E0,9.017824486E-2,4.050275960E0
1.198949479E1,4.565444586E0,3.852300038E0,-3.559941595E0,6.953897037E0
1.199953179E1,5.479277269E0,4.340968223E0,-5.416273520E0,8.843217929E0
1.200956879E1,4.979480664E0,4.451855405E0,-3.804666281E0,7.686984437E0
1.201960479E1,4.948741851E0,4.253117900E0,-2.938288723E0,7.156297814E0
1.202964179E1,4.327391865E0,3.754964363E0,-1.606483324E0,5.950366912E0
1.203967779E1,4.303573524E0,2.909371026E0,6.266577959E-1,5.232388063E0
1.204971479E1,4.332817204E0,2.347560605E0,2.443143870E0,5.500299782E0
1.205975179E1,4.142552315E0,2.307714754E0,3.372355900E0,5.818854817E0
1.206978779E1,3.721094951E0,2.296768767E0,3.524828188E0,5.616592219E0
1.207982479E1,2.212662271E0,2.217215644E0,3.798011272E0,4.923089392E0
1.208986079E1,7.375344533E-1,2.259896225E0,4.052100567E0,4.697936464E0
1.209989779E1,-6.676404919E-1,2.881055299E0,1.486063718E0,3.309774741E0
1.210993479E1,-9.294539581E-1,3.291320508E0,-1.320050741E0,3.665952714E0
1.211996975E1,4.005244781E-1,3.371317434E0,-5.392650184E-1,3.437587506E0
1.213000675E1,-1.257041730E-1,3.707793120E0,-9.418332446E-1,3.827607767E0
1.214004275E1,1.289415863E0,3.805523483E0,-1.347591419E0,4.237995384E0
1.215007975E1,7.866558156E-1,5.132321618E0,3.945157916E0,6.521029332E0
1.216011675E1,-4.570178199E0,2.286986375E0,5.616742970E0,7.593723529E0
1.217015275E1,-1.096355625E1,-4.550121372E0,4.403539570E-1,1.187842926E1
1.218018975E1,-1.173214000E1,-5.680351321E0,-4.424365013E0,1.376533711E1
1.219022575E1,-7.372350174E0,-5.479636872E0,-6.964427944E0,1.152741185E1
1.220026275E1,-2.669815278E0,-6.765681669E0,-7.873347212E0,1.071876664E1
1.221029975E1,2.975008068E0,-5.597453005E0,-6.152619234E0,8.833848346E0
1.222033575E1,3.369119174E0,-2.737261741E0,-3.032078939E0,5.295004111E0
1.223037275E1,2.463810562E-1,4.704435825E-2,-1.272432186E0,1.296919606E0
1.224040875E1,-4.167212362E0,1.136947814E0,-2.471490295E0,4.976602604E0
1.225044575E1,-5.773874027E0,8.479731542E-1,-2.114636478E0,6.207122294E0
1.226048275E1,-4.474739068E0,-8.299397564E-1,-3.403819183E-1,4.563764847E0
1.227051875E1,-1.903379646E0,-3.090736452E0,6.917922699E-1,3.695143088E0
1.228055575E1,9.516113971E-1,-6.049038148E0,2.450715137E0,6.595637304E0
1.229059175E1,2.207628841E0,-7.842085074E0,4.151481306E0,9.143671059E0
1.230062875E1,2.164811289E0,-6.994398433E0,4.510095427E0,8.599359169E0
1.231066575E1,3.158785763E-1,-5.075000778E0,3.189069955E0,6.002131234E0
1.232070175E1,-1.360110600E-1,-3.021693699E0,2.605931523E0,3.992494324E0
1.233073875E1,1.070532361E0,-1.102477309E0,2.490105490E0,2.926110235E0
1.234077475E1,1.332792116E0,-3.181060731E-2,1.913646333E0,2.332249778E0
1.235081175E1,5.974654256E-1,-4.770181918E-1,1.431987937E0,1.623299339E0
1.236084875E1,-1.209964335E-1,-1.871142338E0,1.250117311E0,2.253576508E0
1.237088475E1,-1.534322543E-1,-3.701788030E0,1.441061500E0,3.975353358E0
1.238092175E1,-1.249481280E-1,-4.919787024E0,1.712374645E0,5.210771854E0
1.239095775E1,-3.536112437E-1,-4.946536281E0,1.926750090E0,5.320303375E0
1.240099475E1,-1.380727883E-1,-3.902041132E0,2.219468576E0,4.491216968E0
1.241103175E1,1.128370972E0,-1.675745348E0,1.729585340E0,2.659475318E0
1.242106775E1,2.229357387E0,6.811772346E-1,9.475600076E-1,2.516328029E0
1.243110475E1,3.786807130E0,2.276537400E0,-6.821712613E-2,4.418957383E0
1.244114075E1,5.594852164E0,2.671244338E0,2.615132117E-1,6.205344971E0
1.245117775E1,6.832774376E0,2.522602853E0,1.562047263E0,7.449182672E0
1.246121475E1,6.470430608E0,1.809208045E0,2.255692223E0,7.087161167E0
1.247125075E1,5.212798601E0,8.636296588E-1,1.796905649E0,5.581038914E0
1.248128775E1,4.365448176E0,3.620087224E-1,6.984123413E-1,4.435760125E0
1.249132375E1,4.645414908E0,4.256410468E-1,-9.397447653E-1,4.758589096E0
1.250136075E1,4.012208230E0,5.465275526E-1,-1.574479613E0,4.344593571E0
1.251139775E1,3.286823122E0,1.166810129E0,-1.691495408E0,3.876313819E0
1.252143375E1,1.783167762E0,1.888233165E0,-1.537525356E0,3.018127892E0
1.253147075E1,1.812049207E-1,2.615495229E0,-1.104293454E0,2.844839987E0
1.254150675E1,-9.774210070E-1,3.011009667E0,-6.692546888E-1,3.235650302E0
1.255154375E1,-1.956972739E0,3.167168332E0,-6.442637622E-1,3.778329438E0
1.256158075E1,-2.636230333E0,3.517245226E0,-1.033878798E0,4.515487761E0
1.257161675E1,-3.156353322E0,3.476084921E0,-1.571947914E0,4.951439479E0
1.258165375E1,-3.471047544E0,3.065515072E0,-1.997060373E0,5.043193814E0
1.259168975E1,-3.500512834E0,2.539657427E0,-1.778762616E0,4.676264149E0
1.260172675E1,-3.322050549E0,1.974355050E0,-1.132150685E0,4.026892461E0
1.261176375E1,-2.738009892E0,1.102904740E0,-1.613783281E-1,2.956203647E0
1.262179975E1,-1.153435354E0,8.972529030E-1,9.547883356E-1,1.745593496E0
1.263183675E1,1.086978386E-1,6.358326620E-1,1.756147925E0,1.870869832E0
1.264187275E1,9.040706103E-1,2.352785093E-1,2.377608862E0,2.554549578E0
1.265190975E1,1.796972746E0,-2.217802119E-1,2.706007204E0,3.255882753E0
1.266194675E1,2.430753913E0,-6.372582132E-1,3.543194000E0,4.343833138E0
1.267198275E1,2.252153634E0,-5.212319130E-1,4.047685919E0,4.661291666E0
1.268201975E1,1.144730604E0,1.357741016E-1,3.065625000E0,3.275194560E0
1.269205575E1,1.409089802E-1,1.222734069E0,-4.388230463E-1,1.306713286E0
1.270209275E1,8.511733353E-2,2.117475593E0,-4.837638906E0,5.281448479E0
1.271212975E1,-7.774370223E-2,2.983884434E0,-6.571621352E0,7.217743248E0
1.272216575E1,5.488230233E-1,3.677011038E0,-6.650396211E0,7.619014808E0
1.273220275E1,1.149282516E0,2.997415475E0,-6.863854081E0,7.577456214E0
1.274223875E1,2.381342309E0,2.095666648E0,-5.999188880E0,6.786227016E0
1.275227575E1,4.450450027E0,8.655411136E-1,-5.172497252E0,6.878255206E0
1.276231275E1,3.431734959E0,-4.102470821E-1,-3.663187051E0,5.036273113E0
1.277234875E1,6.031620754E-1,-1.870760515E0,-1.549069514E0,2.502631765E0
1.278238575E1,-1.442900450E0,-3.230100160E0,-1.391159608E0,3.801425233E0
1.279242175E1,-1.584812227E0,-4.122702772E0,-1.867202484E0,4.795284461E0
1.280245875E1,-8.818988456E-1,-4.512070032E0,-2.038901294E0,5.029278281E0
1.281249575E1,-1.994304726E0,-3.760247907E0,-2.732226119E0,5.057842942E0
1.282253175E1,-3.905393926E0,-1.510018299E0,-3.501905056E0,5.458534235E0
1.283256875E1,-3.813466925E0,8.774138850E-1,-4.231093193E0,5.763205247E0
1.284260475E1,-2.507531947E0,1.706223959E0,-5.203077021E0,6.022534944E0
1.285264175E1,-2.200263104E0,1.717006810E0,-4.077832993E0,4.941456469E0
1.286267875E1,-2.298981353E0,1.477820606E0,-1.890724078E0,3.323267450E0
1.287271475E1,-2.152292839E0,5.890613687E-1,-3.805005419E-1,2.263655986E0
1.288275175E1,-1.483681709E0,-1.927218890E-1,1.128401524E0,1.873964551E0
1.289278775E1,2.969954319E-1,-4.269730425E-1,2.113780153E0,2.176827692E0
1.290282475E1,2.736376473E0,-6.434428132E-1,2.320715454E0,3.645201650E0
1.291286175E1,4.951678323E0,-1.026524316E0,1.975818608E0,5.429247605E0
1.292289775E1,6.484831131E0,-1.526323845E0,1.006659059E0,6.737659960E0
1.293293475E1,8.041135404E0,-2.307442274E0,6.862182654E-2,8.365934341E0
1.294297075E1,8.735203995E0,-3.648706421E0,-5.167218094E-1,9.480709299E0
1.295300775E1,7.968363297E0,-5.226373497E0,-1.354181085E0,9.625154543E0
1.296304475E1,4.939896183E0,-6.366378236E0,-2.073965292E0,8.320737838E0
1.297308075E1,1.575438702E0,-7.152246943E0,-1.656992158E0,7.508812586E0
1.298311775E1,-2.078966854E0,-7.554534211E0,-9.507981956E-1,7.892851673E0
1.299315375E1,-7.662232322E0,-7.336619593E0,4.808060181E-1,1.061917914E1
1.300319075E1,-8.674117548E0,-7.474663584E0,4.682972158E0,1.237097972E1
1.301322775E1,-8.775274379E0,-5.467828420E0,6.227907983E0,1.207018748E1
1.302326375E1,-1.016294261E1,-2.151574216E0,6.949689453E0,1.249851422E1
1.303330075E1,-1.039294869E1,-7.369889081E-2,8.630932353E0,1.350969309E1
1.304333675E1,-8.365788605E0,9.392037517E-1,9.470535218E0,1.267120989E1
1.305337375E1,-5.773979276E0,2.519136039E0,8.681299099E0,1.072612871E1
1.306341075E1,-3.561201670E0,3.479968057E0,7.335567679E0,8.865826988E0
1.307344675E1,-1.324005505E0,3.943704298E0,5.712845467E0,7.066993526E0
1.308348375E1,5.838878985E-1,4.309253510E0,3.486253521E0,5.573558513E0
1.309351975E1,2.232524385E0,4.485225465E0,2.239946987E-1,5.015135713E0
1.310355675E1,3.182058559E0,3.522470883E0,-3.844642817E0,6.108565804E0
1.311359404E1,4.354687545E0,3.487132065E0,-8.717494533E0,1.034978766E1
1.312363004E1,5.807462187E0,2.802696177E0,-7.668428031E0,1.001930693E1
1.313366704E1,7.115649805E0,2.784646992E0,-5.021088281E0,9.143197392E0
1.314370304E1,6.646091491E0,2.924777269E0,-3.565792319E0,8.089482619E0
1.315374004E1,6.428462802E0,1.983612362E0,-2.945511496E-1,6.733989336E0
1.316377704E1,5.558364953E0,1.653786129E0,1.864591118E0,6.091562160E0
1.317381304E1,3.639530093E0,1.759405555E0,3.042362145E0,5.059412479E0
1.318385004E1,2.078851810E0,1.905726864E0,4.107575148E0,4.982528808E0
1.319388604E1,9.957230844E-1,2.057980759E0,4.692634098E0,5.219919926E0
1.320392304E1,1.308875835E-1,2.080260989E0,4.386497567E0,4.856539740E0
1.321396004E1,-7.279315710E-2,2.003943715E0,3.591992230E0,4.113817866E0
1.322399604E1,3.063834290E-1,2.471933221E0,1.884683612E0,3.123516764E0
1.323403304E1,1.509312540E-2,3.873226638E0,-1.995232387E0,4.356955895E0
1.324406904E1,-2.576496640E-1,2.924447486E0,-3.234056386E0,4.367825220E0
1.325410604E1,-5.277112126E-5,1.932703578E0,-2.162799408E0,2.900524850E0
1.326414304E1,-7.804959932E-1,1.939282866E0,-1.033159590E0,2.331825630E0
1.327417904E1,-3.088617421E0,1.988980690E0,9.493470629E-1,3.794319650E0
1.328421604E1,-6.870268477E0,9.298061067E-1,2.191914157E0,7.271149566E0
1.329425204E1,-7.791019585E0,-1.604792894E0,1.584142283E-2,7.954595990E0
1.330428904E1,-7.416774395E0,-5.441015428E0,-2.650685527E0,9.572843103E0
1.331432604E1,-4.890244844E0,-6.216227585E0,-3.675132912E0,8.721386469E0
1.332436204E1,4.228925630E-1,-4.349478260E0,-3.820254665E0,5.804407374E0
1.333439904E1,3.544103242E0,-2.543407831E0,-3.986778105E0,5.909652345E0
1.334443504E1,1.871136637E0,-6.053751004E-1,-4.931429415E0,5.309107966E0
1.335447204E1,-2.468375190E0,-5.366574526E-2,-6.865678997E0,7.296115691E0
1.336450904E1,-4.637212141E0,-7.706472355E-1,-6.387825823E0,7.931075107E0
1.337454504E1,-4.140917434E0,-2.019463395E0,-3.729993829E0,5.927755356E0
1.338458204E1,-1.940467365E0,-3.798104535E0,-1.078299072E0,4.399288641E0
1.339461804E1,5.896637781E-1,-6.282939053E0,2.532376474E0,6.799702723E0
1.340465504E1,2.349660341E0,-7.247102230E0,5.060749944E0,9.146178680E0
1.341469204E1,3.426992283E0,-5.016102360E0,5.941100886E0,8.497190049E0
1.342472804E1,1.467868499E0,-2.563148616E0,4.542010992E0,5.417954652E0
1.343476504E1,3.468699887E-2,-1.029514582E0,3.484090636E0,3.633179190E0
1.344480104E1,1.067659186E-1,5.138614976E-1,2.950931865E0,2.997240643E0
1.345483804E1,-2.928269519E-1,3.863056576E-1,2.012726233E0,2.070276932E0
1.346487504E1,-1.033153304E-1,-1.457551818E0,1.957572079E0,2.442789349E0
1.347491104E1,2.005760153E-1,-3.825643167E0,2.493020327E0,4.570659332E0
1.348494804E1,4.494582179E-1,-5.357234768E0,2.596071364E0,5.970055576E0
1.349498404E1,1.315629808E0,-5.321185514E0,2.809271371E0,6.159375188E0
1.350502104E1,2.476853653E0,-4.370840478E0,2.952911732E0,5.827412651E0
1.351505804E1,2.654882659E0,-3.057772189E0,1.932064185E0,4.486785565E0
1.352509404E1,3.003955001E0,-1.080406408E0,6.721820243E-1,3.262338476E0
1.353513104E1,3.383342526E0,3.395425504E-1,1.722728603E-1,3.404698772E0
1.354516704E1,3.162006994E0,1.433566539E0,-7.379186153E-4,3.471800945E0
1.355520404E1,3.219088391E0,1.902139013E0,3.118961839E-1,3.752058385E0
1.356524104E1,3.662551751E0,1.373798640E0,1.168650394E0,4.082566812E0
1.357527704E1,3.997153112E0,4.792220074E-1,1.425984747E0,4.270868674E0
1.358531404E1,4.002329652E0,4.923063219E-2,1.093194415E0,4.149233703E0
1.359535004E1,3.789513221E0,3.755140364E-2,3.664299484E-1,3.807373303E0
1.360538704E1,3.392194918E0,2.609606498E-1,4.575073488E-1,3.432841359E0
1.361542404E1,2.948938549E0,1.011770037E0,8.369463287E-2,3.118801367E0
1.362546004E1,2.941851431E0,2.209666303E0,-9.069850818E-1,3.789424357E0
1.363549704E1,2.348892016E0,2.813489553E0,-2.289777836E0,4.321585323E0
1.364553304E1,1.204792327E0,2.629178299E0,-3.242136068E0,4.344600023E0
1.365557004E1,3.141830300E-1,2.720101917E0,-2.827417620E0,3.935982192E0
1.366560704E1,-8.127295004E-1,2.817424729E0,-2.294192483E0,3.723134499E0
1.367564304E1,-2.016008421E0,2.931523202E0,-2.072634466E0,4.117515254E0
1.368568004E1,-3.089086953E0,3.004463124E0,-2.596930904E0,5.031233148E0
1.369571604E1,-3.238270474E0,2.794221808E0,-2.649859900E0,5.031483744E0
1.370575304E1,-2.749001196E0,2.463805007E0,-1.991729028E0,4.194559239E0
1.371579004E1,-1.854356297E0,2.248984151E0,-6.608438346E-1,2.988859576E0
1.372582604E1,-6.968775934E-1,1.739028009E0,1.227410088E0,2.239730412E0
1.373586304E1,7.087763849E-1,1.003172291E0,3.796965498E0,3.990697383E0
1.374589904E1,1.522358702E0,5.524244696E-1,5.211630328E0,5.457457236E0
1.375593604E1,1.947164766E0,1.258426058E-1,5.243419300E0,5.594705796E0
1.376597304E1,1.457158154E0,-3.175739765E-1,5.799404140E0,5.988092475E0
1.377600904E1,9.101829971E-1,-4.291195554E-1,6.530316621E0,6.607390699E0
1.378604604E1,-2.375934219E-1,-3.363546485E-1,4.401015619E0,4.420240216E0
1.379608204E1,-1.146963364E0,5.660747945E-2,1.001205872E0,1.523529640E0
1.380611904E1,-1.347325371E0,9.404117864E-1,-2.342089366E0,2.860951342E0
1.381615604E1,-1.317841078E0,2.519662288E0,-4.501531595E0,5.324395727E0
1.382619204E1,-8.796896213E-1,4.277144694E0,-5.577731516E0,7.083707323E0
1.383622904E1,1.104463608E0,3.898217053E0,-7.415677457E0,8.450337757E0
1.384626504E1,3.598103740E0,1.768984464E0,-8.200592483E0,9.128273311E0
1.385630204E1,4.928895231E0,8.267196947E-1,-6.632194998E0,8.304425576E0
1.386633904E1,6.354684974E0,-9.069616199E-2,-4.527921833E0,7.803353320E0
1.387637504E1,4.210171856E0,-8.216682851E-1,-3.417240297E0,5.484361136E0
1.388641204E1,5.266407336E-1,-1.034781169E0,-3.266389149E0,3.466615151E0
1.389644804E1,-1.544390279E0,-1.693770559E0,-2.499525647E0,3.391405093E0
1.390648504E1,-2.188039353E0,-3.088071876E0,-2.200875599E0,4.378076921E0
1.391652204E1,-2.619870701E0,-4.104174115E0,-1.834163961E0,5.203088034E0
1.392655804E1,-3.636165898E0,-3.814878443E0,-2.054954240E0,5.656663053E0
1.393659504E1,-4.852258407E0,-1.920242577E0,-3.011040072E0,6.024790911E0
1.394663104E1,-4.656741257E0,-1.681659222E-3,-4.579117130E0,6.530968967E0
1.395666804E1,-3.097153187E0,9.523839605E-1,-5.437259177E0,6.329548201E0
1.396670504E1,-2.272536297E0,1.165382239E0,-4.487350928E0,5.163221410E0
1.397674104E1,-2.193318658E0,9.173591387E-1,-2.411951898E0,3.386695511E0
1.398677804E1,-1.648176018E0,1.876242864E-1,-1.015612242E0,1.945033492E0
1.399681404E1,-1.108832574E0,-7.291349280E-1,-1.977282751E-1,1.341731676E0
1.400685104E1,-9.052871235E-2,-1.184636536E0,7.078229964E-1,1.382957904E0
1.401688804E1,1.803363022E0,-1.105987977E0,1.691441613E0,2.708560933E0
1.402692404E1,3.895243744E0,-1.205074893E0,2.554739735E0,4.811634280E0
1.403696104E1,6.044736936E0,-1.625331824E0,3.095910069E0,6.983208956E0
1.404699704E1,7.633263461E0,-2.184149054E0,2.542254760E0,8.336682639E0
1.405703404E1,8.057255008E0,-3.118559843E0,1.502007029E0,8.769310057E0
1.406707104E1,7.282349830E0,-4.023266192E0,-1.652540088E-1,8.321454127E0
1.407710704E1,5.699627252E0,-5.128526191E0,-1.147561680E0,7.752704657E0
1.408714404E1,4.456937805E0,-6.689605300E0,4.394931006E-1,8.050358244E0
1.409718004E1,3.589972602E-1,-7.344913284E0,1.275632806E0,7.463502478E0
1.410721704E1,-4.607843039E0,-6.817454086E0,7.907189727E-1,8.266506770E0
1.411725375E1,-8.821233494E0,-5.830904844E0,2.359562016E-1,1.057682783E1
1.412728975E1,-1.152750616E1,-4.870440032E0,3.224454673E0,1.292291346E1
1.413732675E1,-1.177366926E1,-2.961391949E0,5.788547029E0,1.344977349E1
1.414736275E1,-1.015533773E1,-1.177104152E0,6.516221323E0,1.212343181E1
1.415739975E1,-7.769677248E0,3.099597323E-1,6.856502377E0,1.036704319E1
1.416743675E1,-6.021797140E0,7.801852137E-1,7.751052697E0,9.846296139E0
1.417747275E1,-4.098406714E0,2.082574732E0,7.974852537E0,9.205016464E0
1.418750975E1,-1.725376514E0,3.114181448E0,7.764488429E0,8.541799036E0
1.419754575E1,6.928836527E-1,3.685637435E0,6.452786050E0,7.463407993E0
1.420758275E1,2.762264435E0,3.418015053E0,3.356856101E0,5.530046527E0
1.421761975E1,3.560758451E0,2.995925020E0,-3.630325699E0,5.902019328E0
1.422765575E1,5.380198538E0,3.021736384E0,-7.141904973E0,9.438444455E0
1.423769275E1,6.596704153E0,3.435412858E0,-5.273022584E0,9.117199919E0
1.424772875E1,5.908768707E0,3.621212813E0,-6.434591854E0,9.456780752E0
1.425776575E1,5.470661396E0,3.171095322E0,-5.213216093E0,8.195218343E0
1.426780275E1,6.313125304E0,2.142115175E0,-1.354932891E0,6.802944338E0
1.427783875E1,5.494073648E0,1.399207715E0,6.826703212E-1,5.710399832E0
1.428787575E1,4.006850719E0,1.575242236E0,2.166641614E0,4.819810854E0
1.429791175E1,2.932273985E0,2.100022239E0,4.243897718E0,5.569469631E0
1.430794875E1,1.197511666E0,2.302653404E0,5.612140042E0,6.183232386E0
1.431798575E1,-7.432066910E-1,2.520024231E0,5.216273017E0,5.840580664E0
1.432802175E1,-1.294620469E0,3.037436158E0,3.892392642E0,5.104192498E0
1.433805875E1,-6.671816316E-1,3.286994737E0,1.649931352E0,3.737878971E0
1.434809475E1,9.061269298E-2,2.890169354E0,7.368991533E-1,2.984009034E0
1.435813175E1,-5.129024081E-1,3.924680382E0,-1.198011457E0,4.135385887E0
1.436816875E1,-1.586649422E0,4.251372507E0,-2.528136658E0,5.194525921E0
1.437820475E1,-3.821851540E0,4.962114433E0,2.242244650E0,6.652577689E0
1.438824175E1,-4.329971072E0,5.831784850E0,9.851045115E0,1.223934042E1
1.439827775E1,-3.840721382E0,-2.240815006E0,2.164824007E0,4.945589510E0
1.440831475E1,-9.348760520E0,-5.266249169E0,-8.070281435E0,1.342617392E1
1.441835175E1,-8.267657708E0,-4.723732222E0,-1.024041121E1,1.398334122E1
1.442838775E1,-4.019040117E0,-4.839444526E0,-9.478585079E0,1.137613651E1
1.443842475E1,-9.760463266E-1,-6.462465531E0,-8.538788420E0,1.075300120E1
1.444846075E1,2.593954379E0,-5.322608727E0,-4.806531719E0,7.626369395E0
1.445849775E1,3.244632829E0,-2.269153537E0,-8.664114717E-1,4.053069060E0
1.446853475E1,-2.483553685E-1,2.241594440E-1,5.404230595E-2,3.388929274E-1
1.447857075E1,-5.015567340E0,9.044660282E-1,-1.526671462E0,5.320216188E0
1.448860775E1,-5.587724993E0,6.158825469E-1,-9.259349576E-1,5.697309668E0
1.449864375E1,-4.937199447E0,-1.093869622E0,7.237867722E-1,5.108459300E0
1.450868075E1,-2.708387898E0,-2.958496408E0,2.022317128E0,4.491974240E0
1.451871775E1,6.085527697E-1,-4.939697378E0,3.643860834E0,6.168360271E0
1.452875375E1,2.803657460E0,-6.359710656E0,4.206769946E0,8.124243236E0
1.453879075E1,3.025209045E0,-6.307357610E0,3.338947541E0,7.751336690E0
1.454882675E1,1.778797992E0,-5.100623277E0,1.729350574E0,5.671960289E0
1.455886375E1,2.154571791E-1,-3.588235102E0,6.773578334E-1,3.657959346E0
1.456890075E1,5.941949317E-1,-1.767584056E0,1.478088116E0,2.379530519E0
1.457893675E1,1.177703054E0,-3.386853486E-1,2.204975667E0,2.522619658E0
1.458897375E1,6.861700259E-1,-3.278007567E-1,1.659909626E0,1.825810123E0
1.459900975E1,5.799837126E-1,-1.563846012E0,1.587291154E0,2.302496182E0
1.460904675E1,6.868428943E-1,-3.244556231E0,2.067008421E0,3.907866695E0
1.461908375E1,8.832366885E-1,-4.445555615E0,1.972189972E0,4.942934863E0
1.462911975E1,8.433420132E-1,-4.669708627E0,2.060232667E0,5.173196599E0
1.463915675E1,1.232504328E0,-3.545439915E0,2.142402566E0,4.321932422E0
1.464919275E1,1.766134677E0,-1.437122816E0,1.446299436E0,2.697468395E0
1.465922975E1,2.268121503E0,6.462003601E-1,1.667544043E-1,2.364266713E0
1.466926675E1,3.440702834E0,2.333210953E0,-6.472155829E-1,4.207279092E0
1.467930275E1,4.381189757E0,3.009653698E0,-1.071245137E0,5.422214051E0
1.468933975E1,5.162082776E0,2.863125982E0,-1.609849420E0,6.118513229E0
1.469937575E1,5.596126857E0,1.298667766E0,-7.274124844E-1,5.790708306E0
1.470941275E1,5.681481587E0,6.800393665E-1,9.000595665E-1,5.792391025E0
1.471944975E1,5.713642443E0,5.024635202E-1,1.969493090E0,6.064411149E0
1.472948575E1,5.228803600E0,2.869947928E-1,1.443887898E0,5.432086649E0
1.473952275E1,3.954073458E0,5.031850666E-1,8.414178407E-1,4.073803641E0
1.474955875E1,2.798272174E0,1.339241595E0,3.084944201E-1,3.117541342E0
1.475959575E1,1.759983991E0,2.171394523E0,-5.843589648E-1,2.855516279E0
1.476963275E1,1.055283554E-1,2.517571909E0,-6.409273410E-1,2.600017770E0
1.477966875E1,-6.364061277E-1,3.049865584E0,-3.053357542E-1,3.130482833E0
1.478970575E1,-1.215703231E0,3.064956663E0,-4.491282888E-1,3.327703399E0
1.479974175E1,-2.379757860E0,2.615608665E0,-1.027080752E0,3.682329566E0
1.480977875E1,-3.259425116E0,2.524769247E0,-1.450820357E0,4.370719797E0
1.481981575E1,-3.935562050E0,2.597131464E0,-1.142286322E0,4.851655237E0
1.482985175E1,-3.957156110E0,2.837041553E0,-8.461668031E-1,4.942052965E0
1.483988875E1,-3.777438721E0,2.652354323E0,-1.293530402E0,4.793458839E0
1.484992475E1,-3.014130911E0,2.067504119E0,-1.498601611E0,3.950362669E0
1.485996175E1,-1.288590382E0,1.245922372E0,-7.786783862E-1,1.954258877E0
1.486999875E1,2.956866789E-1,7.710705739E-1,4.328635275E-1,9.323900876E-1
1.488003475E1,1.082065410E0,4.510127002E-1,1.659880682E0,2.032112666E0
1.489007175E1,1.826093634E0,1.255940992E-1,3.343745474E0,3.811958241E0
1.490010775E1,1.566827069E0,-5.954453588E-2,4.387636020E0,4.659382197E0
1.491014475E1,4.128866614E-1,2.022622061E-1,4.256413976E0,4.281173359E0
1.492018175E1,-1.056703989E0,1.077540688E0,2.924429945E0,3.290897713E0
1.493021775E1,-2.240291388E0,2.008970566E0,3.103877485E-1,3.025096493E0
1.494025475E1,-2.360312359E0,2.749926810E0,-3.901203811E0,5.324712487E0
1.495029075E1,-1.061796767E0,3.049880202E0,-8.368504052E0,8.970007898E0
1.496032775E1,1.117446327E0,2.248404107E0,-1.011923585E1,1.042607028E1
1.497036475E1,3.304128833E0,1.414293532E0,-9.113285544E0,9.796400714E0
1.498040075E1,5.507141590E0,5.432080883E-1,-6.999435809E0,8.922767798E0
1.499043775E1,6.167930169E0,-2.803096712E-2,-4.710813968E0,7.761180100E0
1.500047375E1,3.724400382E0,-3.019736052E-1,-1.821569059E0,4.156977279E0
1.501051075E1,4.257098977E-1,-1.583879158E0,9.647876590E-1,1.902818260E0
1.502054775E1,-1.050664838E0,-3.210277514E0,1.112326359E0,3.556268866E0
1.503058375E1,-1.383176843E0,-4.493755968E0,-1.515110639E0,4.939896874E0
1.504062075E1,-1.733047038E0,-4.554284590E0,-3.342387165E0,5.909019557E0
1.505065675E1,-2.754587334E0,-2.829847139E0,-3.620251531E0,5.357425441E0
1.506069375E1,-4.447572904E0,-5.205998290E-1,-4.109819602E0,6.078038012E0
1.507073075E1,-4.720911525E0,1.224680607E0,-4.953713738E0,6.951699650E0
1.508076675E1,-3.020355564E0,2.087484055E0,-5.039069054E0,6.234769790E0
1.509080375E1,-1.790830539E0,1.769648123E0,-3.761157149E0,4.526039284E0
1.510083975E1,-9.771868260E-1,7.474256033E-1,-2.371822457E0,2.671905854E0
1.511087675E1,-4.472410999E-1,-2.123761350E-1,-1.072539564E0,1.181299852E0
1.512091375E1,1.974566719E-1,-6.286113507E-1,2.929197764E-1,7.210709832E-1
1.513094975E1,1.741775615E0,-1.099632053E0,1.480275267E0,2.536570088E0
1.514098675E1,4.064607176E0,-1.793809987E0,2.670334511E0,5.183577159E0
1.515102375E1,6.040561439E0,-2.825713742E0,3.207538093E0,7.400090626E0
1.516105975E1,7.177709813E0,-4.140898138E0,2.588941269E0,8.681542054E0
1.517109675E1,8.882232817E0,-5.094525801E0,2.091450806E0,1.045095304E1
1.518113275E1,9.562281539E0,-6.052547062E0,1.097225339E0,1.136989260E1
1.519116975E1,6.731569598E0,-7.304873890E0,-6.594735396E-1,9.955406428E0
1.520120575E1,2.195179242E0,-7.658773109E0,-1.042780599E0,8.035111002E0
1.521124275E1,-4.468512953E0,-7.060761992E0,-2.592674424E-1,8.359975330E0
1.522127975E1,-1.129186805E1,-7.825946174E0,2.639194579E0,1.398989155E1
1.523131575E1,-1.137535810E1,-6.426053749E0,5.568121033E0,1.420200375E1
1.524135275E1,-1.015750237E1,-2.968844225E0,5.967820323E0,1.214922918E1
1.525138975E1,-1.026893626E1,-1.033429293E0,5.941204966E0,1.190869197E1
1.526142575E1,-1.040383036E1,-2.426711440E-2,7.019406974E0,1.255039240E1
1.527146275E1,-8.265723449E0,1.072936590E0,8.223566194E0,1.170898877E1
1.528149875E1,-5.913057640E0,2.245173520E0,8.133241915E0,1.030313927E1
1.529153575E1,-3.784788086E0,2.470067375E0,7.103954204E0,8.419739843E0
1.530157275E1,-7.591599418E-1,2.929245127E0,5.281026253E0,6.086545745E0
1.531160875E1,1.825209828E0,3.999805409E0,2.431743554E0,5.024262228E0
1.532164575E1,3.242520230E0,3.998475752E0,-2.783624899E0,5.852376727E0
1.533168175E1,4.650073969E0,3.048707836E0,-6.719599178E0,8.721858775E0
1.534171875E1,6.618219568E0,3.035416530E0,-6.560399376E0,9.800684861E0
1.535175575E1,8.242491876E0,3.421522213E0,-5.423911153E0,1.044338541E1
1.536179175E1,8.889209130E0,3.895505115E0,-4.804583427E0,1.082945155E1
1.537182875E1,8.872120643E0,4.310675552E0,-3.429057812E0,1.044293474E1
1.538186475E1,7.157724615E0,3.017936863E0,-8.012828448E-1,7.809162488E0
1.539190175E1,5.809526839E0,2.076859079E0,1.415083491E0,6.329803079E0
1.540193875E1,4.610967498E0,1.842117929E0,3.052996184E0,5.828825390E0
1.541197475E1,2.613223586E0,1.563106340E0,4.342999253E0,5.304138144E0
1.542201175E1,9.575261481E-1,1.318599755E0,5.066628735E0,5.322244675E0
1.543204775E1,-1.450129947E-1,1.415034959E0,5.480632653E0,5.662215731E0
1.544208475E1,-5.446105430E-1,1.795826692E0,4.853658523E0,5.203805839E0
1.545212175E1,2.608032136E-1,2.348117845E0,2.753108573E0,3.627848197E0
1.546215775E1,7.722365087E-1,2.700026087E0,8.547547549E-2,2.809590033E0
1.547219475E1,-5.960242331E-2,4.424467632E0,-3.431268936E0,5.599381465E0
1.548223075E1,-2.981817443E0,2.317231098E0,-3.308776493E0,5.020836295E0
1.549226775E1,-5.860306399E0,1.291124273E0,-9.336085510E-1,6.073040252E0
1.550230475E1,-5.251751583E0,4.620849293E0,8.935612049E0,1.134805294E1
1.551234075E1,-5.752446905E0,-1.628432018E-1,3.678739475E0,6.830101568E0
1.552237775E1,-9.621182882E0,-3.671047463E0,-4.205628569E0,1.112344646E1
1.553241375E1,-8.885603737E0,-3.409784512E0,-5.806303854E0,1.114871063E1
1.554245075E1,-3.661172977E0,-4.153312946E0,-5.976933793E0,8.147265404E0
1.555248775E1,1.803291686E0,-5.086264855E0,-6.369298335E0,8.348048416E0
1.556252375E1,5.666517978E0,-4.595176508E0,-5.328960557E0,9.034538934E0
1.557256075E1,4.291623277E0,-2.753355618E0,-4.028006530E0,6.497986928E0
1.558259675E1,-1.096916606E0,-1.890724663E0,-4.339796733E0,4.859207906E0
1.559263375E1,-5.309174164E0,-1.398877348E0,-4.405829047E0,7.039568007E0
1.560267075E1,-6.045687109E0,-9.139677536E-1,-2.103034432E0,6.465943357E0
1.561270675E1,-5.456479560E0,-1.596387522E0,-7.590621471E-2,5.685717550E0
1.562274375E1,-2.686285715E0,-3.834542629E0,2.747451099E0,5.428474524E0
1.563277975E1,6.740885089E-1,-5.139939371E0,4.844664628E0,7.095360978E0
1.564281675E1,3.332945666E0,-4.547307692E0,5.972564753E0,8.213285810E0
1.565285375E1,2.689543784E0,-3.695852521E0,4.951693525E0,6.738860467E0
1.566288975E1,1.420662173E0,-2.916282434E0,3.404227611E0,4.702313247E0
1.567292675E1,1.314583302E0,-2.508166078E0,2.925578046E0,4.071613100E0
1.568296275E1,8.783004691E-1,-2.709341286E0,2.563567277E0,3.831947168E0
1.569299975E1,3.036235432E-1,-3.733512098E0,2.077616586E0,4.283432096E0
1.570303675E1,1.023063788E0,-5.385058159E0,2.025508246E0,5.843645656E0
1.571307275E1,2.247134969E0,-6.394437270E0,2.418891374E0,7.196490745E0
1.572310975E1,2.905304579E0,-6.146470887E0,3.162884077E0,7.498248779E0
1.573314575E1,3.006188638E0,-4.936188464E0,3.099249706E0,6.558084737E0
1.574318275E1,2.497121857E0,-2.676128517E0,1.923519649E0,4.134877174E0
1.575321975E1,2.134582646E0,-3.067876178E-1,4.647298296E-1,2.206022558E0
1.576325575E1,2.237668765E0,1.552335184E0,-1.035821097E-1,2.725368834E0
1.577329275E1,3.088675016E0,2.733582088E0,1.280108996E-1,4.126593169E0
1.578332875E1,3.661822895E0,3.284472249E0,2.885331953E-1,4.927469561E0
1.579336575E1,4.373464708E0,2.614482492E0,8.592541873E-1,5.167303940E0
1.580340275E1,5.122175530E0,2.025847970E0,1.193330030E0,5.636025081E0
1.581343875E1,5.270074418E0,1.368225659E0,1.155656419E0,5.566081888E0
1.582347575E1,4.398033247E0,1.165300378E0,3.039264290E-1,4.559933408E0
1.583351175E1,2.902620415E0,-9.074995637E-2,-3.806525695E-1,2.928879855E0
1.584354875E1,2.582485943E0,5.914540493E-1,-1.014414732E0,2.836915365E0
1.585358575E1,2.445819848E0,1.451555498E0,-1.984770695E0,3.468193018E0
1.586362175E1,1.809523648E0,1.773820696E0,-2.696751062E0,3.700443485E0
1.587365875E1,9.994730499E-1,2.344851590E0,-2.976692358E0,3.918924949E0
1.588369475E1,1.445712376E-1,3.146866214E0,-2.921654856E0,4.296479362E0
1.589373175E1,-5.501462482E-1,3.852929783E0,-4.075435635E0,5.635326470E0
1.590376875E1,-1.693178529E0,3.847520524E0,-5.639062961E0,7.033441462E0
1.591380475E1,-2.392755928E0,3.510996307E0,-6.102819668E0,7.436180733E0
1.592384175E1,-3.124014126E0,2.750194028E0,-4.396979871E0,6.054458146E0
1.593387775E1,-3.111244977E0,2.037543570E0,-9.806306899E-1,3.846175458E0
1.594391475E1,-3.024570529E0,1.232048684E0,2.694642556E0,4.234037004E0
1.595395175E1,-2.551273213E0,6.815415162E-1,5.424642055E0,6.033260750E0
1.596398775E1,-1.127958305E0,5.459527713E-1,6.644643720E0,6.761778208E0
1.597402475E1,7.781284556E-1,2.043484926E-1,6.676943740E0,6.725237535E0
1.598406175E1,2.459269322E0,-2.602613229E-1,6.092285324E0,6.575080382E0
1.599409775E1,2.860026957E0,-5.033423567E-1,5.363663782E0,6.099343972E0
1.600413475E1,1.838675088E0,-5.304184735E-1,4.066068395E0,4.493882735E0
1.601417075E1,1.797748379E-1,-7.133895457E-2,1.337058245E0,1.350974829E0
1.602420775E1,-1.278342406E0,7.436670130E-1,-1.729259065E0,2.275420148E0
1.603424475E1,-2.225278077E0,1.680464635E0,-4.051278448E0,4.918198956E0
1.604428075E1,-2.147942803E0,2.728277494E0,-5.723729475E0,6.694642296E0
1.605431775E1,-8.822390074E-1,3.246782266E0,-6.267525208E0,7.113495131E0
1.606435375E1,-7.417470798E-1,3.271227136E0,-6.280763304E0,7.120330286E0
1.607439075E1,5.609916638E-1,3.040772579E0,-6.874812348E0,7.538173144E0
1.608442775E1,4.105702870E0,1.881386660E0,-6.148249610E0,7.628721065E0
1.609446375E1,6.045948479E0,7.966188133E-2,-4.726994968E0,7.674915013E0
1.610450075E1,5.848030754E0,-1.396709785E0,-3.381569942E0,6.898208260E0
1.611453704E1,3.243479759E0,-2.007058527E0,-2.051552330E0,4.330971235E0
1.612457404E1,5.670933795E-1,-2.431990306E0,-2.298389615E0,3.393930844E0
1.613461104E1,-4.556233759E-1,-2.949962397E0,-3.476264430E0,4.581952116E0
1.614464704E1,-8.762508738E-1,-3.350180919E0,-3.478890415E0,4.908584959E0
1.615468404E1,-1.664144033E0,-2.714387434E0,-2.778235520E0,4.225620322E0
1.616472004E1,-3.845921896E0,-1.289119847E0,-2.208363544E0,4.618421240E0
1.617475704E1,-4.648811848E0,3.621326834E-1,-3.392816477E0,5.766610384E0
1.618479404E1,-4.014151845E0,1.177768396E0,-4.166999524E0,5.904611626E0
1.619483004E1,-3.385471497E0,1.361374476E0,-3.702659265E0,5.198503953E0
1.620486704E1,-2.717598140E0,6.673403835E-1,-2.928988434E0,4.050883371E0
1.621490304E1,-1.909646984E0,-8.165958256E-1,-1.929230332E0,2.834697518E0
1.622494004E1,-1.071427424E0,-2.067650884E0,-5.932794039E-1,2.403147385E0
1.623497704E1,-7.293685243E-2,-2.888819232E0,1.107791331E0,3.094801766E0
1.624501304E1,1.924391761E0,-3.086190827E0,2.672779816E0,4.513491932E0
1.625505004E1,4.349837279E0,-2.931726100E0,3.600840529E0,6.362558825E0
1.626508604E1,6.279124914E0,-2.863897814E0,3.435505829E0,7.709216606E0
1.627512304E1,7.189650997E0,-3.077241663E0,2.503222257E0,8.211371346E0
1.628516004E1,7.660688657E0,-3.596268591E0,1.456964757E0,8.587318835E0
1.629519604E1,8.180578634E0,-4.132695079E0,1.409746152E0,9.272994102E0
1.630523304E1,6.915965052E0,-5.322975932E0,1.926409782E0,8.937320628E0
1.631526904E1,2.985863716E0,-6.374754372E0,1.743387400E0,7.252053162E0
1.632530604E1,-1.274362352E0,-5.756986098E0,1.896375997E0,6.193797725E0
1.633534304E1,-5.492175642E0,-4.804935429E0,1.211986010E0,7.397317611E0
1.634537904E1,-9.825520849E0,-4.300077474E0,2.144616906E0,1.093759150E1
1.635541604E1,-1.202888853E1,-3.133730444E0,4.986887916E0,1.339341170E1
1.636545204E1,-1.223350015E1,-6.923553568E-1,5.293000181E0,1.334742420E1
1.637548904E1,-1.123506001E1,9.158037794E-1,5.136982434E0,1.238764943E1
1.638552604E1,-8.071026371E0,8.555949998E-1,5.566193790E0,9.841545752E0
1.639556204E1,-4.920776957E0,1.133790902E0,5.063661273E0,7.151237177E0
1.640559904E1,-2.868813861E0,1.828267629E0,3.858146085E0,5.143728871E0
1.641563504E1,-1.240105855E0,2.376766278E0,3.007611558E0,4.028971054E0
1.642567204E1,3.547909194E-1,2.539056333E0,2.066215392E0,3.292708567E0
1.643570904E1,2.408734906E0,2.674481356E0,-3.099901378E-3,3.599286594E0
1.644574504E1,4.234613802E0,2.275200727E0,-1.245565546E0,4.965876149E0
1.645578204E1,5.470767231E0,2.112835243E0,-1.928442420E0,6.173512536E0
1.646581804E1,5.906698208E0,2.604987198E0,-2.903569418E0,7.078542038E0
1.647585504E1,6.862546644E0,2.809523971E0,-2.430160420E0,7.803438412E0
1.648589204E1,6.857419805E0,2.646397764E0,-1.423976229E0,7.487011140E0
1.649592804E1,5.971837360E0,2.318488834E0,2.331021756E-1,6.410348551E0
1.650596504E1,4.488077736E0,2.061706604E0,1.968341481E0,5.316751271E0
1.651600204E1,3.350064560E0,2.135607224E0,3.063958251E0,5.017129751E0
1.652603804E1,2.634099315E0,2.357475144E0,3.483584852E0,4.963016389E0
1.653607504E1,1.970491794E0,2.457947266E0,3.206200543E0,4.494893168E0
1.654611104E1,1.464752518E0,2.480314035E0,2.747583246E0,3.980787780E0
1.655614804E1,1.139472496E0,2.711394829E0,2.147061627E0,3.641419107E0
1.656618504E1,9.907050039E-1,3.410812452E0,4.527022532E-1,3.580513555E0
1.657622104E1,6.210649341E-1,3.771242427E0,-1.299330548E0,4.036861524E0
1.658625804E1,-2.878919019E-1,4.599227459E0,-2.719633555E0,5.350904750E0
1.659629404E1,-2.050843501E0,5.627967870E0,-1.012785991E0,6.075007561E0
1.660633104E1,-2.703277431E0,5.781976513E0,7.434266925E0,9.798330775E0
1.661636804E1,-4.450567556E0,7.716254747E-1,6.770019134E0,8.138557397E0
1.662640404E1,-7.098135640E0,-3.291654384E0,-4.077552912E-1,7.834844129E0
1.663644104E1,-6.549174476E0,-4.591060068E0,-6.118877292E0,1.007026207E1
1.664647704E1,-5.673684910E0,-4.749903190E0,-9.098732994E0,1.172771175E1
1.665651404E1,-2.384087431E0,-4.397425429E0,-9.936627302E0,1.112464765E1
1.666655104E1,2.325836884E0,-4.582071143E0,-7.665793276E0,9.228720373E0
