"Time (s)","Acceleration x (m/s^2)","Acceleration y (m/s^2)","Acceleration z (m/s^2)","Absolute acceleration (m/s^2)"
2.768333070E-4,-6.506968689E-1,9.552535400E0,4.794529724E0,1.070802756E1
1.034483331E-2,-7.503895569E-1,9.468260651E0,4.768483887E0,1.062776942E1
2.041383332E-2,-9.136999512E-1,9.320966949E0,4.606371002E0,1.043714167E1
3.048183332E-2,-1.078058167E0,9.157057800E0,4.376598816E0,1.020629875E1
4.055083334E-2,-1.178499298E0,9.028325500E0,4.168830872E0,1.001392394E1
5.061883334E-2,-1.159189453E0,8.930129700E0,4.027375031E0,9.864617898E0
6.068783329E-2,-1.050216064E0,8.846154327E0,3.945644989E0,9.742972572E0
7.075583329E-2,-9.196875000E-1,8.805289307E0,3.877985687E0,9.665284158E0
8.082483331E-2,-8.032296753E-1,8.706345062E0,3.764371948E0,9.519249887E0
9.089283331E-2,-7.093748474E-1,8.644224243E0,3.688928833E0,9.425180177E0
1.009618333E-1,-5.522016907E-1,8.675509186E0,3.718417511E0,9.454946596E0
1.110298333E-1,-4.323010254E-1,8.660839691E0,3.761827240E0,9.452426806E0
1.210988333E-1,-3.718267822E-1,8.646020508E0,3.817361755E0,9.458550446E0
1.311668333E-1,-2.865042114E-1,8.681197357E0,3.865711212E0,9.507312732E0
1.412358333E-1,-2.136058044E-1,8.651708679E0,3.851640472E0,9.472741147E0
1.513038333E-1,-1.758842468E-1,8.596623230E0,3.735032959E0,9.374611322E0
1.613728333E-1,-1.954934692E-1,8.565787354E0,3.517834625E0,9.262078122E0
1.714408333E-1,-2.610571289E-1,8.506360931E0,3.221600647E0,9.099727350E0
1.815098333E-1,-3.556604004E-1,8.439899139E0,2.925216980E0,8.939535009E0
1.915778333E-1,-4.123924255E-1,8.412356415E0,2.705473938E0,8.846321111E0
2.016468333E-1,-3.959266663E-1,8.378377075E0,2.584525452E0,8.776886245E0
2.117158333E-1,-3.498225403E-1,8.361911316E0,2.601589966E0,8.764257357E0
2.217838333E-1,-3.429368591E-1,8.339458008E0,2.779270477E0,8.797073942E0
2.318528333E-1,-4.179309082E-1,8.291856995E0,2.991529083E0,8.824896879E0
2.419208333E-1,-5.616320801E-1,8.293353882E0,3.180286560E0,8.899964708E0
2.519898333E-1,-6.637197876E-1,8.297844543E0,3.265160065E0,8.941812919E0
2.620578333E-1,-7.846682739E-1,8.301886139E0,3.239413605E0,8.945994538E0
2.721268333E-1,-9.093589783E-1,8.365204468E0,3.131338348E0,8.978243670E0
2.821948333E-1,-9.175918579E-1,8.490194550E0,3.032244415E0,9.062002235E0
2.922638333E-1,-8.436456299E-1,8.644074554E0,2.991080017E0,9.185767389E0
3.023318333E-1,-7.773335266E-1,8.757388916E0,2.966830444E0,9.278911085E0
3.124008333E-1,-6.975494385E-1,8.874146118E0,3.048560486E0,9.409078891E0
3.224688333E-1,-6.062393188E-1,8.983718262E0,3.300486603E0,9.589991227E0
3.325378333E-1,-4.917274475E-1,9.043144684E0,3.667822723E0,9.771038081E0
3.426058333E-1,-4.799020386E-1,9.069190521E0,4.005969543E0,9.926142990E0
3.526748333E-1,-5.659730530E-1,9.016649780E0,4.277055817E0,9.995674325E0
3.627428333E-1,-6.951544189E-1,8.934620361E0,4.543501740E0,1.004759119E1
3.728118333E-1,-8.204438782E-1,8.825197906E0,4.781057739E0,1.007053918E1
3.828798333E-1,-8.692424011E-1,8.752149811E0,4.958738251E0,1.009677145E1
3.929488333E-1,-8.370593262E-1,8.727002106E0,4.990172882E0,1.008776781E1
4.030168333E-1,-7.381150818E-1,8.761729889E0,4.823419647E0,1.002886343E1
4.130858333E-1,-5.920188904E-1,8.895701294E0,4.555027771E0,1.001160656E1
4.231538333E-1,-4.257147217E-1,9.069789276E0,4.304897919E0,1.004860471E1
4.332228333E-1,-2.411485291E-1,9.303153992E0,4.152065735E0,1.019050915E1
4.432908333E-1,-5.777984619E-2,9.514514465E0,3.981719971E0,1.031423375E1
4.533598333E-1,1.472937012E-1,9.594448242E0,3.708088989E0,1.028713062E1
4.634278333E-1,2.951861572E-1,9.566157074E0,3.444038086E0,1.017152370E1
4.734968333E-1,4.186793518E-1,9.592053223E0,3.320095825E0,1.015902622E1
4.835648333E-1,5.471122742E-1,9.629026337E0,3.328777771E0,1.020285458E1
4.936338333E-1,7.409591675E-1,9.673932953E0,3.480113068E0,1.030753056E1
5.037018333E-1,1.019679565E0,9.669591980E0,3.700454865E0,1.040356293E1
5.137708333E-1,1.305435333E0,9.678722992E0,3.924389191E0,1.052533471E1
5.238388333E-1,1.506018219E0,9.729168091E0,4.179758148E0,1.069556828E1
5.339078333E-1,1.601070557E0,9.755513306E0,4.515809326E0,1.086857859E1
5.439758333E-1,1.532363434E0,9.804461517E0,4.976102142E0,1.110122497E1
5.540448333E-1,1.462009735E0,9.867779846E0,5.514682159E0,1.139834509E1
5.641128333E-1,1.422641602E0,9.878557434E0,6.015390930E0,1.165309977E1
5.741818333E-1,1.367705841E0,9.789792023E0,6.400540009E0,1.177614366E1
5.842498333E-1,1.372196503E0,9.647587738E0,6.698570251E0,1.182496156E1
5.943188333E-1,1.302291870E0,9.397757263E0,6.821614380E0,1.168538525E1
6.043868333E-1,1.153650970E0,9.104217682E0,6.767576752E0,1.140253416E1
6.144558333E-1,1.026565247E0,8.903784485E0,6.648424530E0,1.115942485E1
6.245238333E-1,1.000519409E0,8.744964752E0,6.493646393E0,1.093813929E1
6.345928333E-1,9.440867615E-1,8.602760468E0,6.184090118E0,1.063681146E1
6.446608333E-1,8.894503784E-1,8.545878754E0,5.754633179E0,1.034112995E1
6.547298333E-1,9.502239990E-1,8.563542023E0,5.378016357E0,1.015678284E1
6.647978333E-1,1.148711243E0,8.581804047E0,5.151836700E0,1.007513373E1
6.748668333E-1,1.469494171E0,8.637338562E0,5.135221252E0,1.015546788E1
6.849348333E-1,1.832639008E0,8.714727631E0,5.243146820E0,1.033419721E1
6.950038333E-1,2.044298859E0,8.739875336E0,5.318589935E0,1.043321511E1
7.050718333E-1,2.025438080E0,8.682095490E0,5.273533630E0,1.035815324E1
7.151408333E-1,1.863923950E0,8.563392334E0,5.156926117E0,1.016856862E1
7.252088333E-1,1.657353516E0,8.420439606E0,5.049000549E0,9.957059324E0
7.352778333E-1,1.467248840E0,8.262817383E0,4.994663544E0,9.765942565E0
7.453458333E-1,1.230590973E0,8.062982941E0,4.939727783E0,9.535562837E0
7.554148333E-1,9.897418213E-1,7.863298187E0,4.912484436E0,9.324352556E0
7.654828333E-1,7.689509583E-1,7.659871216E0,4.837490387E0,9.092096890E0
7.755518333E-1,5.418731689E-1,7.477550354E0,4.701423340E0,8.849337108E0
7.856198333E-1,3.245251465E-1,7.360643463E0,4.508773956E0,8.637906653E0
7.956888333E-1,1.809736633E-1,7.384443970E0,4.333638153E0,8.564063513E0
8.057568333E-1,1.850152588E-1,7.500901794E0,4.161047058E0,8.579747723E0
8.158258333E-1,3.159928894E-1,7.676486664E0,3.971990204E0,8.648988680E0
8.258938333E-1,4.507127380E-1,7.880362701E0,3.788172455E0,8.755198960E0
8.359628333E-1,6.033952332E-1,8.094267883E0,3.684887238E0,8.914014378E0
8.460308333E-1,7.556286621E-1,8.296946411E0,3.695365448E0,9.114056189E0
8.560998333E-1,8.527766418E-1,8.440647583E0,3.841461639E0,9.312818432E0
8.661678333E-1,8.373587036E-1,8.487500153E0,4.111649780E0,9.468077543E0
8.762368333E-1,7.981402588E-1,8.451724548E0,4.410278778E0,9.566568591E0
8.863045833E-1,6.632707214E-1,8.336314545E0,4.620741119E0,9.554334971E0
8.963735833E-1,3.576063538E-1,8.234226837E0,4.667144623E0,9.471674236E0
9.064415833E-1,1.094224548E-1,8.175249481E0,4.700824585E0,9.431035422E0
9.165105833E-1,-5.433700562E-2,8.146658936E0,4.749922485E0,9.430417167E0
9.265785833E-1,-1.615141296E-1,8.147407379E0,4.792134705E0,9.453617765E0
9.366475833E-1,-2.580633545E-1,8.209827576E0,4.839136963E0,9.533368348E0
9.467155833E-1,-3.471281433E-1,8.293653259E0,4.913681946E0,9.646214418E0
9.567845833E-1,-4.207749939E-1,8.418793030E0,4.984484711E0,9.792763425E0
9.668525833E-1,-4.834945679E-1,8.535101166E0,4.950056305E0,9.878500713E0
9.769215833E-1,-4.873864746E-1,8.647517395E0,4.893623657E0,9.948098068E0
9.869895833E-1,-4.754113770E-1,8.799750824E0,4.866230621E0,1.006686798E1
9.970585833E-1,-4.363426208E-1,8.917256470E0,4.785847778E0,1.012976785E1
1.007126583E0,-4.119433594E-1,8.995693359E0,4.608766022E0,1.011597354E1
1.017195583E0,-3.474275208E-1,9.132059784E0,4.399052124E0,1.014233116E1
1.027263583E0,-1.672023010E-1,9.344917145E0,4.243525543E0,1.026464525E1
1.037332583E0,6.795867920E-2,9.551637268E0,4.092639313E0,1.039173178E1
1.047400583E0,2.821632385E-1,9.764045563E0,3.974834290E0,1.054587642E1
1.057469583E0,4.852908325E-1,9.993518372E0,3.861519928E0,1.072460968E1
1.067537583E0,7.478448486E-1,1.013826736E1,3.736529846E0,1.083076139E1
1.077606583E0,9.848020935E-1,1.014919464E1,3.653153229E0,1.083150569E1
1.087674583E0,9.782157898E-1,1.005893234E1,3.655697937E0,1.074723934E1
1.097743583E0,7.244934082E-1,9.812993774E0,3.752995605E0,1.053113069E1
1.107811583E0,3.909869385E-1,9.443711700E0,4.018094330E0,1.027042567E1
1.117880583E0,8.532257080E-2,9.070388031E0,4.446054382E0,1.010181264E1
1.127948583E0,-2.393522644E-1,8.711284790E0,4.897665253E0,9.996544259E0
1.138017583E0,-6.017486572E-1,8.340505829E0,5.254074097E0,9.875800400E0
1.148085583E0,-1.000070343E0,8.016130371E0,5.373226318E0,9.702064104E0
1.158154583E0,-1.379082184E0,7.761210480E0,5.344336395E0,9.523664593E0
1.168222583E0,-1.638193359E0,7.616760864E0,5.234764252E0,9.386238880E0
1.178291583E0,-1.716779938E0,7.587870941E0,5.086572418E0,9.294963031E0
1.188359583E0,-1.676214294E0,7.637268219E0,4.856351166E0,9.204439519E0
1.198428583E0,-1.502276001E0,7.783065033E0,4.629872131E0,9.179795773E0
1.208496583E0,-1.233884125E0,7.979157257E0,4.450095978E0,9.219152606E0
1.218565583E0,-1.016236725E0,8.160729675E0,4.261637878E0,9.262386481E0
1.228633583E0,-8.244854736E-1,8.374036102E0,4.079317017E0,9.351207636E0
1.238702583E0,-5.822891235E-1,8.589887238E0,3.905378723E0,9.453951891E0
1.248770583E0,-3.140469360E-1,8.732839966E0,3.799399109E0,9.528722524E0
1.258839583E0,-4.640350342E-2,8.838220825E0,3.834126892E0,9.634149141E0
1.268907583E0,2.249821472E-1,8.959917755E0,4.029770050E0,9.826992918E0
1.278976583E0,4.882846069E-1,9.053622894E0,4.350852356E0,1.005666076E1
1.289044583E0,7.226971436E-1,9.152866516E0,4.763244781E0,1.034339197E1
1.299113583E0,7.762857056E-1,9.128766632E0,5.184169464E0,1.052675699E1
1.309181583E0,7.523355103E-1,8.995992737E0,5.491330719E0,1.056639045E1
1.319250583E0,6.045927429E-1,8.902437286E0,5.702092438E0,1.058927666E1
1.329318583E0,3.866459656E-1,8.753197632E0,5.723797302E0,1.046564950E1
1.339387583E0,5.463638306E-2,8.479416962E0,5.484744415E0,1.009880777E1
1.349455583E0,-4.144880676E-1,8.192313995E0,5.093757477E0,9.655680928E0
1.359524583E0,-8.494834900E-1,7.959098969E0,4.665198669E0,9.264607775E0
1.369592583E0,-1.163829803E0,7.816295929E0,4.294719086E0,8.994086607E0
1.379661583E0,-1.333726501E0,7.739206238E0,4.017495575E0,8.821247659E0
1.389729583E0,-1.346300354E0,7.734116821E0,3.902534637E0,8.766918743E0
1.399798583E0,-1.277593231E0,7.846832428E0,3.868704987E0,8.841487538E0
1.409866583E0,-1.062041473E0,8.053402863E0,3.905827789E0,9.013363439E0
1.419935583E0,-6.988966370E-1,8.275540924E0,3.795956268E0,9.131391903E0
1.430003583E0,-3.716770935E-1,8.548872528E0,3.610941010E0,9.287640192E0
1.440072583E0,-1.047821045E-3,8.875193939E0,3.420686646E0,9.511580609E0
1.450140583E0,3.894900513E-1,9.120234375E0,3.272943878E0,9.697553258E0
1.460209583E0,5.947132874E-1,9.292376404E0,3.138822784E0,9.826197209E0
1.470277583E0,6.685098267E-1,9.444909210E0,3.124752045E0,9.970821968E0
1.480346583E0,6.893165588E-1,9.492360535E0,3.215762787E0,1.004595422E1
1.490414583E0,6.165678406E-1,9.393116913E0,3.437302094E0,1.002126973E1
1.500483583E0,5.153782654E-1,9.286688232E0,3.770060120E0,1.003601247E1
1.510551583E0,3.674858093E-1,9.156908112E0,4.138294373E0,1.005532159E1
1.520620583E0,2.204914856E-1,9.006620636E0,4.421056366E0,1.003561514E1
1.530688583E0,6.840774536E-2,8.855285339E0,4.568948822E0,9.964740408E0
1.540757583E0,-1.603166199E-1,8.718020782E0,4.610562286E0,9.863410788E0
1.550825583E0,-3.320095825E-1,8.687933350E0,4.631219330E0,9.850817668E0
1.560894583E0,-3.429368591E-1,8.716823273E0,4.684209137E0,9.901637688E0
1.570962583E0,-3.330574036E-1,8.701555023E0,4.744533691E0,9.916581417E0
1.581031583E0,-4.144880676E-1,8.714727631E0,4.857548676E0,9.985692623E0
1.591099583E0,-5.366340637E-1,8.813821564E0,4.901407471E0,1.009926838E1
1.601168583E0,-7.125183105E-1,8.867859192E0,4.652026062E0,1.003932047E1
1.611236583E0,-7.864645386E-1,8.836424561E0,4.277953949E0,9.848949968E0
1.621305583E0,-7.231462097E-1,8.750203857E0,4.013753357E0,9.653974518E0
1.631373583E0,-5.622308350E-1,8.645721130E0,3.991000671E0,9.539008530E0
1.641442583E0,-2.884501648E-1,8.665929108E0,4.216880951E0,9.641764141E0
1.651511583E0,4.640350342E-2,8.761131134E0,4.585713959E0,9.888798943E0
1.661579583E0,3.394940186E-1,8.857979736E0,4.993915100E0,1.017439184E1
1.671647583E0,4.415817261E-1,8.915909271E0,5.423372040E0,1.044516141E1
1.681716583E0,4.718188477E-1,8.947942657E0,5.903872833E0,1.073051747E1
1.691784583E0,3.854484558E-1,8.938063202E0,6.359974365E0,1.097664877E1
1.701853583E0,2.224374390E-1,8.843759308E0,6.673871613E0,1.108161177E1
1.711922583E0,4.775070190E-2,8.717571716E0,6.818321228E0,1.106742252E1
1.721990583E0,-1.311273193E-1,8.562344513E0,6.827751617E0,1.095212902E1
1.732059583E0,-2.679428101E-1,8.452622681E0,6.720574493E0,1.080207133E1
1.742127583E0,-2.903961182E-1,8.376431122E0,6.559509430E0,1.064312418E1
1.752196583E0,-2.113604736E-1,8.331823883E0,6.354435883E0,1.048059244E1
1.762264583E0,-1.627116394E-1,8.286617889E0,6.057453461E0,1.026582941E1
1.772333583E0,-1.727407837E-1,8.263416138E0,5.759123840E0,1.007379735E1
1.782401583E0,-1.658551025E-1,8.282576294E0,5.547613678E0,9.970185329E0
1.792469583E0,-9.879455566E-2,8.320896606E0,5.411995697E0,9.926569303E0
1.802538583E0,-5.942642212E-2,8.373886414E0,5.302573242E0,9.911750005E0
1.812606583E0,4.490661621E-2,8.440048828E0,5.234614563E0,9.931647922E0
1.822675583E0,2.716850281E-1,8.518186340E0,5.234913940E0,1.000188159E1
1.832744583E0,6.427633667E-1,8.641380157E0,5.265001373E0,1.013937055E1
1.842812583E0,9.888436890E-1,8.775201874E0,5.255870361E0,1.027648544E1
1.852881583E0,1.249900818E0,8.830586700E0,5.083578644E0,1.026568485E1
1.862949583E0,1.447789307E0,8.805888062E0,4.808151398E0,1.013696593E1
1.873018583E0,1.544787598E0,8.720565491E0,4.472249908E0,9.921474207E0
1.883086083E0,1.593286743E0,8.585246887E0,4.142785034E0,9.664765626E0
1.893155083E0,1.542093201E0,8.372988281E0,3.840413818E0,9.339901632E0
1.903223083E0,1.312770081E0,8.143365784E0,3.542383575E0,8.976984626E0
1.913292083E0,1.007255402E0,7.945477295E0,3.242856445E0,8.640676525E0
1.923360083E0,6.896159363E-1,7.766000519E0,3.047362976E0,8.370947097E0
1.933429083E0,2.865042114E-1,7.567662964E0,2.966830444E0,8.133491887E0
1.943497083E0,-1.682501221E-1,7.431146851E0,3.039878540E0,8.030635912E0
1.953566083E0,-5.201683044E-1,7.378905487E0,3.255280609E0,8.081811251E0
1.963634083E0,-7.126679993E-1,7.374564514E0,3.501219177E0,8.194548992E0
1.973703083E0,-8.577163696E-1,7.397466888E0,3.653901672E0,8.295130570E0
1.983771083E0,-9.804611206E-1,7.479945374E0,3.741319885E0,8.420710260E0
1.993840083E0,-9.449848938E-1,7.686515808E0,3.901187439E0,8.671492671E0
2.003908083E0,-8.077203369E-1,7.910300446E0,4.094734955E0,8.943831373E0
2.013977083E0,-6.376739502E-1,8.145910492E0,4.246669006E0,9.208511468E0
2.024045083E0,-4.370910645E-1,8.413703613E0,4.265529785E0,9.443315172E0
2.034114083E0,-3.080593872E-1,8.676407318E0,4.122726746E0,9.611025978E0
2.044182083E0,-2.038760376E-1,8.940607910E0,3.919898529E0,9.764304364E0
2.054251083E0,-9.565109253E-2,9.188941498E0,3.757935333E0,9.928135422E0
2.064319083E0,-5.493576050E-2,9.333989868E0,3.729943542E0,1.005180897E1
2.074388083E0,-9.834548950E-2,9.403595123E0,3.859573975E0,1.016531280E1
2.084456083E0,-2.095642090E-1,9.402098236E0,4.043990479E0,1.023705169E1
2.094525083E0,-3.909869385E-1,9.373058624E0,4.211342468E0,1.028311743E1
2.104593083E0,-5.742059326E-1,9.363628235E0,4.359234924E0,1.034457226E1
2.114662083E0,-7.583230591E-1,9.366622009E0,4.468058624E0,1.040539329E1
2.124730083E0,-1.047671356E0,9.355245667E0,4.447102203E0,1.041128977E1
2.134799083E0,-1.316212921E0,9.299711151E0,4.435875549E0,1.038720539E1
2.144867083E0,-1.439107361E0,9.318871307E0,4.527335358E0,1.045988326E1
2.154936083E0,-1.414708099E0,9.441765747E0,4.631369019E0,1.061121663E1
2.165004083E0,-1.400637360E0,9.587263184E0,4.571194153E0,1.071322623E1
2.175073083E0,-1.418150940E0,9.755513306E0,4.351900177E0,1.077590957E1
2.185141083E0,-1.351539459E0,9.874515839E0,4.200864258E0,1.081572848E1
2.195210083E0,-1.248852997E0,9.900711365E0,4.329147491E0,1.087774045E1
2.205278083E0,-1.181792450E0,9.815688171E0,4.771327972E0,1.097770187E1
2.215347083E0,-1.196162567E0,9.599837036E0,5.398972778E0,1.107865439E1
2.225415083E0,-1.228645020E0,9.244176636E0,6.003715210E0,1.109094074E1
2.235484083E0,-1.231489105E0,8.766669617E0,6.422544250E0,1.093709908E1
2.245552083E0,-1.294957123E0,8.263116760E0,6.671775970E0,1.069900029E1
2.255621083E0,-1.653162231E0,7.758366394E0,6.775809631E0,1.043248727E1
2.265689083E0,-2.086361389E0,7.348967743E0,6.851103058E0,1.026147377E1
2.275758083E0,-2.266885986E0,7.116351471E0,6.915020142E0,1.017834632E1
2.285826083E0,-2.164349213E0,7.021448822E0,6.896758118E0,1.007722301E1
2.295895083E0,-1.929936676E0,7.009922791E0,6.716682587E0,9.898358352E0
2.305963083E0,-1.826202393E0,7.050338745E0,6.255940704E0,9.600993995E0
2.316032083E0,-1.797611847E0,7.169041901E0,5.573509827E0,9.256920758E0
2.326100083E0,-1.653461609E0,7.338788910E0,4.743635559E0,8.893471554E0
2.336169083E0,-1.530716858E0,7.519762573E0,3.901037750E0,8.608601442E0
2.346237083E0,-1.439406738E0,7.794291687E0,3.354823608E0,8.606841238E0
2.356306083E0,-1.352437592E0,8.077053680E0,3.105891266E0,8.758678219E0
2.366374083E0,-1.425335999E0,8.221203918E0,3.116070099E0,8.906720465E0
2.376443083E0,-1.526525574E0,8.272247772E0,3.393293610E0,9.070546017E0
2.386511083E0,-1.416953430E0,8.328530731E0,3.867507477E0,9.291382849E0
2.396580083E0,-1.328487396E0,8.415200500E0,4.535268860E0,9.651380308E0
2.406648083E0,-1.129551086E0,8.549770660E0,5.321733398E0,1.013386947E1
2.416717083E0,-7.741900635E-1,8.730295258E0,6.177204437E0,1.072265267E1
2.426785083E0,-4.977149963E-1,8.803642731E0,6.958878937E0,1.123289106E1
2.436854083E0,-4.176315308E-1,8.797206116E0,7.627987518E0,1.165124221E1
2.446922083E0,-4.505630493E-1,8.657696228E0,7.984396362E0,1.178597880E1
2.456991083E0,-5.896238708E-1,8.404871979E0,7.833510132E0,1.150449522E1
2.467059083E0,-8.249345398E-1,8.174051971E0,7.204069061E0,1.092676776E1
2.477128083E0,-1.033450928E0,8.045469360E0,6.279890900E0,1.025839304E1
2.487196083E0,-1.180295563E0,7.892337799E0,5.352718964E0,9.609042296E0
2.497265083E0,-1.322799225E0,7.695197754E0,4.626728668E0,9.075928847E0
2.507333083E0,-1.472787323E0,7.528743896E0,4.134402466E0,8.714606756E0
2.517402083E0,-1.681603088E0,7.375462646E0,3.867806854E0,8.496185500E0
2.527470083E0,-1.900897064E0,7.231462097E0,3.797602844E0,8.386253101E0
2.537539083E0,-2.068698120E0,7.177274780E0,3.896846466E0,8.424855937E0
2.547607083E0,-2.107916565E0,7.204218750E0,4.149670715E0,8.576936929E0
2.557676083E0,-1.996248779E0,7.305258636E0,4.471800842E0,8.794817548E0
2.567744083E0,-1.811083832E0,7.510631561E0,4.721032562E0,9.054157031E0
2.577813083E0,-1.558558960E0,7.798333282E0,4.801116028E0,9.289446869E0
2.587881083E0,-1.289718018E0,8.117020569E0,4.746030579E0,9.490742949E0
2.597950083E0,-9.780661011E-1,8.473878479E0,4.611011353E0,9.696631140E0
2.608018083E0,-6.671626282E-1,8.788823547E0,4.433031464E0,9.866118450E0
2.618087083E0,-4.474195862E-1,9.035510559E0,4.321663055E0,1.002583697E1
2.628155083E0,-2.589614868E-1,9.324559479E0,4.350103912E0,1.029261262E1
2.638224083E0,-5.433700562E-2,9.541159058E0,4.392914886E0,1.050401684E1
2.648292083E0,1.601669312E-2,9.635762329E0,4.395459595E0,1.059095072E1
2.658361083E0,-6.511459351E-2,9.656269684E0,4.442312164E0,1.062929544E1
2.668429083E0,-1.663041687E-1,9.607321472E0,4.643044739E0,1.067174528E1
2.678498083E0,-2.326162720E-1,9.537865906E0,5.052742767E0,1.079607363E1
2.688566083E0,-2.832110596E-1,9.437275085E0,5.571114807E0,1.096264976E1
2.698635083E0,-3.962260437E-1,9.259594574E0,5.918392639E0,1.099656574E1
2.708703083E0,-6.032455444E-1,9.047036591E0,5.924080811E0,1.083085914E1
2.718772083E0,-7.360194397E-1,8.972042542E0,5.734574890E0,1.067354773E1
2.728840083E0,-7.209008789E-1,9.044342194E0,5.454058228E0,1.058615015E1
2.738909083E0,-7.767347717E-1,9.117539978E0,4.955894165E0,1.040642778E1
2.748977083E0,-9.346563721E-1,9.121431885E0,4.420607300E0,1.017918813E1
2.759046083E0,-9.692344666E-1,9.124275970E0,4.115242310E0,1.005619444E1
2.769114083E0,-8.806187439E-1,9.141340485E0,4.187991028E0,1.009350603E1
2.779183083E0,-8.138575745E-1,9.103319550E0,4.527634735E0,1.019962094E1
2.789251083E0,-8.491841125E-1,9.034612427E0,4.914729767E0,1.031987907E1
2.799320083E0,-8.565188599E-1,8.978628845E0,5.259462891E0,1.044085008E1
2.809388083E0,-7.705975342E-1,8.946445770E0,5.556295624E0,1.055959912E1
2.819457083E0,-6.530918884E-1,8.942254486E0,5.771548004E0,1.066307698E1
2.829525083E0,-4.543052673E-1,8.959618378E0,5.846691742E0,1.070817254E1
2.839594083E0,-2.320175171E-1,8.986861725E0,5.793103180E0,1.069474452E1
2.849662083E0,-4.715194702E-2,8.992549896E0,5.652545471E0,1.062164993E1
2.859731083E0,9.834548950E-2,8.949140167E0,5.488636322E0,1.049866231E1
2.869799083E0,2.424957275E-1,8.867260437E0,5.338199158E0,1.035294558E1
2.879868083E0,3.387455750E-1,8.751101990E0,5.102289734E0,1.013557572E1
2.889936458E0,3.134481812E-1,8.635392609E0,4.766837311E0,9.868687512E0
2.900005458E0,1.483415222E-1,8.531358948E0,4.343517609E0,9.574561918E0
2.910073458E0,-1.176553345E-1,8.382568359E0,3.983366547E0,9.281621848E0
2.920142458E0,-3.466790771E-1,8.227191467E0,3.879183197E0,9.102468242E0
2.930210458E0,-5.562432861E-1,8.170908508E0,4.053720245E0,9.138150813E0
2.940279458E0,-6.788383484E-1,8.166866913E0,4.425547028E0,9.313646073E0
2.950347458E0,-7.171586609E-1,8.194409637E0,4.819527740E0,9.533651635E0
2.960416458E0,-6.750961304E-1,8.293653259E0,5.165158997E0,9.793840239E0
2.970484458E0,-4.996609497E-1,8.480764160E0,5.440735931E0,1.008834126E1
2.980553458E0,-1.709445190E-1,8.661438446E0,5.680387573E0,1.035936972E1
2.990621458E0,1.508862305E-1,8.800648956E0,5.853427734E0,1.057056313E1
3.000690458E0,4.165837097E-1,8.855734406E0,5.889802094E0,1.064365269E1
3.010758458E0,6.018983459E-1,8.819809113E0,5.704487457E0,1.052104993E1
3.020827458E0,6.036946106E-1,8.667575684E0,5.360053711E0,1.020889275E1
3.030895458E0,4.682263184E-1,8.474028168E0,4.931195526E0,9.815552893E0
3.040964458E0,2.559677124E-1,8.240214386E0,4.470154266E0,9.378109178E0
3.051032458E0,2.514770508E-2,8.017028503E0,4.156406708E0,9.030453762E0
3.061101458E0,-1.683998108E-1,7.767946472E0,3.974684601E0,8.727397583E0
3.071169458E0,-3.171903992E-1,7.551496582E0,3.855233002E0,8.484605582E0
3.081238458E0,-4.893324280E-1,7.386389923E0,3.707340546E0,8.279044404E0
3.091306458E0,-6.971003723E-1,7.249275055E0,3.480262756E0,8.071565313E0
3.101375458E0,-8.643026733E-1,7.213948517E0,3.238365784E0,7.954563801E0
3.111443458E0,-9.524693298E-1,7.299420776E0,3.035088501E0,7.962443325E0
3.121512458E0,-9.876461792E-1,7.397317200E0,2.857557678E0,7.991331717E0
3.131580458E0,-9.973759460E-1,7.532186737E0,2.747835846E0,8.079554298E0
3.141649458E0,-8.913963318E-1,7.776927795E0,2.754122772E0,8.298215808E0
3.151717458E0,-6.614744568E-1,8.051905975E0,2.822081451E0,8.557738136E0
3.161786458E0,-4.334985352E-1,8.359516296E0,2.915038147E0,8.863796088E0
3.171854458E0,-2.891986084E-1,8.669970703E0,2.960244141E0,9.165973664E0
3.181923458E0,-1.746867371E-1,8.919202423E0,2.994822235E0,9.410188497E0
3.191991458E0,-1.489402771E-1,9.057215424E0,3.040327606E0,9.555047168E0
3.202060458E0,-2.315684509E-1,9.125024414E0,3.153791656E0,9.657437358E0
3.212128458E0,-3.944297791E-1,9.149423676E0,3.306474152E0,9.736544549E0
3.222197458E0,-5.641767883E-1,9.136999512E0,3.558999023E0,9.821890326E0
3.232265458E0,-6.616241455E-1,9.120533752E0,3.865860901E0,9.928079519E0
3.242334458E0,-7.701484680E-1,9.104217682E0,4.112098846E0,1.001944436E1
3.252402458E0,-8.527766418E-1,9.130712585E0,4.305496674E0,1.013086580E1
3.262471458E0,-9.354048157E-1,9.157207489E0,4.426145782E0,1.021372594E1
3.272539458E0,-1.015039215E0,9.162895660E0,4.487518158E0,1.025313516E1
3.282608458E0,-1.100960541E0,9.142537994E0,4.545747070E0,1.026946598E1
3.292676458E0,-1.197809143E0,9.158105621E0,4.612807617E0,1.032393527E1
3.302745458E0,-1.366059265E0,9.210945740E0,4.550537109E0,1.036412212E1
3.312813458E0,-1.637744293E0,9.121282196E0,4.369264069E0,1.024550944E1
3.322882458E0,-1.893712006E0,9.072483673E0,4.269272003E0,1.020405746E1
3.332950458E0,-1.999541931E0,9.154513092E0,4.248165894E0,1.028835222E1
3.343019458E0,-2.046693878E0,9.239835663E0,4.262536011E0,1.037943795E1
3.353087458E0,-2.096091156E0,9.336684265E0,4.281696167E0,1.048332930E1
3.363156458E0,-1.954335938E0,9.544601898E0,4.438120880E0,1.070587555E1
3.373224458E0,-1.657054138E0,9.757908325E0,4.796176300E0,1.099845036E1
3.383293458E0,-1.286873932E0,9.934690704E0,5.318440247E0,1.134195444E1
3.393361458E0,-9.183403015E-1,1.004800507E1,5.889802094E0,1.168312986E1
3.403430458E0,-6.878196716E-1,1.003887405E1,6.454877014E0,1.195481181E1
3.413498458E0,-5.343887329E-1,9.829160156E0,7.015311584E0,1.208770273E1
3.423567458E0,-4.706213379E-1,9.410929871E0,7.458839264E0,1.201754420E1
3.433635458E0,-6.201603699E-1,8.908574524E0,7.564369812E0,1.170328969E1
3.443704458E0,-9.587562561E-1,8.456065521E0,7.156168671E0,1.111912801E1
3.453772458E0,-1.241817627E0,8.102650452E0,6.289021912E0,1.033183681E1
3.463841458E0,-1.436412964E0,7.893834686E0,5.213807831E0,9.568683313E0
3.473909458E0,-1.692979431E0,7.753875732E0,4.231849823E0,8.994293811E0
3.483978458E0,-1.886077881E0,7.647297363E0,3.421734467E0,8.587590669E0
3.494046458E0,-1.952090607E0,7.656278687E0,2.831960907E0,8.393405962E0
3.504115458E0,-1.883682861E0,7.854466553E0,2.563119965E0,8.474107027E0
3.514183458E0,-1.683998108E0,8.110434265E0,2.644850006E0,8.695414030E0
3.524252458E0,-1.441502380E0,8.303981781E0,2.966980133E0,8.935156050E0
3.534320458E0,-1.304088135E0,8.423732758E0,3.364553375E0,9.164067811E0
3.544389458E0,-1.197958832E0,8.518186340E0,3.848946075E0,9.423852173E0
3.554457458E0,-9.770182800E-1,8.588839417E0,4.394561462E0,9.697159259E0
3.564526458E0,-7.695497131E-1,8.647367706E0,4.963528290E0,1.000028940E1
3.574594458E0,-6.340814209E-1,8.685987396E0,5.505850525E0,1.030353465E1
3.584663458E0,-4.724176025E-1,8.694968719E0,5.934708710E0,1.053785685E1
3.594731458E0,-3.243754578E-1,8.648864594E0,6.174510040E0,1.063168154E1
3.604800458E0,-3.549119568E-1,8.517737274E0,6.175857239E0,1.052706148E1
3.614868458E0,-4.525090027E-1,8.418493652E0,5.937253418E0,1.031148767E1
3.624937458E0,-5.469625854E-1,8.339907074E0,5.503156128E0,1.000689490E1
3.635005458E0,-5.170248413E-1,8.242908783E0,5.052742767E0,9.682100462E0
3.645074458E0,-4.302053833E-1,8.095914459E0,4.671485596E0,9.356905753E0
3.655142458E0,-4.546046448E-1,7.924071808E0,4.350103912E0,9.051021127E0
3.665211458E0,-5.230123901E-1,7.782166901E0,4.166435852E0,8.842785270E0
3.675279458E0,-7.556286621E-1,7.536976776E0,4.017495575E0,8.574220915E0
3.685348458E0,-1.101409607E0,7.267088013E0,3.862118683E0,8.302989343E0
3.695416458E0,-1.371148682E0,7.147337036E0,3.807482300E0,8.213488715E0
3.705485458E0,-1.476080475E0,7.107070770E0,3.762276306E0,8.175817482E0
3.715553458E0,-1.553469543E0,7.186106415E0,3.773802338E0,8.264077511E0
3.725622458E0,-1.747466125E0,7.275470581E0,3.791315918E0,8.388097903E0
3.735690458E0,-1.955683136E0,7.394323425E0,3.783232727E0,8.533086506E0
3.745759458E0,-2.042951660E0,7.609725494E0,3.711980896E0,8.709786206E0
3.755827458E0,-1.975591736E0,7.836803284E0,3.597019958E0,8.846298717E0
3.765896458E0,-1.824855194E0,8.069269867E0,3.469934235E0,8.971268375E0
3.775964458E0,-1.611099701E0,8.385262756E0,3.369493103E0,9.179420325E0
3.786033458E0,-1.369801483E0,8.657546539E0,3.428769836E0,9.412009922E0
3.796101458E0,-1.215921478E0,8.851094055E0,3.574566650E0,9.622778068E0
3.806170458E0,-1.175056458E0,8.957073669E0,3.798800354E0,9.800041353E0
3.816238458E0,-1.143322449E0,9.001531219E0,4.128863983E0,9.969065568E0
3.826307458E0,-1.250798950E0,9.026080170E0,4.543202362E0,1.018210729E1
3.836375458E0,-1.341360626E0,9.125174103E0,5.020110626E0,1.050093146E1
3.846444458E0,-1.310375061E0,9.316326599E0,5.536536713E0,1.091623849E1
3.856512458E0,-1.168919220E0,9.512568512E0,5.853278046E0,1.123014674E1
3.866581458E0,-1.048270111E0,9.643396454E0,5.702092438E0,1.125201420E1
3.876649458E0,-1.059347076E0,9.676028595E0,5.305267639E0,1.108573905E1
3.886718958E0,-1.039588165E0,9.726473694E0,4.925956421E0,1.095217242E1
3.896786958E0,-9.219328308E-1,9.828711090E0,4.744234314E0,1.095268374E1
3.906855958E0,-7.557783508E-1,9.966574402E0,4.703069916E0,1.104638732E1
3.916923958E0,-5.275030518E-1,1.005683670E1,4.741240540E0,1.113092924E1
3.926992958E0,-3.296145630E-1,1.003782623E1,4.894372101E0,1.117235336E1
3.937060958E0,-1.425036621E-1,1.003767654E1,5.222340088E0,1.131583376E1
3.947129958E0,-1.001417542E-1,9.995763702E0,5.633834381E0,1.147455490E1
3.957197958E0,-2.567161560E-1,9.878258057E0,5.949827271E0,1.153457108E1
3.967266958E0,-4.363426208E-1,9.744436340E0,6.131100311E0,1.152106009E1
3.977334958E0,-4.941224670E-1,9.643845520E0,6.130800934E0,1.143829679E1
3.987403958E0,-5.719606018E-1,9.574240265E0,5.896089020E0,1.125864474E1
3.997471958E0,-6.730004883E-1,9.476942596E0,5.515131226E0,1.098553791E1
4.007540958E0,-6.565347290E-1,9.367819519E0,5.208419037E0,1.073846866E1
4.017608958E0,-5.709127808E-1,9.318571930E0,5.080584869E0,1.062892595E1
4.027677958E0,-5.375321960E-1,9.256600800E0,5.106481018E0,1.058535534E1
4.037745958E0,-6.050418091E-1,9.067693634E0,5.133574677E0,1.043756353E1
4.047814958E0,-7.857160950E-1,8.857979736E0,5.040767670E0,1.022205916E1
4.057882958E0,-8.704399109E-1,8.746012573E0,4.972659302E0,1.009840295E1
4.067951958E0,-6.707551575E-1,8.693621521E0,5.054838409E0,1.007870820E1
4.078019958E0,-3.496728516E-1,8.645421753E0,5.148094482E0,1.006819076E1
4.088088958E0,-1.764830017E-1,8.628207550E0,5.176685028E0,1.006355701E1
4.098156958E0,-4.790039063E-2,8.678053894E0,5.229525146E0,1.013207023E1
4.108225958E0,1.538800049E-1,8.735534363E0,5.430706787E0,1.028716753E1
4.118293958E0,3.174897766E-1,8.695717163E0,5.676944733E0,1.038961011E1
4.128362958E0,3.540138245E-1,8.599018250E0,5.829926605E0,1.039502212E1
4.138430958E0,2.770738220E-1,8.473279724E0,5.797294464E0,1.027043632E1
4.148499958E0,1.877096558E-1,8.314160614E0,5.574557648E0,1.001180276E1
4.158567958E0,1.200503540E-1,8.150101776E0,5.266947327E0,9.704602269E0
4.168636958E0,9.415420532E-2,8.009095001E0,4.984634399E0,9.434036668E0
4.178704958E0,4.879852295E-2,7.858208771E0,4.663252716E0,9.137819886E0
4.188773958E0,-1.469943237E-1,7.671397247E0,4.233197021E0,8.763098772E0
4.198841958E0,-3.614982605E-1,7.498506775E0,3.775149536E0,8.402977976E0
4.208910958E0,-4.314028931E-1,7.387737122E0,3.430865479E0,8.156936077E0
4.218978958E0,-4.355941772E-1,7.349416809E0,3.153342590E0,8.009197164E0
4.229047958E0,-3.978726196E-1,7.364086304E0,2.891537018E0,7.921430176E0
4.239115958E0,-4.198768616E-1,7.361541595E0,2.574945374E0,7.810181491E0
4.249184958E0,-6.138734436E-1,7.304959259E0,2.284249878E0,7.678350597E0
4.259252958E0,-8.689430237E-1,7.314988403E0,2.171384583E0,7.679780487E0
4.269321958E0,-1.026116180E0,7.355853424E0,2.210603027E0,7.749081220E0
4.279389958E0,-1.153351593E0,7.422913971E0,2.332000580E0,7.865627656E0
4.289458958E0,-1.212179260E0,7.598498840E0,2.480042725E0,8.084378461E0
4.299526958E0,-1.167422333E0,7.812254333E0,2.691852264E0,8.345074073E0
4.309595958E0,-9.608518982E-1,8.012238464E0,2.976410522E0,8.601059306E0
4.319663958E0,-8.970845032E-1,8.210576019E0,3.300636292E0,8.894521859E0
4.329732958E0,-9.979747009E-1,8.420589294E0,3.606899414E0,9.214770803E0
4.339800958E0,-1.193468170E0,8.559201050E0,3.863615570E0,9.466351681E0
4.349869958E0,-1.441951447E0,8.624465332E0,4.060755615E0,9.641076828E0
4.359937958E0,-1.676064606E0,8.719817047E0,4.269272003E0,9.852465952E0
4.370006958E0,-1.741478577E0,8.849896545E0,4.587809601E0,1.011935835E1
4.380074958E0,-1.674268341E0,8.944200439E0,4.957690430E0,1.036246063E1
4.390143958E0,-1.628463593E0,9.013506317E0,5.210664368E0,1.053784669E1
4.400211958E0,-1.634002075E0,9.102122040E0,5.333558807E0,1.067545961E1
4.410280958E0,-1.604363708E0,9.222621460E0,5.298980713E0,1.075685484E1
4.420348958E0,-1.468895416E0,9.314230957E0,5.139861603E0,1.073921456E1
4.430417958E0,-1.229992218E0,9.410331116E0,4.935087433E0,1.069683601E1
4.440485958E0,-9.951306152E-1,9.515562286E0,4.746629333E0,1.068020134E1
4.450554958E0,-8.994795227E-1,9.614955597E0,4.475842438E0,1.064375874E1
4.460622958E0,-9.581575012E-1,9.636959839E0,4.072581024E0,1.050594960E1
4.470691958E0,-9.951306152E-1,9.667646027E0,3.622766418E0,1.037198637E1
4.480759958E0,-9.220825195E-1,9.691596222E0,3.184178467E0,1.024286415E1
4.490828958E0,-7.743397522E-1,9.738448792E0,2.818488922E0,1.016763821E1
4.500896958E0,-6.559359741E-1,9.853709106E0,2.647544403E0,1.022425188E1
4.510965958E0,-5.963598633E-1,9.925559692E0,2.671344910E0,1.029604118E1
4.521033958E0,-6.195616150E-1,9.928553467E0,2.811752930E0,1.033760055E1
4.531102958E0,-6.827302551E-1,9.833501129E0,3.027304688E0,1.031156820E1
4.541170958E0,-7.000941467E-1,9.659712524E0,3.351829834E0,1.024865558E1
4.551239958E0,-7.238946533E-1,9.395960999E0,3.798800354E0,1.016065897E1
4.561307958E0,-7.774832153E-1,9.114097137E0,4.290078735E0,1.010326790E1
4.571376958E0,-8.053253174E-1,8.928034058E0,4.722529449E0,1.013215798E1
4.581444958E0,-9.074130249E-1,8.795409851E0,4.974006500E0,1.014511575E1
4.591513958E0,-1.100511475E0,8.682694244E0,4.970713348E0,1.006520224E1
4.601581958E0,-1.352287903E0,8.702153778E0,4.659360809E0,9.963222676E0
4.611650958E0,-1.516795807E0,8.763675842E0,4.220323792E0,9.844481535E0
4.621718958E0,-1.447190552E0,8.747808838E0,3.849544830E0,9.666308259E0
4.631787958E0,-1.239272919E0,8.738677826E0,3.616030426E0,9.538132079E0
4.641855958E0,-1.134341125E0,8.841214600E0,3.527714081E0,9.586374290E0
4.651924958E0,-9.735754395E-1,9.094936981E0,3.614234161E0,9.835060569E0
4.661992958E0,-6.396199036E-1,9.302405548E0,3.804937592E0,1.007081986E1
4.672061958E0,-1.483415222E-1,9.425599365E0,4.171076202E0,1.030833669E1
4.682129958E0,3.400927734E-1,9.528884583E0,4.668641510E0,1.061656809E1
4.692198958E0,5.780978394E-1,9.567055206E0,5.139412537E0,1.087549096E1
4.702266958E0,5.474116516E-1,9.603878632E0,5.508544922E0,1.108504449E1
4.712335958E0,4.544549561E-1,9.574689331E0,5.715714111E0,1.116022369E1
4.722403958E0,3.665876770E-1,9.473350067E0,5.779930573E0,1.110343845E1
4.732472958E0,3.222798157E-1,9.379495239E0,5.636828156E0,1.094772245E1
4.742540958E0,3.239263916E-1,9.237290955E0,5.228327637E0,1.061922231E1
4.752609958E0,2.148033142E-1,9.060508575E0,4.538412323E0,1.013588390E1
4.762677958E0,2.215393066E-2,8.906329193E0,3.817511444E0,9.690024980E0
4.772746958E0,-8.083190918E-2,8.702453156E0,3.289559326E0,9.303785535E0
4.782814958E0,-1.534309387E-1,8.449479218E0,2.930456085E0,8.944540959E0
4.792883958E0,-2.668949890E-1,8.252788239E0,2.633623352E0,8.666932480E0
4.802951958E0,-4.159849548E-1,8.124205627E0,2.351160736E0,8.467804755E0
4.813020958E0,-5.261558533E-1,8.047265625E0,2.136357422E0,8.342622313E0
4.823088958E0,-5.312452698E-1,8.032446442E0,2.099084930E0,8.319169124E0
4.833157958E0,-4.517605591E-1,8.122109985E0,2.307301941E0,8.455554415E0
4.843225958E0,-3.041674805E-1,8.272696838E0,2.642155609E0,8.689707538E0
4.853294958E0,-1.076261902E-1,8.406069489E0,2.987786865E0,8.921908876E0
4.863362958E0,-1.601669312E-2,8.520581360E0,3.181933136E0,9.095342859E0
4.873431958E0,-2.185455322E-2,8.653504944E0,3.245401154E0,9.242091434E0
4.883499208E0,-4.370910645E-2,8.772657166E0,3.321742401E0,9.380586166E0
4.893568208E0,-2.649490356E-2,8.861422577E0,3.513044586E0,9.532418074E0
4.903636208E0,-1.945953369E-2,8.931626587E0,3.807781677E0,9.709455879E0
4.913705208E0,-2.978805542E-2,8.966354370E0,4.054618378E0,9.840545117E0
4.923773208E0,-1.224453735E-1,8.950187988E0,4.162394257E0,9.871493496E0
4.933842208E0,-2.080673218E-1,8.915160828E0,4.244872742E0,9.876352018E0
4.943910208E0,-2.743794250E-1,8.879085846E0,4.256997528E0,9.850658733E0
4.953979208E0,-3.228785706E-1,8.854387207E0,4.223616943E0,9.815465525E0
4.964047208E0,-3.469784546E-1,8.810528412E0,4.094435577E0,9.721636058E0
4.974116208E0,-5.222639465E-1,8.777447205E0,3.938759308E0,9.634841148E0
4.984184208E0,-6.508465576E-1,8.813821564E0,3.925586700E0,9.670433431E0
4.994253208E0,-5.890251160E-1,8.874295807E0,4.163741455E0,9.820225026E0
5.004321208E0,-4.974156189E-1,8.900641022E0,4.533322906E0,1.000099242E1
5.014390208E0,-3.915856934E-1,9.056017914E0,4.916526031E0,1.031198468E1
5.024458208E0,-2.062710571E-1,9.281598816E0,5.053491211E0,1.057016546E1
5.034527208E0,-1.062789917E-1,9.510772247E0,4.640649719E0,1.058308621E1
5.044595208E0,-2.160008240E-1,9.558073883E0,3.945195923E0,1.034253371E1
5.054664208E0,-2.885998535E-1,9.451046448E0,3.384911041E0,1.004306684E1
5.064732208E0,-1.800755310E-1,9.458381195E0,3.089724884E0,9.951874290E0
5.074801208E0,-1.290316772E-1,9.599837036E0,3.068319397E0,1.007909243E1
5.084869208E0,-1.432521057E-1,9.833950195E0,3.180885315E0,1.033659175E1
5.094938208E0,-3.817062378E-2,1.007390121E1,3.420087891E0,1.063870029E1
5.105006208E0,2.477348328E-1,1.023751099E1,3.924089813E0,1.096660771E1
5.115075208E0,6.489006042E-1,1.036833893E1,4.724176025E0,1.141233382E1
5.125143208E0,9.638456726E-1,1.044527893E1,5.612578583E0,1.189680162E1
5.135212208E0,1.066681824E0,1.037507492E1,6.440506897E0,1.225806342E1
5.145280208E0,1.022224274E0,1.015832565E1,7.007228394E0,1.238296299E1
5.155349208E0,8.894503784E-1,9.831405487E0,7.120093689E0,1.217141693E1
5.165417208E0,6.795867920E-1,9.452094269E0,6.722221069E0,1.161861353E1
5.175486208E0,4.769082642E-1,9.144184570E0,5.956114197E0,1.092331677E1
5.185554208E0,3.188369751E-1,8.878038025E0,5.088218994E0,1.023773357E1
5.195623208E0,2.136058044E-1,8.575816498E0,4.324207764E0,9.606717901E0
5.205691208E0,1.791773987E-1,8.400531006E0,3.846700745E0,9.241110991E0
5.215760208E0,2.535726929E-1,8.346792755E0,3.613934784E0,9.099108365E0
5.225828208E0,4.159849548E-1,8.323890381E0,3.539838867E0,9.054869064E0
5.235897208E0,5.629792786E-1,8.336913300E0,3.555256805E0,9.080799523E0
5.245965208E0,7.601193237E-1,8.416697388E0,3.680546265E0,9.217645964E0
5.256034208E0,1.043180695E0,8.516689453E0,3.896547089E0,9.423656637E0
5.266102208E0,1.255588989E0,8.577014008E0,4.062701569E0,9.573255300E0
5.276171208E0,1.338516541E0,8.618926849E0,4.116888885E0,9.645014290E0
5.286239208E0,1.278042297E0,8.647068329E0,4.037104797E0,9.628260380E0
5.296308208E0,1.205443268E0,8.658893738E0,3.909719696E0,9.576817965E0
5.306376208E0,1.137035522E0,8.614286499E0,3.813469849E0,9.489011221E0
5.316445208E0,1.050665131E0,8.567134552E0,3.744762726E0,9.408663004E0
5.326513208E0,9.386979675E-1,8.535999298E0,3.645070038E0,9.329039258E0
5.336582208E0,8.081694031E-1,8.501421204E0,3.498375092E0,9.228538809E0
5.346650208E0,6.753955078E-1,8.443341980E0,3.294798431E0,9.088557619E0
5.356719208E0,5.016069031E-1,8.386759644E0,3.052602081E0,8.939112163E0
5.366787208E0,3.327580261E-1,8.384664001E0,2.904709625E0,8.879789205E0
5.376856208E0,1.990859985E-1,8.351283417E0,2.862647095E0,8.830533298E0
5.386924208E0,-1.945953369E-3,8.274193726E0,2.874023438E0,8.759126458E0
5.396993208E0,-1.893562317E-1,8.271050262E0,2.905458069E0,8.768569713E0
5.407061208E0,-3.019221497E-1,8.275989990E0,2.965183868E0,8.796333479E0
5.417130208E0,-3.174897766E-1,8.328830109E0,3.110232239E0,8.896277610E0
5.427198208E0,-1.999841309E-1,8.473429413E0,3.332819366E0,9.107507046E0
5.437267208E0,-7.544311523E-2,8.594078522E0,3.512894897E0,9.284627503E0
5.447335208E0,9.131011963E-3,8.694519653E0,3.609893188E0,9.414142776E0
5.457404208E0,4.670288086E-2,8.789422302E0,3.712280273E0,9.541339025E0
5.467472208E0,1.222956848E-1,8.875942383E0,3.908671875E0,9.699228075E0
5.477541208E0,1.902543640E-1,8.925639038E0,4.140390015E0,9.841039500E0
5.487609208E0,9.340576172E-2,8.932824097E0,4.301006012E0,9.914773003E0
5.497678208E0,-1.463955688E-1,8.958121490E0,4.361629944E0,9.964596734E0
5.507746208E0,-3.363505554E-1,8.998238068E0,4.362079010E0,1.000545618E1
5.517815208E0,-3.763174438E-1,9.057814178E0,4.327949982E0,1.004573360E1
5.527883208E0,-3.345542908E-1,9.170380096E0,4.279750214E0,1.012541651E1
5.537952208E0,-2.734812927E-1,9.269773407E0,4.140539703E0,1.015615873E1
5.548020208E0,-3.258723450E-1,9.301956482E0,3.779939575E0,1.004592108E1
5.558089208E0,-5.825885010E-1,9.266330566E0,3.216960297E0,9.826144975E0
5.568157208E0,-8.581654358E-1,9.198970642E0,2.673590240E0,9.617982822E0
5.578226208E0,-9.083111572E-1,9.219927063E0,2.377655640E0,9.564796419E0
5.588294208E0,-7.116201782E-1,9.357790375E0,2.454745331E0,9.700537027E0
5.598363208E0,-3.439846802E-1,9.539961548E0,2.885250092E0,9.972655608E0
5.608431208E0,1.916015625E-2,9.735455017E0,3.444936218E0,1.032700523E1
5.618500208E0,2.650987244E-1,9.844727783E0,3.937561798E0,1.060628754E1
5.628568208E0,3.526666260E-1,9.759105835E0,4.248315582E0,1.064954017E1
5.638637208E0,1.160087585E-1,9.523645477E0,4.391867065E0,1.048817322E1
5.648705208E0,-3.252735901E-1,9.264534302E0,4.493505707E0,1.030189265E1
5.658774208E0,-7.870632935E-1,8.991951141E0,4.686304779E0,1.017035429E1
5.668842208E0,-1.086889801E0,8.701255646E0,4.986131287E0,1.008735270E1
5.678911208E0,-1.258882141E0,8.476423187E0,5.254672852E0,1.005216997E1
5.688979208E0,-1.436113586E0,8.311017151E0,5.354664917E0,9.990388615E0
5.699048208E0,-1.662143555E0,8.156239014E0,5.317242737E0,9.877247915E0
5.709116208E0,-1.885030060E0,8.037984924E0,5.200485535E0,9.757437664E0
5.719185208E0,-2.022144928E0,7.973169708E0,5.057682495E0,9.656120211E0
5.729253208E0,-2.000440063E0,7.968229980E0,4.875661011E0,9.553351232E0
5.739322208E0,-1.985022125E0,7.944130096E0,4.633015594E0,9.408206488E0
5.749390208E0,-2.013762360E0,7.932753754E0,4.332740021E0,9.260478230E0
5.759459208E0,-2.025138702E0,7.980803833E0,3.991898804E0,9.150391939E0
5.769527208E0,-2.034419403E0,8.076903992E0,3.739224243E0,9.130007576E0
5.779596208E0,-1.883084106E0,8.299042053E0,3.696712646E0,9.278242783E0
5.789664208E0,-1.461710358E0,8.610244904E0,3.847598877E0,9.543423473E0
5.799732208E0,-9.063652039E-1,8.938661957E0,4.036655731E0,9.849658113E0
5.809801208E0,-5.234614563E-1,9.182355194E0,4.083508301E0,1.006303626E1
5.819869208E0,-3.318598938E-1,9.355395355E0,3.981719971E0,1.017288785E1
5.829938208E0,-3.061134338E-1,9.508526917E0,3.873045959E0,1.027162473E1
5.840006208E0,-2.505789185E-1,9.629475403E0,3.938160553E0,1.040666589E1
5.850075208E0,-1.627116394E-1,9.673633575E0,4.181404724E0,1.053991495E1
5.860143208E0,-2.098635864E-1,9.619446259E0,4.498146057E0,1.062125732E1
5.870212208E0,-3.378474426E-1,9.488768005E0,4.849166107E0,1.066139161E1
5.880280208E0,-5.312452698E-1,9.313931580E0,5.100792847E0,1.063247999E1
5.890349333E0,-7.864645386E-1,9.099427643E0,5.213358765E0,1.051652126E1
5.900417333E0,-1.021924896E0,8.892857208E0,5.242098999E0,1.037337176E1
5.910486333E0,-1.219214630E0,8.679101715E0,5.141358490E0,1.016104611E1
5.920554333E0,-1.314266968E0,8.546477509E0,4.904401245E0,9.940962078E0
5.930623333E0,-1.266815643E0,8.525521088E0,4.619393921E0,9.778963743E0
5.940691333E0,-1.088237000E0,8.544980621E0,4.275109863E0,9.616523173E0
5.950760333E0,-9.135502625E-1,8.603658600E0,3.912114716E0,9.495375555E0
5.960828333E0,-7.611671448E-1,8.714727631E0,3.637136536E0,9.473891243E0
5.970897333E0,-5.968089294E-1,8.831185455E0,3.391946411E0,9.478993507E0
5.980965333E0,-4.728666687E-1,8.889713745E0,3.157084808E0,9.445517341E0
5.991034333E0,-3.234773254E-1,8.945397949E0,2.945125580E0,9.423298081E0
6.001102333E0,-1.895059204E-1,9.018146667E0,2.822979584E0,9.451565772E0
6.011171333E0,-2.170486450E-2,9.119635620E0,2.844085693E0,9.552855509E0
6.021239333E0,1.592687988E-1,9.222920837E0,3.004701691E0,9.701333288E0
6.031308333E0,3.049159241E-1,9.327403564E0,3.273692322E0,9.889918725E0
6.041376333E0,4.315525818E-1,9.452543335E0,3.637286224E0,1.013738942E1
6.051445333E0,6.080355835E-1,9.567354584E0,3.997886353E0,1.038687038E1
6.061513333E0,7.845185852E-1,9.628726959E0,4.290827179E0,1.057066933E1
6.071582333E0,9.391470337E-1,9.622290344E0,4.461322632E0,1.064771657E1
6.081650333E0,1.010847931E0,9.529034271E0,4.500541077E0,1.058674538E1
6.091719333E0,9.502239990E-1,9.355395355E0,4.483326874E0,1.041760854E1
6.101787333E0,7.467970276E-1,9.161099396E0,4.468657379E0,1.022019309E1
6.111856333E0,4.460723877E-1,9.040450287E0,4.486620026E0,1.010239978E1
6.121924333E0,2.853067017E-1,9.021739197E0,4.594096527E0,1.012812426E1
6.131993333E0,3.243754578E-1,9.084009705E0,4.701273651E0,1.023359300E1
6.142061333E0,4.049079895E-1,9.106163635E0,4.628075867E0,1.022278107E1
6.152130333E0,4.436773682E-1,9.079069977E0,4.393663330E0,1.009607046E1
6.162198333E0,4.778063965E-1,9.049281921E0,4.064348145E0,9.931602493E0
6.172267333E0,4.412823486E-1,8.997040558E0,3.764222260E0,9.762726982E0
6.182335333E0,3.646417236E-1,8.982071686E0,3.615581360E0,9.689324224E0
6.192404333E0,4.212240601E-1,9.017697601E0,3.688779144E0,9.752096765E0
6.202472333E0,4.996609497E-1,9.058412933E0,3.933819580E0,9.888348822E0
6.212541333E0,5.632786560E-1,9.174272003E0,4.328698425E0,1.015983168E1
6.222609333E0,7.054829407E-1,9.295819244E0,4.799619141E0,1.048552838E1
6.232678333E0,7.945477295E-1,9.351204071E0,5.302273865E0,1.077916656E1
6.242746333E0,7.554789734E-1,9.406888275E0,5.798791351E0,1.107638373E1
6.252815333E0,7.608677673E-1,9.401948547E0,6.206244049E0,1.129128077E1
6.262883333E0,9.494755554E-1,9.373507690E0,6.526428223E0,1.146116991E1
6.272952333E0,1.054856415E0,9.285939789E0,6.459667053E0,1.136084056E1
6.283020333E0,9.490264893E-1,9.145382080E0,6.051765289E0,1.100738515E1
6.293089333E0,8.433462524E-1,8.997040558E0,5.437891846E0,1.054649892E1
6.303157333E0,6.978488159E-1,8.785680084E0,4.746180267E0,1.001006467E1
6.313226333E0,6.194119263E-1,8.612789612E0,4.146527252E0,9.579013743E0
6.323294333E0,6.497987366E-1,8.478369141E0,3.713028717E0,9.278553979E0
6.333363333E0,6.786886597E-1,8.420289917E0,3.399281158E0,9.105877936E0
6.343431333E0,7.695497131E-1,8.539442139E0,3.247945862E0,9.168611188E0
6.353500333E0,9.942324829E-1,8.685388641E0,3.247646484E0,9.325860913E0
6.363568333E0,1.236877899E0,8.778195648E0,3.327280884E0,9.468758306E0
6.373637333E0,1.448837128E0,8.885073395E0,3.478616180E0,9.651136140E0
6.383705333E0,1.683698730E0,8.958420868E0,3.603905640E0,9.801850933E0
6.393774333E0,1.890418854E0,8.940009155E0,3.631747742E0,9.832956768E0
6.403842333E0,2.008074188E0,8.891809387E0,3.583398285E0,9.794762855E0
6.413911333E0,1.991309052E0,8.807235260E0,3.318000183E0,9.619866417E0
6.423979333E0,1.776056671E0,8.615633698E0,2.905907135E0,9.264330391E0
6.434048333E0,1.405277710E0,8.376880188E0,2.489473114E0,8.851237400E0
6.444116333E0,8.550219727E-1,8.085286560E0,2.224823456E0,8.429279966E0
6.454185333E0,2.722837830E-1,7.753875732E0,2.160157928E0,8.053757484E0
6.464253333E0,-3.028202820E-1,7.499105530E0,2.298470306E0,7.849283383E0
6.474322333E0,-7.126679993E-1,7.325915680E0,2.617756348E0,7.812143401E0
6.484390333E0,-9.530680847E-1,7.232659607E0,2.982697449E0,7.881382356E0
6.494459333E0,-1.129850464E0,7.260801086E0,3.259621582E0,8.038714284E0
6.504527333E0,-1.237925720E0,7.410639496E0,3.336112518E0,8.220686380E0
6.514596333E0,-1.253343658E0,7.609126740E0,3.214116211E0,8.354652780E0
6.524664333E0,-1.273851013E0,7.827073517E0,2.896027679E0,8.442319146E0
6.534733333E0,-1.258283386E0,8.092770996E0,2.527194672E0,8.571052000E0
6.544801333E0,-1.109193420E0,8.392148438E0,2.230811005E0,8.754140916E0
6.554870333E0,-8.810678101E-1,8.676407318E0,2.028431854E0,8.953818192E0
6.564938333E0,-6.486012268E-1,8.972192230E0,1.933080139E0,9.200962764E0
6.575007333E0,-4.825964355E-1,9.313033447E0,1.968406677E0,9.531008140E0
6.585075333E0,-4.689747620E-1,9.562115479E0,2.022444305E0,9.784900138E0
6.595144333E0,-6.584806824E-1,9.637259216E0,2.095342712E0,9.884372671E0
6.605212333E0,-8.445437622E-1,9.634564819E0,2.319576416E0,9.945779415E0
6.615281333E0,-9.339079285E-1,9.612710266E0,2.726280670E0,1.003538684E1
6.625349333E0,-9.599537659E-1,9.638157349E0,3.210823059E0,1.020416449E1
6.635418333E0,-9.190887451E-1,9.713001709E0,3.608545990E0,1.040234255E1
6.645486333E0,-8.367599487E-1,9.818232880E0,3.751947784E0,1.054395449E1
6.655555333E0,-8.714877319E-1,9.858349457E0,3.585344238E0,1.052621671E1
6.665623333E0,-9.496252441E-1,9.877060547E0,3.440295868E0,1.050208307E1
6.675692333E0,-8.089178467E-1,1.006701553E1,3.549418945E0,1.070502334E1
6.685760333E0,-5.053491211E-1,1.023616379E1,3.866459656E0,1.095371796E1
6.695829333E0,-3.959266663E-1,1.033765274E1,4.205803986E0,1.116747999E1
6.705897333E0,-4.586462402E-1,1.043105850E1,4.516557770E0,1.137614310E1
6.715966333E0,-4.192781067E-1,1.040067169E1,4.729564819E0,1.143322129E1
6.726034333E0,-3.454815674E-1,1.028451324E1,4.802912292E0,1.135599122E1
6.736103333E0,-3.626957703E-1,1.018272491E1,4.803211670E0,1.126455846E1
6.746171333E0,-4.400848389E-1,1.009395950E1,4.734953613E0,1.115802307E1
6.756240333E0,-3.987707520E-1,1.003288651E1,4.577780457E0,1.103512137E1
6.766308333E0,-3.254232788E-1,9.939780121E0,4.378544769E0,1.086631416E1
6.776377333E0,-4.230203247E-1,9.773775330E0,4.205953674E0,1.064874062E1
6.786445333E0,-5.894741821E-1,9.613758087E0,4.150568848E0,1.048804301E1
6.796514333E0,-7.797285461E-1,9.510472870E0,4.198319550E0,1.042511189E1
6.806582333E0,-8.910969543E-1,9.413324890E0,4.209845581E0,1.035024343E1
6.816651333E0,-7.744894409E-1,9.299411774E0,4.135749664E0,1.020702300E1
6.826719333E0,-6.583309937E-1,9.192384338E0,3.967499542E0,1.003366245E1
6.836788333E0,-7.134164429E-1,9.110803986E0,3.681594086E0,9.852403123E0
6.846856333E0,-8.568182373E-1,9.067244568E0,3.432661743E0,9.733048248E0
6.856924333E0,-9.409432983E-1,9.006470947E0,3.299588470E0,9.637903158E0
6.866993333E0,-9.789642334E-1,8.910670166E0,3.225193176E0,9.526819238E0
6.877061333E0,-9.740245056E-1,8.885223083E0,3.377725983E0,9.555362149E0
6.887130333E0,-9.753717041E-1,8.902886353E0,3.821103973E0,9.737226039E0
6.897198333E0,-9.729766846E-1,8.940308533E0,4.391867065E0,1.000821146E1
6.907267333E0,-8.951385498E-1,8.984167328E0,4.957391052E0,1.030010979E1
6.917335333E0,-6.824308777E-1,9.031468964E0,5.461392975E0,1.057638675E1
6.927404333E0,-4.701722717E-1,8.998537445E0,5.860014038E0,1.074869772E1
6.937472333E0,-4.266128540E-1,8.876391449E0,6.117328949E0,1.078860682E1
6.947541333E0,-5.382806396E-1,8.739875336E0,6.252048798E0,1.075933460E1
6.957609333E0,-6.622229004E-1,8.592132568E0,6.254294128E0,1.064797992E1
6.967678333E0,-7.830216980E-1,8.427924042E0,6.155798950E0,1.046598717E1
6.977746333E0,-8.391549683E-1,8.277786255E0,5.995182953E0,1.025515212E1
6.987815333E0,-8.303233337E-1,8.152646484E0,5.794001312E0,1.003621108E1
6.997883333E0,-7.277865601E-1,8.081544342E0,5.545368347E0,9.828130155E0
7.007952333E0,-6.080355835E-1,7.988288269E0,5.143454132E0,9.520376944E0
7.018020333E0,-6.165678406E-1,7.887996826E0,4.627028046E0,9.165699011E0
7.028089333E0,-6.515950012E-1,7.860454102E0,4.127067719E0,8.901910058E0
7.038157333E0,-6.381230164E-1,7.830965424E0,3.751349030E0,8.706540070E0
7.048226333E0,-6.051914978E-1,7.790100403E0,3.534150696E0,8.575671529E0
7.058294333E0,-5.849835205E-1,7.740403748E0,3.436254272E0,8.489045843E0
7.068363333E0,-6.020480347E-1,7.707472229E0,3.404669952E0,8.447447394E0
7.078431333E0,-6.336323547E-1,7.750283203E0,3.407514038E0,8.489966526E0
7.088500333E0,-6.670129395E-1,7.821385345E0,3.468587036E0,8.581961956E0
7.098568333E0,-7.042854309E-1,7.862699432E0,3.563639374E0,8.661269302E0
7.108637333E0,-7.598199463E-1,7.927514648E0,3.649261322E0,8.760132593E0
7.118705333E0,-7.159611511E-1,8.087382202E0,3.773053894E0,8.952892658E0
7.128774333E0,-5.162763977E-1,8.257278900E0,3.911216583E0,9.151328391E0
7.138842333E0,-3.534150696E-1,8.405919800E0,4.012106781E0,9.321018759E0
7.148911333E0,-3.281176758E-1,8.560099182E0,4.033512268E0,9.468483534E0
7.158979333E0,-3.528163147E-1,8.690627747E0,3.996389465E0,9.571970473E0
7.169048333E0,-4.664300537E-1,8.762628021E0,3.939358063E0,9.618718666E0
7.179116333E0,-5.749543762E-1,8.820258179E0,3.932921448E0,9.674471458E0
7.189185333E0,-6.171665955E-1,8.916208649E0,4.013453979E0,9.797320252E0
7.199253333E0,-5.999523926E-1,9.046587524E0,4.190835114E0,9.988182400E0
7.209322333E0,-4.409829712E-1,9.217681732E0,4.500840454E0,1.026731159E1
7.219390333E0,-2.357597351E-1,9.345815277E0,4.847818909E0,1.053096358E1
7.229459333E0,-9.909393311E-2,9.496252441E0,5.205275574E0,1.082975179E1
7.239527333E0,3.727249146E-2,9.680818634E0,5.509293365E0,1.113875900E1
7.249596333E0,1.887574768E-1,9.815987549E0,5.603746948E0,1.130447791E1
7.259664333E0,2.802172852E-1,9.963430939E0,5.489684143E0,1.137915242E1
7.269733333E0,2.857557678E-1,1.018047958E1,5.056784363E0,1.137079105E1
7.279801333E0,2.633024597E-1,1.026176056E1,4.496649170E0,1.120682434E1
7.289870333E0,3.830534363E-1,1.025098297E1,4.261488190E0,1.110809000E1
7.299938333E0,6.114784241E-1,1.034154465E1,4.378245392E0,1.124679885E1
7.310007333E0,8.289761353E-1,1.035606445E1,4.613705750E0,1.136756584E1
7.320075333E0,8.979826355E-1,1.022793091E1,4.714595947E0,1.129798028E1
7.330144333E0,8.665480042E-1,9.998607788E0,4.658163300E0,1.106442716E1
7.340212333E0,7.550299072E-1,9.678423615E0,4.522395630E0,1.070952922E1
7.350281333E0,3.826043701E-1,9.366023254E0,4.355642395E0,1.033636292E1
7.360349333E0,-1.454974365E-1,9.152567139E0,4.244273987E0,1.008982242E1
7.370418333E0,-5.508544922E-1,8.978030090E0,4.278852081E0,9.960775076E0
7.380486333E0,-6.888674927E-1,8.797206116E0,4.465962982E0,9.889903904E0
7.390555333E0,-5.679190063E-1,8.662935333E0,4.741539917E0,9.891975605E0
7.400623333E0,-2.239343262E-1,8.623866577E0,5.018014984E0,9.980064915E0
7.410692333E0,3.275189209E-1,8.762178955E0,5.286556549E0,1.023868785E1
7.420760333E0,6.289920044E-1,8.815019073E0,5.364694061E0,1.033828490E1
7.430829333E0,1.971400452E-1,8.562643890E0,4.973407745E0,9.904166759E0
7.440897333E0,-6.239025879E-1,8.355474701E0,4.460424500E0,9.492028162E0
7.450966333E0,-1.479972382E0,8.155041504E0,3.837120667E0,9.133373703E0
7.461034333E0,-2.039209442E0,7.953261108E0,3.457659760E0,8.908880312E0
7.471103333E0,-2.113604736E0,7.932753754E0,3.594325562E0,8.961868295E0
7.481171333E0,-1.599723358E0,8.175997925E0,4.221820679E0,9.339690933E0
7.491240333E0,-8.322692871E-1,8.571774902E0,4.994813232E0,9.955709737E0
7.501308333E0,1.886077881E-2,8.947942657E0,5.522765350E0,1.051508301E1
7.511377333E0,8.964857483E-1,9.211993561E0,5.669011230E0,1.085367221E1
7.521445333E0,1.601519623E0,9.348659363E0,5.680088196E0,1.105557321E1
7.531514333E0,1.817969513E0,9.267677765E0,5.586532745E0,1.097288533E1
7.541582333E0,1.531315613E0,9.008566589E0,5.286706238E0,1.055691538E1
7.551651333E0,1.144070892E0,8.628057861E0,4.746180267E0,9.913551725E0
7.561719333E0,7.908055115E-1,8.156388702E0,4.061653748E0,9.145987163E0
7.571787333E0,4.596940613E-1,7.812404022E0,3.455564117E0,8.554875721E0
7.581856333E0,2.752775574E-1,7.591613159E0,3.021616516E0,8.175483745E0
7.591925333E0,2.615061951E-1,7.454348602E0,2.812501373E0,7.971565878E0
7.601993333E0,3.514691162E-1,7.438481598E0,2.824476471E0,7.964433838E0
7.612061333E0,5.436694336E-1,7.501949615E0,2.847229156E0,8.042483345E0
7.622130333E0,7.038363647E-1,7.715705109E0,2.812651062E0,8.242481237E0
7.632199333E0,9.042695618E-1,7.967182159E0,2.620450745E0,8.435665777E0
7.642267333E0,1.016087036E0,8.104746094E0,2.286794586E0,8.482262174E0
7.652335333E0,9.289682007E-1,8.280330963E0,1.993404694E0,8.567410639E0
7.662404333E0,8.102650452E-1,8.491392059E0,1.933978271E0,8.746458741E0
7.672472333E0,8.101153564E-1,8.632548523E0,2.070045319E0,8.914161122E0
7.682541333E0,8.190966797E-1,8.785979462E0,2.255659332E0,9.107818262E0
7.692609333E0,7.881111145E-1,8.879385223E0,2.328108673E0,9.213288830E0
7.702678333E0,6.962022400E-1,8.966504059E0,2.279759216E0,9.277941295E0
7.712746333E0,6.004014587E-1,9.108558655E0,2.232756958E0,9.397421259E0
7.722815333E0,5.266049194E-1,9.237889709E0,2.201771393E0,9.511241575E0
7.732883333E0,5.138813782E-1,9.372310181E0,2.225571899E0,9.646628555E0
7.742952333E0,5.622308350E-1,9.495503998E0,2.340083771E0,9.795748656E0
7.753020333E0,6.048921204E-1,9.555978241E0,2.565065918E0,9.912728070E0
7.763089333E0,4.932243347E-1,9.523196411E0,2.816992035E0,9.943338687E0
7.773157333E0,2.350112915E-1,9.479337616E0,3.138224030E0,9.988068983E0
7.783226333E0,1.017883301E-2,9.411678314E0,3.510499878E0,1.004506853E1
7.793294333E0,-1.517843628E-1,9.308393097E0,3.858376465E0,1.007751405E1
7.803363333E0,-3.703298950E-1,9.206305389E0,4.115691376E0,1.009119015E1
7.813431333E0,-6.774911499E-1,9.060209198E0,4.255650330E0,1.003279346E1
7.823500333E0,-9.985734558E-1,8.915909271E0,4.300257568E0,9.949010113E0
7.833568333E0,-1.337618408E0,8.764274597E0,4.333039398E0,9.867976624E0
7.843637333E0,-1.612746277E0,8.719667358E0,4.290078735E0,9.850803264E0
7.853705333E0,-1.844165039E0,8.783883820E0,4.091142426E0,9.863823092E0
7.863774333E0,-2.002086639E0,8.875193939E0,3.874093781E0,9.888681459E0
7.873842333E0,-1.930086365E0,9.088500366E0,3.781436462E0,1.003121797E1
7.883911333E0,-1.743125153E0,9.338480530E0,3.839515686E0,1.024634494E1
7.893979333E0,-1.588796082E0,9.580976257E0,3.969894562E0,1.049187504E1
7.904048333E0,-1.382525024E0,9.825118561E0,4.146227875E0,1.075339648E1
7.914116333E0,-1.154848480E0,1.005025040E1,4.431684265E0,1.104450241E1
7.924185333E0,-1.010548553E0,1.022808060E1,4.871619415E0,1.137398421E1
7.934253333E0,-8.812174988E-1,1.036564453E1,5.498216400E0,1.176662715E1
7.944322333E0,-7.114704895E-1,1.035426819E1,6.162385254E0,1.207029627E1
7.954390333E0,-5.014572144E-1,1.025741959E1,6.744674377E0,1.228644572E1
7.964459333E0,-3.236270142E-1,1.010907806E1,7.222031708E0,1.242803024E1
7.974527333E0,-1.784289551E-1,9.856702881E0,7.419471130E0,1.233835404E1
7.984596333E0,-1.258882141E-1,9.590706024E0,7.149133301E0,1.196275875E1
7.994664333E0,-2.192939758E-1,9.325906677E0,6.416856079E0,1.132239670E1
8.004733333E0,-4.664300537E-1,9.127569122E0,5.355712738E0,1.059309841E1
8.014801333E0,-6.378236389E-1,9.040001221E0,4.310586090E0,1.003541696E1
8.024870333E0,-7.222480774E-1,8.992400208E0,3.528911591E0,9.687007835E0
8.034938333E0,-7.707472229E-1,8.993448029E0,3.118764496E0,9.550018361E0
8.045007333E0,-7.821235657E-1,9.029373322E0,3.060086517E0,9.565847027E0
8.055075333E0,-7.559280396E-1,9.057814178E0,3.223845978E0,9.644097043E0
8.065144333E0,-7.351213074E-1,9.055568848E0,3.547323303E0,9.753319082E0
8.075212333E0,-6.283932495E-1,9.053772583E0,3.977828064E0,9.909025793E0
8.085281333E0,-4.766088867E-1,9.008267212E0,4.485123138E0,1.007434185E1
8.095349333E0,-2.236349487E-1,9.030271454E0,5.152435455E0,1.039920219E1
8.105418333E0,7.723937988E-2,8.983568573E0,5.970634003E0,1.078698014E1
8.115486333E0,2.698887634E-1,8.803942108E0,6.713239746E0,1.107473812E1
8.125555333E0,3.209326172E-1,8.506660309E0,7.075336761E0,1.106917601E1
8.135623333E0,1.986369324E-1,8.182584229E0,6.874454498E0,1.068888516E1
8.145692333E0,3.248245239E-2,7.964936829E0,6.175108795E0,1.007835514E1
8.155760333E0,-5.957611084E-2,7.866741028E0,5.240153046E0,9.452426548E0
8.165829333E0,-9.385482788E-2,7.784112854E0,4.461172943E0,8.972362324E0
8.175897333E0,-4.475692749E-2,7.792196045E0,4.029770050E0,8.772648918E0
8.185966333E0,4.535568237E-2,7.791297913E0,3.811972961E0,8.673956315E0
8.196034333E0,3.128494263E-2,7.719746704E0,3.674858093E0,8.549856720E0
8.206103333E0,-7.469467163E-2,7.668553162E0,3.650458832E0,8.493417249E0
8.216171333E0,-2.365081787E-1,7.611372070E0,3.628005524E0,8.435125665E0
8.226240333E0,-3.796105957E-1,7.574249268E0,3.605851593E0,8.397352076E0
8.236308333E0,-4.674778748E-1,7.570057983E0,3.617826691E0,8.403153182E0
8.246377333E0,-3.984713745E-1,7.663763123E0,3.634142761E0,8.491115253E0
8.256445333E0,-1.679507446E-1,7.839647369E0,3.586691437E0,8.622797330E0
8.266513333E0,4.954696655E-2,8.039032745E0,3.483406219E0,8.761428038E0
8.276582333E0,2.273771667E-1,8.282725983E0,3.371888123E0,8.945662613E0
8.286650333E0,3.466790771E-1,8.475974121E0,3.227737885E0,9.076376785E0
8.296719333E0,4.772076416E-1,8.650211792E0,3.070864105E0,9.191523135E0
8.306787333E0,6.397695923E-1,8.855584717E0,2.963387604E0,9.360147002E0
8.316856333E0,7.116201782E-1,9.035809937E0,2.891087952E0,9.513708742E0
8.326924333E0,7.366181946E-1,9.190737762E0,2.919678497E0,9.671441956E0
8.336993333E0,7.842192078E-1,9.294022980E0,3.107837219E0,9.831201101E0
8.347061333E0,8.017327881E-1,9.317224731E0,3.513044586E0,9.989741459E0
8.357130333E0,7.238946533E-1,9.310638428E0,4.061803436E0,1.018382338E1
8.367198333E0,5.270539856E-1,9.365873566E0,4.519102478E0,1.041247621E1
8.377267333E0,3.074606323E-1,9.545500031E0,4.722978516E0,1.065446521E1
8.387335333E0,4.114942932E-1,9.690548401E0,4.850662994E0,1.084458332E1
8.397404333E0,8.216413879E-1,9.755662994E0,5.091063080E0,1.103480758E1
8.407472333E0,1.068178711E0,9.871671753E0,5.390590210E0,1.129820215E1
8.417541333E0,1.185834045E0,9.990674286E0,5.643414459E0,1.153550614E1
8.427609333E0,1.154249725E0,9.988728333E0,5.592220917E0,1.150564735E1
8.437678333E0,9.211843872E-1,9.784103851E0,5.197791138E0,1.111729740E1
8.447746333E0,6.324348450E-1,9.543703766E0,4.735402679E0,1.067268916E1
8.457815333E0,3.025209045E-1,9.409432983E0,4.418062592E0,1.039943388E1
8.467883333E0,-1.152603149E-2,9.408983917E0,4.357588348E0,1.036907360E1
8.477952333E0,-5.373825073E-2,9.468260651E0,4.520299988E0,1.049209033E1
8.488020333E0,1.130149841E-1,9.547745361E0,4.835394745E0,1.070295549E1
8.498089333E0,3.168910217E-1,9.692943420E0,5.118755493E0,1.096609456E1
8.508157333E0,4.613406372E-1,9.802814941E0,5.241799622E0,1.112584735E1
8.518226333E0,6.575825500E-1,9.931247864E0,5.198988647E0,1.122905080E1
8.528294333E0,9.334588623E-1,1.002794678E1,5.000651093E0,1.124444633E1
8.538363333E0,1.208586731E0,1.002450394E1,4.619244232E0,1.110354801E1
8.548431333E0,1.345402222E0,1.000549347E1,4.204007721E0,1.093588989E1
8.558500333E0,1.453178101E0,9.923613739E0,3.855682068E0,1.074505097E1
8.568568333E0,1.591640167E0,9.757459259E0,3.573369141E0,1.051238777E1
8.578637333E0,1.685944061E0,9.590706024E0,3.315904541E0,1.028684949E1
8.588705333E0,1.692380676E0,9.408534851E0,2.997217255E0,1.001838269E1
8.598774333E0,1.611099701E0,9.235644379E0,2.685565338E0,9.752180808E0
8.608842333E0,1.597927094E0,9.084009705E0,2.552192688E0,9.570072666E0
8.618911333E0,1.697769470E0,8.928333435E0,2.657573547E0,9.468909983E0
8.628979333E0,1.791025543E0,8.744665375E0,2.881956940E0,9.379905160E0
8.639048333E0,1.717378693E0,8.526718597E0,3.044069824E0,9.215241761E0
8.649116333E0,1.471440125E0,8.265062714E0,3.081492004E0,8.942706004E0
8.659185333E0,1.078956299E0,7.994126129E0,3.073408813E0,8.632267431E0
8.669253333E0,6.990463257E-1,7.762707367E0,3.115920410E0,8.393881786E0
8.679322333E0,4.580474854E-1,7.618557129E0,3.197949829E0,8.275210169E0
8.689390333E0,2.644999695E-1,7.487280121E0,3.212469635E0,8.151643086E0
8.699459333E0,1.657054138E-1,7.434889069E0,3.110830994E0,8.061160166E0
8.709527333E0,1.371148682E-1,7.485334167E0,2.961741028E0,8.051145136E0
8.719596333E0,1.149609375E-1,7.494465179E0,2.709814911E0,7.970151893E0
8.729664333E0,5.269042969E-2,7.507338409E0,2.435734863E0,7.892763179E0
8.739733333E0,-2.439926147E-2,7.564070435E0,2.204016724E0,7.878670356E0
8.749801333E0,-6.107299805E-2,7.640112305E0,2.015558624E0,7.901741739E0
8.759870333E0,-1.170565796E-1,7.697443085E0,1.850751343E0,7.917677236E0
8.769938333E0,-2.227368164E-1,7.811805267E0,1.791923676E0,8.017786707E0
8.780007333E0,-3.056643677E-1,7.973768463E0,1.852697296E0,8.191880216E0
8.790075333E0,-3.109034729E-1,8.150550842E0,1.996697845E0,8.397317565E0
8.800143333E0,-2.890489197E-1,8.273594971E0,2.164798279E0,8.557001496E0
8.810212333E0,-3.484753418E-1,8.339607697E0,2.252964935E0,8.645596717E0
8.820280333E0,-5.135820007E-1,8.418044586E0,2.236798553E0,8.725279875E0
8.830349333E0,-7.057823181E-1,8.525521088E0,2.217189331E0,8.837339364E0
8.840417333E0,-8.578660583E-1,8.643176422E0,2.267933807E0,8.976856721E0
8.850486333E0,-9.425898743E-1,8.730894012E0,2.391876068E0,9.101541466E0
8.860554333E0,-1.002315674E0,8.869655457E0,2.575693817E0,9.290297265E0
8.870623333E0,-9.828561401E-1,9.122479706E0,2.776725769E0,9.586232220E0
8.880691333E0,-8.602610779E-1,9.337881775E0,2.903063049E0,9.816509575E0
8.890760250E0,-7.866142273E-1,9.540260925E0,2.964136047E0,1.002104999E1
8.900828250E0,-7.472460938E-1,9.723180542E0,3.096011810E0,1.023151532E1
8.910897250E0,-5.408253479E-1,9.819729767E0,3.377127228E0,1.039829664E1
8.920965250E0,-2.553689575E-1,9.891430664E0,3.779191132E0,1.059187894E1
8.931034250E0,-1.781295776E-2,1.001342697E1,4.242627411E0,1.087515169E1
8.941102250E0,1.757345581E-1,1.007644592E1,4.609065399E0,1.108192803E1
8.951171250E0,3.239263916E-1,1.006327332E1,4.820874939E0,1.116311934E1
8.961239250E0,4.528083801E-1,1.010294083E1,4.780309296E0,1.118596468E1
8.971308250E0,4.528083801E-1,1.013078293E1,4.334386597E0,1.102835914E1
8.981376250E0,2.097138977E-1,1.014185989E1,3.589385834E0,1.076034352E1
8.991445250E0,-2.918930054E-2,1.014141083E1,2.972817993E0,1.056819343E1
9.001513250E0,-9.999206543E-2,1.017613861E1,2.730322266E0,1.053652956E1
9.011582250E0,3.891906738E-2,1.032043854E1,2.828817444E0,1.070117631E1
9.021650250E0,2.134561157E-1,1.048225204E1,3.229833527E0,1.097064246E1
9.031719250E0,3.769161987E-1,1.064675995E1,3.849095764E0,1.132744903E1
9.041787250E0,6.252497864E-1,1.060050613E1,4.429438934E0,1.150572018E1
9.051856250E0,7.041357422E-1,1.039543259E1,4.832251282E0,1.148527223E1
9.061924250E0,5.358856201E-1,1.020682480E1,5.073848877E0,1.141097666E1
9.071993250E0,2.130070496E-1,9.893526306E0,5.274431763E0,1.121369097E1
9.082061250E0,-1.552272034E-1,9.546547852E0,5.450914764E0,1.099423227E1
9.092130250E0,-5.261558533E-1,9.270671539E0,5.611231384E0,1.084933677E1
9.102198250E0,-7.954458618E-1,9.101822662E0,5.783672791E0,1.081326874E1
9.112267250E0,-8.529263306E-1,9.086853790E0,5.903872833E0,1.086987164E1
9.122335250E0,-7.378157043E-1,9.080566864E0,5.822741547E0,1.081227939E1
9.132404250E0,-5.580395508E-1,9.081914063E0,5.551655273E0,1.065896090E1
9.142472250E0,-4.806504822E-1,9.170978851E0,5.085225220E0,1.049749463E1
9.152541250E0,-4.336482239E-1,9.289083252E0,4.488715668E0,1.032587463E1
9.162609250E0,-2.763253784E-1,9.281598816E0,3.869154053E0,1.005956189E1
9.172678250E0,-5.748046875E-2,9.162446594E0,3.310366058E0,9.742292083E0
9.182746250E0,5.358856201E-2,9.094038849E0,3.062032471E0,9.595856250E0
9.192815250E0,5.269042969E-2,9.056466980E0,3.270399170E0,9.629012471E0
9.202883250E0,6.227050781E-2,8.996292114E0,3.970493317E0,9.833715808E0
9.212952250E0,2.106120300E-1,8.961564331E0,4.992567902E0,1.026059096E1
9.223020250E0,4.926255798E-1,8.873098297E0,5.903573456E0,1.066896119E1
9.233089250E0,7.099736023E-1,8.701704712E0,6.401737518E0,1.082617064E1
9.243157250E0,7.571255493E-1,8.516839142E0,6.544241180E0,1.076739898E1
9.253226250E0,7.900570679E-1,8.407865753E0,6.345304871E0,1.056310989E1
9.263294250E0,7.337741089E-1,8.317453766E0,5.792205048E0,1.016209136E1
9.273363250E0,5.840853882E-1,8.238418121E0,4.953948212E0,9.630902957E0
9.283431250E0,4.225712585E-1,8.201594696E0,4.100722504E0,9.179359840E0
9.293499250E0,3.222798157E-1,8.099207611E0,3.499123535E0,8.828640536E0
9.303568250E0,1.698966980E-1,7.988737335E0,3.198099518E0,8.606778121E0
9.313636250E0,-5.044509888E-2,7.919880524E0,3.147953796E0,8.522714669E0
9.323705250E0,-2.688409424E-1,7.865543518E0,3.237168274E0,8.509894754E0
9.333773250E0,-4.610412598E-1,7.790250092E0,3.429218903E0,8.524089266E0
9.343842250E0,-5.900729370E-1,7.724686432E0,3.656596069E0,8.566776602E0
9.353910250E0,-6.664141846E-1,7.672894135E0,3.867208099E0,8.618161680E0
9.363979250E0,-7.307803345E-1,7.647147675E0,4.005819855E0,8.663688600E0
9.374047250E0,-8.059240723E-1,7.709867249E0,4.039948883E0,8.741438873E0
9.384116250E0,-7.423063660E-1,7.902366943E0,4.089346161E0,8.928671462E0
9.394184250E0,-4.201762390E-1,8.102351074E0,4.106111298E0,9.093117782E0
9.404253250E0,-1.622625732E-1,8.167765045E0,3.982318726E0,9.088320934E0
9.414321250E0,-2.559677124E-2,8.243806915E0,3.850892029E0,9.098921753E0
9.424390250E0,1.366658020E-1,8.381071472E0,3.779640198E0,9.194928852E0
9.434458250E0,4.005670166E-1,8.460406494E0,3.721411285E0,9.251369301E0
9.444527250E0,7.129673767E-1,8.500672760E0,3.695664825E0,9.296649846E0
9.454595250E0,9.858499146E-1,8.531658325E0,3.677552490E0,9.342670183E0
9.464664250E0,1.129700775E0,8.554261322E0,3.678899689E0,9.380080678E0
9.474732250E0,1.152453461E0,8.597970428E0,3.674858093E0,9.421137218E0
9.484801250E0,1.191522217E0,8.708291016E0,3.698059845E0,9.535706802E0
9.494869250E0,1.367107086E0,8.869206390E0,3.782633972E0,9.738589402E0
9.504938250E0,1.601819000E0,9.048982544E0,3.926784210E0,9.993475042E0
9.515006250E0,1.814676361E0,9.193731537E0,4.012106781E0,1.019385848E1
9.525075250E0,1.776505737E0,9.325756989E0,3.879632263E0,1.025559664E1
9.535143250E0,1.520238647E0,9.488019562E0,3.524869995E0,1.023515262E1
9.545212250E0,1.298100586E0,9.585017853E0,3.044668579E0,1.014039640E1
9.555280250E0,1.133892059E0,9.634864197E0,2.679128723E0,1.006449452E1
9.565349250E0,1.013392639E0,9.727521515E0,2.583627319E0,1.011566951E1
9.575417250E0,8.665480042E-1,9.817933502E0,2.867886200E0,1.026486702E1
9.585486250E0,6.688092041E-1,9.956844635E0,3.438200226E0,1.055496479E1
9.595554250E0,3.718267822E-1,1.017374359E1,3.921694794E0,1.090976644E1
9.605623250E0,1.737886047E-1,1.030397278E1,4.181704102E0,1.112154246E1
9.615691250E0,1.766326904E-1,1.050605255E1,4.368964691E0,1.137963935E1
9.625760250E0,3.544628906E-1,1.081965042E1,4.547842712E0,1.174194841E1
9.635828250E0,6.759942627E-1,1.115659973E1,4.810097351E0,1.216814375E1
9.645897250E0,9.033714294E-1,1.148875900E1,5.185217285E0,1.263701474E1
9.655965250E0,1.088985443E0,1.170386169E1,5.628744965E0,1.303261439E1
9.666034250E0,1.209335175E0,1.168410278E1,5.958209839E0,1.317121915E1
9.676102250E0,1.094972992E0,1.158905045E1,6.105503540E0,1.314466544E1
9.686171250E0,9.601034546E-1,1.154055130E1,6.165528717E0,1.311944615E1
9.696239250E0,9.193881226E-1,1.141002274E1,6.187083893E0,1.301206749E1
9.706308250E0,8.904981995E-1,1.120943985E1,6.204896851E0,1.284310218E1
9.716376250E0,8.692424011E-1,1.092084000E1,6.176755371E0,1.257667029E1
9.726445250E0,9.159452820E-1,1.055036041E1,6.044280853E0,1.219353893E1
9.736513250E0,8.728349304E-1,1.010967682E1,5.719456329E0,1.164815809E1
9.746582250E0,7.432044983E-1,9.696985016E0,5.316943359E0,1.108394145E1
9.756650250E0,6.551875305E-1,9.319170685E0,4.939727783E0,1.056773975E1
9.766719250E0,6.071374512E-1,8.931776276E0,4.598587189E0,1.006440497E1
9.776787250E0,5.843847656E-1,8.547525330E0,4.243375854E0,9.560749628E0
9.786855250E0,5.492079163E-1,8.193212128E0,3.866908722E0,9.076526724E0
9.796924250E0,5.789959717E-1,7.863896942E0,3.489543457E0,8.622820014E0
9.806992250E0,6.653663635E-1,7.605384521E0,3.099005585E0,8.239443047E0
9.817061250E0,8.231382751E-1,7.482789459E0,2.752176819E0,8.015246219E0
9.827129250E0,1.037342834E0,7.408693542E0,2.393372955E0,7.854492617E0
9.837198250E0,1.169218597E0,7.357799377E0,1.990410919E0,7.711421363E0
9.847266250E0,1.321901093E0,7.417076111E0,1.691781921E0,7.721565036E0
9.857335250E0,1.696272583E0,7.645800476E0,1.635498962E0,8.000653877E0
9.867403250E0,2.038910065E0,7.772137756E0,1.771416321E0,8.228073610E0
9.877472250E0,1.984722748E0,7.749983826E0,1.909878387E0,8.224901771E0
9.887539750E0,1.710343323E0,7.738158417E0,2.083517303E0,8.194230551E0
9.897608750E0,1.462159424E0,7.699239349E0,2.340981903E0,8.179021519E0
9.907676750E0,1.228794708E0,7.570057983E0,2.618953857E0,8.103988747E0
9.917745750E0,9.669891357E-1,7.497458954E0,2.812651062E0,8.065851768E0
9.927813750E0,6.755451965E-1,7.581733704E0,2.828368378E0,8.120265694E0
9.937882750E0,3.115022278E-1,7.726632385E0,2.696492615E0,8.189563729E0
9.947950750E0,1.323248291E-1,7.912695465E0,2.558928680E0,8.317233637E0
9.958019750E0,9.789642334E-2,8.010741577E0,2.530637512E0,8.401529060E0
9.968087750E0,2.859054565E-2,8.104297028E0,2.651136932E0,8.526955774E0
9.978156750E0,-1.288819885E-1,8.240064697E0,2.847378845E0,8.719107929E0
9.988224750E0,-3.082090759E-1,8.309669952E0,3.034340057E0,8.851713232E0
9.998293750E0,-3.674858093E-1,8.337212677E0,3.143163757E0,8.917602786E0
1.000836175E1,-3.626957703E-1,8.410260773E0,3.081492004E0,8.964353153E0
1.001843075E1,-2.564167786E-1,8.575217743E0,2.816542969E0,9.029563843E0
1.002849875E1,-4.041595459E-2,8.737031250E0,2.464475098E0,9.078049682E0
1.003856775E1,1.586700439E-1,8.853040009E0,2.119741974E0,9.104658127E0
1.004863575E1,2.493814087E-1,8.910969543E0,1.833537140E0,9.101067395E0
1.005870475E1,1.603166199E-1,8.912765808E0,1.608554993E0,9.058175585E0
1.006877275E1,2.245330811E-2,8.937464447E0,1.422940979E0,9.050057233E0
1.007884175E1,-7.020401001E-2,8.959169312E0,1.307381287E0,9.054329858E0
1.008890975E1,-1.296304321E-1,8.950487366E0,1.234482880E0,9.036148301E0
1.009897875E1,-1.826202393E-1,8.962761841E0,1.190773773E0,9.043361772E0
1.010904675E1,-2.032772827E-1,9.009464722E0,1.224453735E0,9.094562286E0
1.011911575E1,-1.552272034E-1,9.084458771E0,1.334624634E0,9.183284247E0
1.012918375E1,-1.492396545E-1,9.175170135E0,1.437011719E0,9.288219537E0
1.013925275E1,-1.580712891E-1,9.257199554E0,1.515298920E0,9.381730168E0
1.014932075E1,-7.244934082E-2,9.341174927E0,1.621877289E0,9.481206878E0
1.015938975E1,4.805007935E-2,9.445807343E0,1.748963013E0,9.606479937E0
1.016945775E1,2.395019531E-2,9.629325714E0,1.714684296E0,9.780829697E0
1.017952575E1,-2.228865051E-1,9.757608948E0,1.374292145E0,9.856433923E0
1.018959475E1,-4.641847229E-1,9.831555176E0,1.016087036E0,9.894815688E0
1.019966275E1,-4.605921936E-1,9.951306152E0,7.433541870E-1,9.989655387E0
1.020973175E1,-3.260220337E-1,1.010324020E1,6.749464417E-1,1.013100714E1
1.021979975E1,-2.621049500E-1,1.029903305E1,8.580157471E-1,1.033803520E1
1.022986875E1,-2.683918762E-1,1.043824356E1,1.301094360E0,1.052244313E1
1.023993675E1,-2.007325745E-1,1.047342041E1,1.902094574E0,1.064663291E1
1.025000575E1,-4.490661621E-4,1.042267593E1,2.510728912E0,1.072081776E1
1.026007375E1,9.250762939E-2,1.027104126E1,2.984044647E0,1.069613803E1
1.027014275E1,-2.125579834E-2,1.003034180E1,3.398832092E0,1.059057449E1
1.028021075E1,-3.698808289E-1,9.709558868E0,3.740421753E0,1.041168095E1
1.029027975E1,-8.875044250E-1,9.393416290E0,3.976780243E0,1.023907783E1
1.030034775E1,-1.425485687E0,9.138945465E0,4.154909821E0,1.013980322E1
1.031041675E1,-1.859133911E0,8.957672424E0,4.414619751E0,1.015800875E1
1.032048475E1,-2.150727539E0,8.856183472E0,4.714446259E0,1.026078058E1
1.033055375E1,-2.228415985E0,8.854536896E0,4.926106110E0,1.037473772E1
1.034062175E1,-2.098336487E0,8.949738922E0,4.965474243E0,1.044781208E1
1.035069075E1,-1.859433289E0,9.005872192E0,4.797224121E0,1.037191329E1
1.036075875E1,-1.657652893E0,9.137149200E0,4.497547302E0,1.031810256E1
1.037082775E1,-1.520538025E0,9.352401581E0,4.207749939E0,1.036747852E1
1.038089575E1,-1.330133972E0,9.569749603E0,3.869752808E0,1.040789847E1
1.039096475E1,-1.113833771E0,9.823921051E0,3.512445831E0,1.049225077E1
1.040103275E1,-7.930508423E-1,1.008812164E1,3.324287109E0,1.065129160E1
1.041110175E1,-3.324586487E-1,1.019889130E1,3.450325012E0,1.077184548E1
1.042116975E1,1.246907043E-1,1.015802628E1,3.879781952E0,1.087445417E1
1.043123875E1,3.784130859E-1,1.010189301E1,4.523892517E0,1.107506398E1
1.044130675E1,4.186793518E-1,9.993817749E0,5.232668610E0,1.128860073E1
1.045137575E1,3.341052246E-1,9.777068481E0,5.724545746E0,1.133459829E1
1.046144375E1,3.053649902E-2,9.523046722E0,5.905669098E0,1.120563603E1
1.047151275E1,-3.122506714E-1,9.233249359E0,5.798941040E0,1.090770881E1
1.048158075E1,-6.218069458E-1,8.922645264E0,5.495821381E0,1.049782335E1
1.049164975E1,-8.045768738E-1,8.699609070E0,5.082081757E0,1.010732887E1
1.050171775E1,-8.961863708E-1,8.519683228E0,4.621040497E0,9.733558834E0
1.051178675E1,-9.765692139E-1,8.331973572E0,4.052971802E0,9.316761855E0
1.052185475E1,-1.065484314E0,8.246052246E0,3.452121277E0,9.002764896E0
1.053192375E1,-1.053060150E0,8.207582245E0,2.852318573E0,8.752660351E0
1.054199175E1,-9.024732971E-1,8.146658936E0,2.342927856E0,8.524776877E0
1.055206075E1,-7.571255493E-1,8.127049713E0,1.960173798E0,8.394311017E0
1.056212875E1,-6.837780762E-1,8.208330688E0,1.741179199E0,8.418785551E0
1.057219675E1,-5.490582275E-1,8.286468201E0,1.718875580E0,8.480657606E0
1.058226575E1,-3.674858093E-1,8.332123260E0,1.832489319E0,8.539165120E0
1.059233375E1,-2.640509033E-1,8.429720306E0,2.039508820E0,8.676952434E0
1.060240275E1,-2.326162720E-1,8.555758209E0,2.267185364E0,8.854108557E0
1.061247075E1,-1.502874756E-1,8.750353546E0,2.498604126E0,9.101334852E0
1.062253975E1,1.676513672E-2,8.963210907E0,2.763852539E0,9.379675458E0
1.063260775E1,1.929487610E-1,9.147328033E0,3.009940796E0,9.631748697E0
1.064267675E1,3.222798157E-1,9.338181152E0,3.246299286E0,9.891610110E0
1.065274475E1,3.757186890E-1,9.412127380E0,3.412154388E0,1.001858792E1
1.066281375E1,3.170407104E-1,9.388027496E0,3.501219177E0,1.002467510E1
1.067288175E1,2.718347168E-1,9.404343567E0,3.598816223E0,1.007308544E1
1.068295075E1,2.706372070E-1,9.361233215E0,3.740721130E0,1.008458856E1
1.069301875E1,1.839674377E-1,9.285939789E0,3.898193665E0,1.007265782E1
1.070308775E1,-5.239105225E-3,9.258696442E0,4.046535187E0,1.010435224E1
1.071315575E1,-1.621128845E-1,9.272467804E0,4.151466980E0,1.016068983E1
1.072322475E1,-1.910028076E-1,9.314530334E0,4.225263519E0,1.022984893E1
1.073329275E1,-2.083666992E-1,9.433682556E0,4.192631378E0,1.032549956E1
1.074336175E1,-2.782713318E-1,9.537716217E0,4.012406158E0,1.035108056E1
1.075342975E1,-2.751278687E-1,9.495503998E0,3.818409576E0,1.023819043E1
1.076349875E1,-2.960842896E-1,9.479786682E0,3.758384399E0,1.020193485E1
1.077356675E1,-2.874023438E-1,9.520651703E0,3.783831482E0,1.024903847E1
1.078363575E1,-3.315605164E-1,9.465715942E0,3.821553040E0,1.021342148E1
1.079370375E1,-4.902305603E-1,9.426497498E0,3.917653198E0,1.021994069E1
1.080377275E1,-6.590794373E-1,9.452393646E0,4.056714020E0,1.030723338E1
1.081384075E1,-8.105644226E-1,9.466314697E0,4.250560913E0,1.040842912E1
1.082390975E1,-9.544152832E-1,9.498797150E0,4.489613800E0,1.054962975E1
1.083397775E1,-1.119821320E0,9.604627075E0,4.728367310E0,1.076384311E1
1.084404675E1,-1.229992218E0,9.797575836E0,4.951702881E0,1.104648064E1
1.085411475E1,-1.056353302E0,1.000474503E1,5.191953278E0,1.132109465E1
1.086418375E1,-5.647755432E-1,1.024619293E1,5.495522003E0,1.164062726E1
1.087425175E1,1.077758789E-2,1.044647644E1,5.822142792E0,1.195936172E1
1.088432075E1,5.089416504E-1,1.052835617E1,6.074218597E0,1.216558411E1
1.089438908E1,9.753717041E-1,1.046174469E1,6.203699341E0,1.220185795E1
1.090445808E1,1.210981750E0,1.023915756E1,6.090384979E0,1.197495777E1
1.091452608E1,1.190923462E0,9.936936035E0,5.792654114E0,1.156355647E1
1.092459508E1,1.061592407E0,9.604627075E0,5.303920441E0,1.102304004E1
1.093466308E1,9.541159058E-1,9.315727844E0,4.709506531E0,1.048201193E1
1.094473108E1,9.783654785E-1,9.073232117E0,4.136797485E0,1.001967232E1
1.095480008E1,1.149759064E0,8.862470398E0,3.592678986E0,9.631857025E0
1.096486808E1,1.329086151E0,8.726852417E0,3.022364960E0,9.330547307E0
1.097493708E1,1.423689423E0,8.629854126E0,2.543660431E0,9.108868327E0
1.098500508E1,1.507515106E0,8.539891205E0,2.251318359E0,8.959396070E0
1.099507408E1,1.648970947E0,8.507109375E0,2.191891937E0,8.938367041E0
1.100514208E1,1.801054688E0,8.479117584E0,2.205064545E0,8.944358146E0
1.101521108E1,1.771266632E0,8.393345947E0,2.124831390E0,8.837451562E0
1.102527908E1,1.495839386E0,8.229736176E0,1.943558350E0,8.587404267E0
1.103534808E1,1.129850464E0,8.070617065E0,1.798210602E0,8.345356988E0
1.104541608E1,7.207511902E-1,7.853568420E0,1.725012817E0,8.073022261E0
1.105548508E1,2.951861572E-1,7.660170593E0,1.857187958E0,7.887616592E0
1.106555308E1,-3.592529297E-2,7.560926971E0,2.236948242E0,7.884975887E0
1.107562208E1,-3.185375977E-1,7.484136658E0,2.691403198E0,7.959737363E0
1.108569008E1,-5.592370605E-1,7.446415100E0,3.076552277E0,8.076324526E0
1.109575908E1,-7.390132141E-1,7.480993195E0,3.344195709E0,8.227699840E0
1.110582708E1,-7.887098694E-1,7.665260010E0,3.465593262E0,8.449178122E0
1.111589608E1,-7.619155884E-1,7.881709900E0,3.525768127E0,8.667924042E0
1.112596408E1,-7.165599060E-1,8.066725159E0,3.535797272E0,8.836706130E0
1.113603308E1,-6.988966370E-1,8.259673920E0,3.525917816E0,9.007927965E0
1.114610108E1,-7.182064819E-1,8.472830658E0,3.438050537E0,9.171961154E0
1.115617008E1,-7.268884277E-1,8.689130859E0,3.273692322E0,9.313775996E0
1.116623808E1,-6.532415771E-1,8.920100555E0,3.119063873E0,9.472247776E0
1.117630708E1,-5.295986938E-1,9.123976593E0,2.964884491E0,9.608223753E0
1.118637508E1,-5.010081482E-1,9.261989594E0,2.796634369E0,9.687962850E0
1.119644408E1,-5.063969421E-1,9.478289795E0,2.732118530E0,9.877190236E0
1.120651208E1,-4.535568237E-1,9.680818634E0,2.815644836E0,1.009216622E1
1.121658108E1,-3.643423462E-1,9.808353424E0,2.941233673E0,1.024633582E1
1.122664908E1,-2.838098145E-1,9.929451599E0,3.048859863E0,1.039086635E1
1.123671808E1,-2.591111755E-1,9.993668060E0,3.057841187E0,1.045423037E1
1.124678608E1,-2.460882568E-1,1.005998016E1,2.971171417E0,1.049245538E1
1.125685508E1,-2.662962341E-1,1.013991394E1,2.859653320E0,1.053880380E1
1.126692308E1,-3.501219177E-1,1.017030075E1,2.760260010E0,1.054403329E1
1.127699208E1,-4.065545654E-1,1.012868729E1,2.690205688E0,1.048774520E1
1.128706008E1,-4.249662781E-1,1.007689499E1,2.661764832E0,1.043117448E1
1.129712908E1,-4.905299377E-1,1.001896545E1,2.620899811E0,1.036770969E1
1.130719708E1,-7.393125916E-1,9.958341522E0,2.445015564E0,1.028072226E1
1.131726508E1,-9.943821716E-1,9.913434906E0,2.241289215E0,1.021216749E1
1.132733408E1,-1.133742371E0,9.898915100E0,2.106569366E0,1.018388562E1
1.133740208E1,-1.202898560E0,9.929900665E0,2.134411469E0,1.022768813E1
1.134747108E1,-1.249601440E0,1.001986359E1,2.342329102E0,1.036560059E1
1.135753908E1,-1.230141907E0,1.007899063E1,2.673290863E0,1.049979930E1
1.136760808E1,-1.127455444E0,1.009216324E1,3.079246674E0,1.061153498E1
1.137767608E1,-1.031504974E0,1.005923172E1,3.400927734E0,1.066857323E1
1.138774508E1,-1.076112213E0,9.935588837E0,3.535198517E0,1.060054582E1
1.139781308E1,-1.271306305E0,9.710307312E0,3.547772369E0,1.041599619E1
1.140788208E1,-1.470541992E0,9.387578430E0,3.518134003E0,1.013244242E1
1.141795008E1,-1.710792389E0,9.051377563E0,3.613036652E0,9.894861305E0
1.142801908E1,-1.914818115E0,8.810678101E0,3.909719696E0,9.827537083E0
1.143808708E1,-2.025438080E0,8.654552765E0,4.335135040E0,9.889240557E0
1.144815608E1,-2.010768585E0,8.499325562E0,4.659959564E0,9.899340809E0
1.145822408E1,-1.961071930E0,8.440048828E0,4.718038788E0,9.866109534E0
1.146829308E1,-1.911524963E0,8.452023926E0,4.501289520E0,9.764847335E0
1.147836108E1,-1.848655701E0,8.478967896E0,4.087400208E0,9.592563001E0
1.148843008E1,-1.808090057E0,8.473878479E0,3.737278290E0,9.436262774E0
1.149849808E1,-1.702559509E0,8.537795563E0,3.629352722E0,9.432118698E0
1.150856708E1,-1.458417206E0,8.696914673E0,3.691772919E0,9.559942095E0
1.151863508E1,-1.192120972E0,8.880582733E0,3.817212067E0,9.739456353E0
1.152870408E1,-9.464817810E-1,9.039252777E0,3.916306000E0,9.896533293E0
1.153877208E1,-7.030879211E-1,9.148375854E0,4.095782776E0,1.004801224E1
1.154884108E1,-4.092489624E-1,9.210197296E0,4.465513916E0,1.024382904E1
1.155890908E1,-2.167492676E-1,9.216184845E0,4.942871246E0,1.046025906E1
1.156897808E1,-1.969903564E-1,9.185648346E0,5.395529938E0,1.065489015E1
1.157904608E1,-3.659889221E-1,9.073232117E0,5.706283722E0,1.072469873E1
1.158911508E1,-6.047424316E-1,8.944499817E0,5.899831238E0,1.073209201E1
1.159918308E1,-8.771759033E-1,8.800648956E0,5.942941589E0,1.065548752E1
1.160925208E1,-1.128203888E0,8.604257355E0,5.768404541E0,1.042020055E1
1.161932008E1,-1.275347900E0,8.499774628E0,5.398074646E0,1.014947737E1
1.162938908E1,-1.236279144E0,8.523425446E0,4.908592529E0,9.913195654E0
1.163945708E1,-1.060993652E0,8.553812256E0,4.334685974E0,9.647948701E0
1.164952508E1,-9.430389404E-1,8.513396301E0,3.726650391E0,9.341047166E0
1.165959408E1,-9.057664490E-1,8.456514587E0,3.159180450E0,9.072677276E0
1.166966208E1,-8.972341919E-1,8.412955170E0,2.686762848E0,8.877023064E0
1.167973108E1,-8.755293274E-1,8.401578827E0,2.393223267E0,8.779555569E0
1.168979908E1,-7.526348877E-1,8.407416687E0,2.302062836E0,8.749320426E0
1.169986808E1,-5.783972168E-1,8.422684937E0,2.353256378E0,8.764358531E0
1.170993608E1,-3.550616455E-1,8.487949219E0,2.549348602E0,8.869640861E0
1.172000508E1,-1.386117554E-1,8.543932800E0,2.771037598E0,8.983131430E0
1.173007308E1,-6.406677246E-2,8.559949493E0,2.882705383E0,9.032542843E0
1.174014208E1,-6.541397095E-2,8.588240662E0,2.921175385E0,9.071682439E0
1.175021008E1,-6.780899048E-2,8.618028717E0,2.956801300E0,9.111404445E0
1.176027908E1,-2.139051819E-1,8.603359222E0,2.871179352E0,9.072332457E0
1.177034708E1,-4.544549561E-1,8.612041168E0,2.735411682E0,9.047444913E0
1.178041608E1,-6.508465576E-1,8.627459106E0,2.697390747E0,9.062702065E0
1.179048408E1,-6.709048462E-1,8.660390625E0,2.833757172E0,9.136884524E0
1.180055308E1,-6.239025879E-1,8.701105957E0,3.148702240E0,9.274309953E0
1.181062108E1,-7.464976501E-1,8.692573700E0,3.497626648E0,9.399547247E0
1.182069008E1,-8.801696777E-1,8.708291016E0,3.824247437E0,9.551643813E0
1.183075808E1,-9.334588623E-1,8.754993896E0,4.171076202E0,9.742645445E0
1.184082708E1,-1.044976959E0,8.787176971E0,4.479434967E0,9.918255572E0
1.185089508E1,-1.101259918E0,8.876541138E0,4.816384277E0,1.015890316E1
1.186096408E1,-9.803114319E-1,9.071435852E0,5.162913666E0,1.048368430E1
1.187103208E1,-7.734416199E-1,9.276509399E0,5.385051727E0,1.075409786E1
1.188110108E1,-6.107299805E-1,9.435478821E0,5.326523438E0,1.085233171E1
1.189116962E1,-5.182223511E-1,9.512718201E0,5.006638641E0,1.076228565E1
1.190123862E1,-5.272036743E-1,9.491163025E0,4.474644928E0,1.050631079E1
1.191130662E1,-6.656657410E-1,9.401050415E0,3.956721954E0,1.022147291E1
1.192137562E1,-7.741900635E-1,9.387728119E0,3.651356964E0,1.010253519E1
1.193144362E1,-8.017327881E-1,9.473649445E0,3.569327545E0,1.015543738E1
1.194151162E1,-7.343728638E-1,9.643695831E0,3.763623505E0,1.037810362E1
1.195158062E1,-5.893244934E-1,9.808203735E0,4.142186279E0,1.066329551E1
1.196164862E1,-4.409829712E-1,9.870623932E0,4.604425049E0,1.090066112E1
1.197171762E1,-4.044589233E-1,9.834998016E0,5.097948761E0,1.108511861E1
1.198178562E1,-3.971241760E-1,9.793234863E0,5.573809204E0,1.127530513E1
1.199185462E1,-3.820056152E-1,9.759854279E0,5.958060150E0,1.144111728E1
1.200192263E1,-3.715274048E-1,9.708511047E0,6.042185211E0,1.144120717E1
1.201199162E1,-3.535647583E-1,9.639354858E0,5.689219208E0,1.119863319E1
1.202205962E1,-4.538562012E-1,9.551786957E0,4.975054321E0,1.077932210E1
1.203212862E1,-5.060975647E-1,9.503138123E0,4.229305115E0,1.041406696E1
1.204219662E1,-3.694317627E-1,9.604776764E0,3.646866302E0,1.028045964E1
1.205226562E1,2.275268555E-2,9.809251556E0,3.379522247E0,1.037511949E1
1.206233362E1,6.158193970E-1,1.004037094E1,3.389701080E0,1.061500615E1
1.207240262E1,1.082548828E0,1.021879990E1,3.462599487E0,1.084367920E1
1.208247062E1,1.224453735E0,1.032567764E1,3.376229095E0,1.093242099E1
1.209253962E1,1.248254242E0,1.034289185E1,3.209924927E0,1.090124619E1
1.210260762E1,1.372645569E0,1.025921585E1,3.091970215E0,1.080258976E1
1.211267662E1,1.527723083E0,1.012689102E1,3.116818542E0,1.070525186E1
1.212274462E1,1.605112152E0,1.001207977E1,3.233725433E0,1.064307787E1
1.213281362E1,1.599423981E0,9.851613464E0,3.299139404E0,1.051174418E1
1.214288162E1,1.440903625E0,9.588011627E0,3.255879364E0,1.022775247E1
1.215295062E1,1.132395172E0,9.201665039E0,3.123853912E0,9.783221432E0
1.216301862E1,7.295828247E-1,8.782985687E0,3.046913910E0,9.325063702E0
1.217308762E1,4.022135925E-1,8.408314819E0,2.957549744E0,8.922367083E0
1.218315562E1,3.353027344E-2,8.055049438E0,2.859204254E0,8.547513949E0
1.219322462E1,-1.606159973E-1,7.831115112E0,2.857108612E0,8.337579446E0
1.220329262E1,-4.415817261E-1,7.594606934E0,2.829865265E0,8.116722634E0
1.221336162E1,-6.602769470E-1,7.416028290E0,2.801574097E0,7.955014686E0
1.222342962E1,-8.288264465E-1,7.328310699E0,2.749033356E0,7.870722672E0
1.223349862E1,-9.286688232E-1,7.282206573E0,2.660417633E0,7.808378855E0
1.224356662E1,-9.583071899E-1,7.296127625E0,2.529889069E0,7.781527465E0
1.225363563E1,-8.875044250E-1,7.314988403E0,2.353705444E0,7.735415229E0
1.226370362E1,-7.625143433E-1,7.291636963E0,2.136207733E0,7.636280587E0
1.227377262E1,-6.116281128E-1,7.389234009E0,1.943258972E0,7.664928155E0
1.228384062E1,-5.026547241E-1,7.635022888E0,1.900597687E0,7.884066707E0
1.229390862E1,-3.215313721E-1,7.767647095E0,2.081870728E0,8.048223999E0
1.230397762E1,-3.150947571E-1,7.726782074E0,2.399659882E0,8.096963225E0
1.231404562E1,-7.680528259E-1,7.754923553E0,2.474953308E0,8.176437998E0
1.232411462E1,-1.272803192E0,7.991282043E0,2.349813538E0,8.426282711E0
1.233418262E1,-1.850451965E0,8.223449249E0,2.319875793E0,8.742488989E0
1.234425162E1,-2.213447113E0,8.405021667E0,2.448308716E0,9.029836816E0
1.235431962E1,-2.218087463E0,8.602910156E0,2.570903778E0,9.248757829E0
1.236438862E1,-2.155667267E0,9.067244568E0,2.802771606E0,9.732284115E0
1.237445662E1,-1.939965820E0,9.406888275E0,2.868335266E0,1.002398931E1
1.238452562E1,-1.594184875E0,9.742041321E0,2.745291138E0,1.024623921E1
1.239459362E1,-1.414408722E0,1.015937347E1,2.621199188E0,1.058697816E1
1.240466262E1,-1.171763306E0,1.060454773E1,2.460283813E0,1.094908481E1
1.241473062E1,-8.951385498E-1,1.099343903E1,2.317331085E0,1.127062545E1
1.242479963E1,-5.605842590E-1,1.126512405E1,2.324516144E0,1.151610394E1
1.243486762E1,-2.426454163E-1,1.149250122E1,2.399809570E0,1.174289347E1
1.244493662E1,-1.332229614E-1,1.164817749E1,2.466121674E0,1.190712154E1
1.245500462E1,-2.109114075E-1,1.170745422E1,2.440973969E0,1.196107528E1
1.246507362E1,-3.158432007E-1,1.167991150E1,2.437082062E0,1.193563817E1
1.247514162E1,-4.397854614E-1,1.160850998E1,2.603386230E0,1.190497942E1
1.248521062E1,-5.691165161E-1,1.145462997E1,2.923720093E0,1.183556423E1
1.249527862E1,-7.448510742E-1,1.120689514E1,3.294499054E0,1.170482917E1
1.250534763E1,-9.041198730E-1,1.091200836E1,3.568878479E0,1.151634720E1
1.251541563E1,-9.828561401E-1,1.060320053E1,3.780388641E0,1.129978787E1
1.252548462E1,-1.098415833E0,1.022598495E1,3.980971527E0,1.102839154E1
1.253555262E1,-1.327589264E0,9.817035370E0,4.095034332E0,1.071942083E1
1.254562162E1,-1.582209778E0,9.447453918E0,4.155658264E0,1.044161237E1
1.255568962E1,-1.762285309E0,9.154513092E0,4.212689667E0,1.023022550E1
1.256575862E1,-1.836530914E0,8.917705536E0,4.197421417E0,1.002579994E1
1.257582662E1,-1.863175507E0,8.747060394E0,3.963757324E0,9.782323887E0
1.258589462E1,-2.007026367E0,8.647517395E0,3.507955170E0,9.545337155E0
1.259596363E1,-2.186802521E0,8.631351013E0,3.016976166E0,9.401301546E0
1.260603162E1,-2.180665283E0,8.680598602E0,2.682122498E0,9.343547199E0
1.261610062E1,-2.040856018E0,8.833580475E0,2.354304199E0,9.366962451E0
1.262616862E1,-1.925895081E0,9.086404724E0,2.017055511E0,9.504753317E0
1.263623762E1,-1.724713440E0,9.370663605E0,1.817520447E0,9.699863577E0
1.264630562E1,-1.426234131E0,9.601633301E0,1.915267181E0,9.894127259E0
1.265637462E1,-1.195264435E0,9.784103851E0,2.257006531E0,1.011194461E1
1.266644262E1,-1.034199371E0,9.897717590E0,2.665656738E0,1.030243212E1
1.267651163E1,-1.004710693E0,9.954449615E0,3.085533600E0,1.047000613E1
1.268657963E1,-8.964857483E-1,1.002495300E1,3.581003265E0,1.068302175E1
1.269664862E1,-6.508465576E-1,1.006866211E1,4.151317291E0,1.091031591E1
1.270671662E1,-5.313949585E-1,9.995464325E0,4.763843536E0,1.108539097E1
1.271678562E1,-5.620811462E-1,9.804760895E0,5.263803864E0,1.114257163E1
1.272685362E1,-7.146139526E-1,9.511221313E0,5.522166595E0,1.102126707E1
1.273692262E1,-8.361611938E-1,9.185199280E0,5.488486633E0,1.073268545E1
1.274699062E1,-8.765771484E-1,8.929980011E0,5.184019775E0,1.036276949E1
1.275705963E1,-8.273295593E-1,8.705746307E0,4.734803925E0,9.944488985E0
1.276712763E1,-6.893165588E-1,8.483757935E0,4.204456787E0,9.493511620E0
1.277719662E1,-5.819897461E-1,8.281977539E0,3.664080505E0,9.074984847E0
1.278726462E1,-5.960604858E-1,8.123307495E0,3.069516907E0,8.704329199E0
1.279733362E1,-7.429051208E-1,7.976313171E0,2.580483856E0,8.416197286E0
1.280740162E1,-8.060737610E-1,7.799081726E0,2.273172913E0,8.163500828E0
1.281747062E1,-8.840615845E-1,7.618856506E0,2.077380066E0,7.946322878E0
1.282753862E1,-1.021475830E0,7.547904053E0,1.966909790E0,7.866575022E0
1.283760762E1,-1.148561554E0,7.549550629E0,1.886377258E0,7.865960049E0
1.284767563E1,-1.237476654E0,7.591912537E0,1.808389435E0,7.901819840E0
1.285774462E1,-1.218466187E0,7.712262268E0,1.784888306E0,8.009336764E0
1.286781262E1,-1.049168243E0,7.880512390E0,1.825903015E0,8.157030793E0
1.287788062E1,-8.574169922E-1,8.100554810E0,1.892065430E0,8.362658890E0
1.288794962E1,-7.188052368E-1,8.375383301E0,1.903890839E0,8.619079227E0
1.289801733E1,-6.131250000E-1,8.643775177E0,1.848356323E0,8.860428470E0
1.290808633E1,-5.459147644E-1,8.877139893E0,1.789977722E0,9.072246461E0
1.291815433E1,-6.007008362E-1,9.046737213E0,1.726509705E0,9.229579159E0
1.292822333E1,-6.821315002E-1,9.182205505E0,1.705852661E0,9.364194286E0
1.293829133E1,-7.541317749E-1,9.287286987E0,1.834884338E0,9.496800243E0
1.294836033E1,-8.261320496E-1,9.339678040E0,2.162552948E0,9.622303014E0
1.295842833E1,-8.388555908E-1,9.373208313E0,2.608924713E0,9.765613188E0
1.296849733E1,-7.860154724E-1,9.428593140E0,3.009491730E0,9.928405178E0
1.297856533E1,-6.584806824E-1,9.533075867E0,3.297492828E0,1.010873836E1
1.298863433E1,-5.037025452E-1,9.620943146E0,3.486100616E0,1.024544586E1
1.299870233E1,-4.740641785E-1,9.583520966E0,3.437751160E0,1.019248468E1
1.300877133E1,-6.795867920E-1,9.562414856E0,3.233575745E0,1.011719468E1
1.301883933E1,-8.532257080E-1,9.595046997E0,3.046015778E0,1.010302594E1
1.302890833E1,-9.906399536E-1,9.640552368E0,2.905907135E0,1.011760415E1
1.303897633E1,-1.183439026E0,9.705666962E0,2.818339233E0,1.017563438E1
1.304904533E1,-1.304836578E0,9.712552643E0,2.872227173E0,1.021205005E1
1.305911333E1,-1.233435059E0,9.643097076E0,2.986888733E0,1.017016163E1
1.306918233E1,-1.187181244E0,9.658365326E0,3.072660370E0,1.020463923E1
1.307925033E1,-1.204844513E0,9.859097900E0,3.019371185E0,1.038123615E1
1.308931933E1,-1.049018555E0,1.006626709E1,2.864293671E0,1.051828652E1
1.309938733E1,-6.797364807E-1,1.030292496E1,2.699636078E0,1.067241019E1
1.310945633E1,-4.204756165E-1,1.048674271E1,2.458337860E0,1.077923918E1
1.311952433E1,-2.939886475E-1,1.055335419E1,2.248025208E0,1.079413411E1
1.312959333E1,-1.297801208E-1,1.059930862E1,2.320773926E0,1.085118324E1
1.313966133E1,-3.338058472E-2,1.058883041E1,2.631827087E0,1.091104750E1
1.314973033E1,-3.427871704E-2,1.053374496E1,3.144361267E0,1.099308718E1
1.315979833E1,2.350112915E-2,1.042956161E1,3.826941833E0,1.110953607E1
1.316986733E1,7.334747314E-2,1.024289978E1,4.519551544E0,1.119592434E1
1.317993533E1,1.556762695E-1,9.972561951E0,5.020709381E0,1.116618779E1
1.319000333E1,1.404080200E-1,9.763746185E0,5.280119934E0,1.110090629E1
1.320007233E1,4.790039062E-3,9.529034271E0,5.201084290E0,1.085604877E1
1.321014033E1,-2.529739380E-1,9.288783875E0,4.717290344E0,1.042105224E1
1.322020933E1,-4.653822327E-1,9.107361145E0,4.050427094E0,9.978304830E0
1.323027733E1,-4.754113770E-1,8.960217133E0,3.414699097E0,9.600608156E0
1.324034633E1,-4.096980286E-1,8.880582733E0,2.885699158E0,9.346649763E0
1.325041433E1,-3.022215271E-1,8.930578766E0,2.570604401E0,9.298095608E0
1.326048333E1,-1.104702759E-1,9.039851532E0,2.413880310E0,9.357239847E0
1.327055133E1,4.475692749E-2,9.106313324E0,2.392025757E0,9.415345600E0
1.328062033E1,1.697470093E-1,9.168284454E0,2.578837280E0,9.525579017E0
1.329068833E1,2.209405518E-1,9.225465546E0,2.944826202E0,9.686590248E0
1.330075733E1,2.655477905E-1,9.253008270E0,3.348686371E0,9.843900553E0
1.331082533E1,2.567161560E-1,9.213640137E0,3.590882721E0,9.891992037E0
1.332089433E1,1.445993042E-1,9.155710602E0,3.674109650E0,9.866459715E0
1.333096233E1,-3.787124634E-2,9.094188538E0,3.661685486E0,9.803756422E0
1.334103133E1,-2.167492676E-1,8.984017639E0,3.541635132E0,9.659333962E0
1.335109933E1,-4.337979126E-1,8.819509735E0,3.315605164E0,9.432134976E0
1.336116833E1,-6.391708374E-1,8.710087280E0,3.095862122E0,9.265987377E0
1.337123633E1,-7.786807251E-1,8.606053619E0,2.919528809E0,9.121082778E0
1.338130533E1,-8.668473816E-1,8.510701904E0,2.799179077E0,9.001048539E0
1.339137333E1,-8.237370300E-1,8.479416962E0,2.677931213E0,8.930306282E0
1.340144233E1,-6.722520447E-1,8.502019958E0,2.507585449E0,8.889558536E0
1.341151033E1,-5.227130127E-1,8.516689453E0,2.312541046E0,8.840535856E0
1.342157933E1,-4.364923096E-1,8.566086731E0,2.114203491E0,8.833924599E0
1.343164733E1,-3.661386108E-1,8.651558990E0,1.889371033E0,8.863027324E0
1.344171633E1,-3.270698547E-1,8.772657166E0,1.642085266E0,8.931009599E0
1.345178433E1,-2.851570129E-1,8.920100555E0,1.444346466E0,9.040776800E0
1.346185333E1,-1.848655701E-1,9.087003479E0,1.312620392E0,9.183179177E0
1.347192133E1,-1.182540894E-1,9.217681732E0,1.219963074E0,9.298814465E0
1.348198933E1,-1.187031555E-1,9.361682281E0,1.118025055E0,9.428953579E0
1.349205833E1,-1.513352966E-1,9.460177460E0,1.079405365E0,9.522760938E0
1.350212633E1,-2.972817993E-1,9.497749329E0,1.059796143E0,9.561317202E0
1.351219533E1,-5.770500183E-1,9.490713959E0,1.068328400E0,9.568070011E0
1.352226333E1,-9.041198730E-1,9.371711426E0,1.175954590E0,9.488375888E0
1.353233233E1,-1.142424316E0,9.301956482E0,1.457369385E0,9.484484869E0
1.354240033E1,-1.288520508E0,9.288634186E0,1.826052704E0,9.553715435E0
1.355246933E1,-1.365759888E0,9.314081268E0,2.206112366E0,9.668730098E0
1.356253733E1,-1.433718567E0,9.390721893E0,2.544558563E0,9.834428549E0
1.357260633E1,-1.564696198E0,9.453441467E0,2.826721802E0,9.990304595E0
1.358267433E1,-1.728755035E0,9.510472870E0,3.042572937E0,1.013385111E1
1.359274333E1,-1.931583252E0,9.542805634E0,3.071013794E0,1.020917621E1
1.360281133E1,-2.187401276E0,9.513316956E0,2.987188110E0,1.020838952E1
1.361288033E1,-2.355801086E0,9.588011627E0,2.797083435E0,1.026174651E1
1.362294833E1,-2.356848907E0,9.752369843E0,2.616109772E0,1.036858161E1
1.363301733E1,-2.231559448E0,9.970316620E0,2.578238525E0,1.053728546E1
1.364308533E1,-1.964664459E0,1.022688309E1,2.725831604E0,1.076472025E1
1.365315433E1,-1.706601105E0,1.046863037E1,3.047362976E0,1.103590188E1
1.366322233E1,-1.531315613E0,1.062640228E1,3.439248047E0,1.127358772E1
1.367329133E1,-1.453477478E0,1.063074326E1,3.829336853E0,1.139250278E1
1.368335933E1,-1.490749969E0,1.059736267E1,4.183350677E0,1.149029390E1
1.369342833E1,-1.547332306E0,1.055350388E1,4.488116913E0,1.157211626E1
1.370349633E1,-1.550326080E0,1.040875488E1,4.774770813E0,1.155612935E1
1.371356533E1,-1.533560944E0,1.014335678E1,5.084925842E0,1.144971470E1
1.372363333E1,-1.545086975E0,9.819131012E0,5.329816589E0,1.127872211E1
1.373370133E1,-1.611099701E0,9.413025513E0,5.428461456E0,1.098493902E1
1.374377033E1,-1.800605621E0,8.967102814E0,5.270988922E0,1.055625112E1
1.375383833E1,-2.025138702E0,8.568481750E0,4.881648560E0,1.006730147E1
1.376390733E1,-2.151026917E0,8.259224854E0,4.349505157E0,9.579139162E0
1.377397533E1,-2.296524353E0,8.015531616E0,3.788471832E0,9.158345376E0
1.378404433E1,-2.461181946E0,7.875872040E0,3.319197693E0,8.894034533E0
1.379411233E1,-2.593357086E0,7.905809784E0,3.066373444E0,8.867354476E0
1.380418133E1,-2.577340393E0,8.048463135E0,3.083887024E0,8.996154818E0
1.381424933E1,-2.400558014E0,8.212971039E0,3.211122437E0,9.139304096E0
1.382431833E1,-2.293530579E0,8.377478943E0,3.270399170E0,9.281053102E0
1.383438633E1,-2.286345520E0,8.579708405E0,3.269501038E0,9.461945317E0
1.384445533E1,-2.153571625E0,8.772208099E0,3.284918976E0,9.611461822E0
1.385452333E1,-1.922452240E0,8.918753357E0,3.357368317E0,9.721723411E0
1.386459233E1,-1.743274841E0,9.068142700E0,3.546425171E0,9.891781978E0
1.387466033E1,-1.594633942E0,9.324409790E0,3.891757050E0,1.022903946E1
1.388472933E1,-1.337917786E0,9.621242523E0,4.441264343E0,1.068097190E1
1.389479733E1,-8.975335693E-1,9.832153931E0,5.012476501E0,1.107256692E1
1.390486633E1,-5.727090454E-1,9.859546967E0,5.420827332E0,1.126605659E1
1.391493433E1,-4.299060059E-1,9.791588287E0,5.689069519E0,1.133249895E1
1.392500333E1,-4.227209473E-1,9.626631317E0,5.718857574E0,1.120517985E1
1.393507133E1,-4.819976807E-1,9.325457611E0,5.508395233E0,1.084153584E1
1.394514033E1,-5.468128967E-1,9.037456512E0,4.997208252E0,1.034150448E1
1.395520833E1,-6.653663635E-1,8.762478333E0,4.263434143E0,9.767323565E0
1.396527733E1,-8.985813904E-1,8.475525055E0,3.559897156E0,9.236603338E0
1.397534533E1,-1.146166534E0,8.252339172E0,3.063978424E0,8.877092053E0
1.398541433E1,-1.300495605E0,8.072862396E0,2.782713318E0,8.637470087E0
1.399548233E1,-1.344055023E0,7.917934570E0,2.614912262E0,8.446178894E0
1.400555133E1,-1.356628876E0,7.861950989E0,2.456541595E0,8.347772869E0
1.401561933E1,-1.385069733E0,7.891439667E0,2.292482758E0,8.333589585E0
1.402568733E1,-1.323547668E0,7.952512665E0,2.160008240E0,8.346248960E0
1.403575633E1,-1.168769531E0,8.082741852E0,2.105671234E0,8.433895269E0
1.404582433E1,-1.006207581E0,8.312963104E0,2.132315826E0,8.640866858E0
1.405589333E1,-8.080197144E-1,8.580606537E0,2.189496918E0,8.892333842E0
1.406596133E1,-6.084846497E-1,8.796906738E0,2.219135284E0,9.092875406E0
1.407603033E1,-5.839356995E-1,9.006770325E0,2.231559448E0,9.297459339E0
1.408609833E1,-5.927673340E-1,9.215137024E0,2.240989838E0,9.502218632E0
1.409616733E1,-5.379812622E-1,9.427096252E0,2.346370697E0,9.729595215E0
1.410623533E1,-5.215155029E-1,9.635013885E0,2.523153076E0,9.973553651E0
1.411630433E1,-5.004093933E-1,9.740394745E0,2.820883942E0,1.015298407E1
1.412637233E1,-4.614903259E-1,9.795180817E0,3.168012085E0,1.030508812E1
1.413644133E1,-4.577481079E-1,9.899513855E0,3.474873962E0,1.050165020E1
1.414650933E1,-5.291496277E-1,9.954748993E0,3.657643890E0,1.061863389E1
1.415657833E1,-6.584806824E-1,9.929900665E0,3.754193115E0,1.063628177E1
1.416664633E1,-7.512876892E-1,9.895472260E0,3.812272339E0,1.063100300E1
1.417671533E1,-7.984396362E-1,9.899513855E0,3.881428528E0,1.066317813E1
1.418678333E1,-8.304730225E-1,9.970316620E0,3.891906738E0,1.073516823E1
1.419685233E1,-9.324110413E-1,1.006581802E1,3.526516571E0,1.070637203E1
1.420692033E1,-1.046773224E0,1.005548950E1,2.879861298E0,1.051200287E1
1.421698933E1,-1.031654663E0,9.954449615E0,2.441572723E0,1.030129389E1
1.422705733E1,-9.734257507E-1,9.957443390E0,2.366578674E0,1.028099855E1
1.423712633E1,-1.009351044E0,1.003543121E1,2.541564789E0,1.040135668E1
1.424719433E1,-9.882449341E-1,1.008782227E1,2.792293396E0,1.051369053E1
1.425726333E1,-8.361611938E-1,1.008617569E1,3.074456635E0,1.057744720E1
1.426733133E1,-7.936495972E-1,1.003588028E1,3.336262207E0,1.060563144E1
1.427740033E1,-9.807604980E-1,9.964179382E0,3.608995056E0,1.064291347E1
1.428746833E1,-1.236279144E0,9.887538757E0,3.853586426E0,1.068372300E1
1.429753633E1,-1.360670471E0,9.842183075E0,4.176165619E0,1.077777116E1
1.430760533E1,-1.262025604E0,9.841434631E0,4.696483612E0,1.097740874E1
1.431767333E1,-8.753796387E-1,9.835596771E0,5.282365265E0,1.119859974E1
1.432774233E1,-3.790118408E-1,9.752220154E0,5.682034149E0,1.129313774E1
1.433781033E1,-1.676513672E-2,9.548643494E0,5.728287964E0,1.113508674E1
1.434787933E1,1.966909790E-1,9.273066559E0,5.415737915E0,1.074051525E1
1.435794733E1,2.402503967E-1,9.025631104E0,4.793182526E0,1.022224710E1
1.436801633E1,1.746867371E-1,8.922495575E0,3.976929932E0,9.770231032E0
1.437808433E1,1.466949463E-1,8.860674133E0,3.178939362E0,9.414813910E0
1.438815333E1,2.404000854E-1,8.683891754E0,2.546354828E0,9.052717333E0
1.439822133E1,2.772235107E-1,8.466394043E0,2.034718781E0,8.711874740E0
1.440829033E1,6.406677246E-2,8.362959137E0,1.707199860E0,8.535673461E0
1.441835833E1,-1.046324158E-1,8.349936218E0,1.638492737E0,8.509820282E0
1.442842733E1,-1.820214844E-1,8.341853027E0,1.741478577E0,8.523637216E0
1.443849533E1,-2.549198914E-1,8.320148163E0,1.970502319E0,8.554105973E0
1.444856433E1,-3.393443298E-1,8.302634583E0,2.199526062E0,8.595743742E0
1.445863233E1,-4.513114929E-1,8.371192017E0,2.414928131E0,8.724242988E0
1.446870133E1,-3.556604004E-1,8.543932800E0,2.725532227E0,8.975177320E0
1.447876933E1,2.544708252E-3,8.793463898E0,3.117417297E0,9.329700124E0
1.448883833E1,3.559597778E-1,9.017098846E0,3.473227386E0,9.669440907E0
1.449890633E1,5.328918457E-1,9.156908112E0,3.684887238E0,9.884904341E0
1.450897533E1,5.125341797E-1,9.181307373E0,3.729045410E0,9.922946943E0
1.451904333E1,3.703298950E-1,9.120683441E0,3.671415253E0,9.838866836E0
1.452911233E1,2.227368164E-1,9.025331726E0,3.544179840E0,9.698836796E0
1.453918033E1,1.098715210E-1,8.831335144E0,3.426973572E0,9.473579051E0
1.454924833E1,-2.305206299E-2,8.672216034E0,3.368744659E0,9.303563990E0
1.455931733E1,-4.655319214E-2,8.631051636E0,3.263064423E0,9.227394484E0
1.456938533E1,4.400848389E-2,8.641380157E0,3.023412781E0,9.155130399E0
1.457945433E1,2.383044434E-1,8.669970703E0,2.762205963E0,9.102470147E0
1.458952233E1,5.610333252E-1,8.752299500E0,2.482437744E0,9.114823206E0
1.459959133E1,8.241860962E-1,8.891510010E0,2.072590027E0,9.166998549E0
1.460965933E1,9.834548950E-1,9.087452545E0,1.548829193E0,9.270806284E0
1.461972833E1,9.996212769E-1,9.294472046E0,1.054856415E0,9.407400032E0
1.462979633E1,9.880952454E-1,9.530531158E0,6.616241455E-1,9.604431419E0
1.463986533E1,9.674382019E-1,9.683812408E0,3.818559265E-1,9.739505808E0
1.464993333E1,9.113049316E-1,9.747879181E0,3.207829285E-1,9.795638156E0
1.466000233E1,7.732919312E-1,9.794282684E0,5.107379150E-1,9.838028610E0
1.467007033E1,5.331912231E-1,9.770781555E0,9.360035706E-1,9.829983101E0
1.468013933E1,2.143542480E-1,9.655521240E0,1.505120087E0,9.774478229E0
1.469020733E1,-1.222956848E-1,9.494905243E0,2.024689636E0,9.709147745E0
1.470027633E1,-5.083428955E-1,9.385333099E0,2.395917664E0,9.699655217E0
1.471034433E1,-8.629554749E-1,9.319470062E0,2.676134949E0,9.734418969E0
1.472041333E1,-1.064286804E0,9.281149750E0,2.918480988E0,9.787235481E0
1.473048133E1,-1.173709259E0,9.259295197E0,3.096311188E0,9.833579406E0
1.474055033E1,-1.222507782E0,9.290430450E0,3.228486328E0,9.911092130E0
1.475061833E1,-1.266815643E0,9.373208313E0,3.317551117E0,1.002337275E1
1.476068733E1,-1.367256775E0,9.431287537E0,3.357368317E0,1.010398425E1
1.477075533E1,-1.379980316E0,9.478140106E0,3.508553925E0,1.020046255E1
1.478082433E1,-1.380279694E0,9.584419098E0,3.748355255E0,1.038346901E1
1.479089233E1,-1.463506622E0,9.714797974E0,3.735781403E0,1.051071900E1
1.480096133E1,-1.680255890E0,9.706714783E0,3.433709564E0,1.043235032E1
1.481102933E1,-1.897903290E0,9.666598206E0,3.038830719E0,1.030920220E1
1.482109733E1,-1.788331146E0,9.733059998E0,2.806962891E0,1.028638060E1
1.483116633E1,-1.419348450E0,9.914333038E0,2.849624176E0,1.041292022E1
1.484123433E1,-1.030906219E0,1.030711624E1,3.122207336E0,1.081885352E1
1.485130333E1,-5.993536377E-1,1.077728851E1,3.541784821E0,1.136016779E1
1.486137133E1,-1.866618347E-1,1.107636658E1,4.055067444E0,1.179679241E1
1.487144033E1,7.274871826E-2,1.118354370E1,4.547393646E0,1.207293382E1
1.488150833E1,2.493814087E-1,1.106858276E1,4.870421906E0,1.209531831E1
1.489157771E1,3.773652649E-1,1.075603271E1,5.016817474E0,1.187447270E1
1.490164571E1,2.330653381E-1,1.032897079E1,5.130131836E0,1.153517272E1
1.491171471E1,-5.613327026E-2,9.814340973E0,5.104085999E0,1.106237468E1
1.492178271E1,-3.990701294E-1,9.329349518E0,4.925657043E0,1.055737262E1
1.493185171E1,-7.545808411E-1,8.905431061E0,4.568200378E0,1.003715843E1
1.494191971E1,-1.097517700E0,8.535101166E0,4.048780518E0,9.510263965E0
1.495198871E1,-1.458417206E0,8.221652985E0,3.507206726E0,9.056658190E0
1.496205671E1,-1.835333405E0,7.998766479E0,3.116219788E0,8.778356319E0
1.497212571E1,-2.020797729E0,7.850574646E0,2.946622467E0,8.625411857E0
1.498219371E1,-2.010918274E0,7.791896667E0,2.926863556E0,8.562942033E0
1.499226271E1,-1.948348389E0,7.893086243E0,2.956052856E0,8.650729470E0
1.500233071E1,-1.823507996E0,8.118667145E0,2.992427216E0,8.842655611E0
1.501239971E1,-1.650018768E0,8.344248047E0,3.066373444E0,9.041663757E0
1.502246771E1,-1.454674988E0,8.544082489E0,3.174897766E0,9.230243806E0
1.503253671E1,-1.234183502E0,8.722212067E0,3.325634308E0,9.415945826E0
1.504260471E1,-1.022823029E0,8.895102539E0,3.557352448E0,9.634509462E0
1.505267271E1,-7.746391296E-1,9.104067993E0,3.876638489E0,9.925343610E0
1.506274171E1,-5.420228577E-1,9.310638428E0,4.236490173E0,1.024351628E1
1.507280971E1,-3.911366272E-1,9.409432983E0,4.536915436E0,1.045342138E1
1.508287871E1,-3.400927734E-1,9.455088043E0,4.752018127E0,1.058754123E1
1.509294671E1,-4.114942932E-1,9.450298004E0,4.871469727E0,1.063995664E1
1.510301571E1,-5.188211060E-1,9.401349792E0,4.919220428E0,1.062324258E1
1.511308371E1,-5.545967102E-1,9.327702942E0,4.850812683E0,1.052824788E1
1.512315271E1,-6.001020813E-1,9.264085236E0,4.653223572E0,1.038440597E1
1.513322071E1,-6.080355835E-1,9.166188812E0,4.341272278E0,1.016048078E1
1.514328971E1,-6.165678406E-1,9.050479431E0,3.995491333E0,9.912380382E0
1.515335771E1,-6.303392029E-1,8.955277405E0,3.701053619E0,9.710412906E0
1.516342671E1,-6.448590088E-1,8.903485107E0,3.458108826E0,9.573212985E0
1.517349471E1,-6.360273743E-1,8.857680359E0,3.290906525E0,9.470644007E0
1.518356371E1,-6.132746887E-1,8.821306000E0,3.197949829E0,9.403107385E0
1.519363171E1,-6.072871399E-1,8.844956818E0,3.144810333E0,9.407012853E0
1.520370071E1,-5.766009521E-1,8.865164795E0,3.103645935E0,9.410432168E0
1.521376871E1,-5.170248413E-1,8.906628571E0,3.035986633E0,9.424041703E0
1.522383771E1,-4.131408691E-1,9.027427368E0,2.936293945E0,9.501944664E0
1.523390571E1,-2.520758057E-1,9.217532043E0,2.798580322E0,9.636311068E0
1.524397471E1,-9.684860229E-2,9.373507690E0,2.615361328E0,9.732016284E0
1.525404271E1,4.176315308E-2,9.544152832E0,2.440674591E0,9.851369950E0
1.526411171E1,1.901046753E-1,9.740095367E0,2.202669525E0,9.987860161E0
1.527417971E1,3.474275208E-1,9.858349457E0,1.964365082E0,1.005815540E1
1.528424871E1,4.926255798E-1,9.959688721E0,1.861079865E0,1.014404740E1
1.529431671E1,6.098318481E-1,1.007794281E1,1.860481110E0,1.026636333E1
1.530438471E1,5.920188904E-1,1.011012589E1,1.876348114E0,1.029979680E1
1.531445371E1,4.549040222E-1,1.004650818E1,1.893562317E0,1.023351565E1
1.532452171E1,2.324665833E-1,9.876312103E0,1.911824341E0,1.006233839E1
1.533459071E1,-4.595443726E-2,9.685458984E0,1.938618622E0,9.877675319E0
1.534465871E1,-4.065545654E-1,9.629625092E0,1.882635040E0,9.820350336E0
1.535472771E1,-6.827302551E-1,9.575437775E0,1.795366516E0,9.766190153E0
1.536479571E1,-7.156617737E-1,9.465266876E0,1.841470642E0,9.669253484E0
1.537486471E1,-7.306306458E-1,9.380243683E0,2.020198975E0,9.623097037E0
1.538493271E1,-8.553213501E-1,9.359287262E0,2.333946533E0,9.683756455E0
1.539500171E1,-9.458830261E-1,9.305549011E0,2.717748413E0,9.740333338E0
1.540506971E1,-9.505233765E-1,9.189989319E0,3.125799866E0,9.753462112E0
1.541513871E1,-9.340576172E-1,9.188193054E0,3.632047119E0,9.924067790E0
1.542520671E1,-9.051676941E-1,9.249266052E0,4.162094879E0,1.018289177E1
1.543527571E1,-9.592053223E-1,9.257798309E0,4.640050964E0,1.039985468E1
1.544534371E1,-8.898994446E-1,9.352102203E0,4.963677979E0,1.062505697E1
1.545541271E1,-7.298822021E-1,9.446555786E0,5.040617981E0,1.073210016E1
1.546548071E1,-4.975653076E-1,9.492210846E0,4.908143463E0,1.069764040E1
1.547554971E1,-3.032693481E-1,9.519753571E0,4.571493530E0,1.056485842E1
1.548561771E1,-1.227447510E-1,9.563911743E0,4.138294373E0,1.042156200E1
1.549568671E1,1.311273193E-1,9.626331940E0,3.766467590E0,1.033778212E1
1.550575471E1,4.897814941E-1,9.651629333E0,3.511847076E0,1.028235890E1
1.551582371E1,7.547305298E-1,9.687854004E0,3.368295593E0,1.028443234E1
1.552589171E1,8.515791321E-1,9.773176575E0,3.335663452E0,1.036179608E1
1.553596071E1,8.602610779E-1,9.798473969E0,3.306174774E0,1.037694237E1
1.554602871E1,8.222401428E-1,9.717043304E0,3.191812592E0,1.026083218E1
1.555609671E1,7.291337585E-1,9.574689331E0,2.965632935E0,1.004993983E1
1.556616571E1,6.477030945E-1,9.397308197E0,2.735711060E0,9.808824377E0
1.557623371E1,5.896238708E-1,9.237740021E0,2.565065918E0,9.605366217E0
1.558630271E1,6.075865173E-1,9.149573364E0,2.589315491E0,9.528295169E0
1.559637071E1,7.214996338E-1,9.077722778E0,2.717898102E0,9.503293253E0
1.560643971E1,8.155041504E-1,8.996142426E0,2.823578339E0,9.464048827E0
1.561650771E1,8.325686646E-1,8.867110748E0,2.855012970E0,9.352535627E0
1.562657671E1,8.196954346E-1,8.756640472E0,2.886597290E0,9.256516455E0
1.563664471E1,8.577163696E-1,8.656349030E0,2.920876007E0,9.176032505E0
1.564671371E1,8.619076538E-1,8.549920349E0,2.981649628E0,9.095837360E0
1.565678171E1,7.581733704E-1,8.466244354E0,3.028951263E0,9.023672538E0
1.566685071E1,4.596940613E-1,8.346343689E0,3.122806091E0,8.923266750E0
1.567691871E1,9.310638428E-2,8.170160065E0,3.294199677E0,8.809763663E0
1.568698771E1,-2.248324585E-1,8.019573212E0,3.516936493E0,8.759734381E0
1.569705571E1,-4.558021545E-1,7.888894958E0,3.725003815E0,8.736021560E0
1.570712471E1,-6.128256226E-1,7.728877716E0,3.877835999E0,8.668836025E0
1.571719271E1,-7.801776123E-1,7.646249542E0,3.938759308E0,8.636413263E0
1.572726171E1,-8.012837219E-1,7.721243591E0,3.826492767E0,8.654577118E0
1.573732971E1,-7.342231750E-1,7.811805267E0,3.557202759E0,8.614933353E0
1.574739871E1,-5.869294739E-1,7.978708191E0,3.229833527E0,8.627635552E0
1.575746671E1,-3.799099731E-1,8.211324463E0,2.890339508E0,8.713451870E0
1.576753571E1,-1.790277100E-1,8.436007233E0,2.599045258E0,8.829116898E0
1.577760371E1,-5.703140259E-2,8.682993622E0,2.264640656E0,8.973640739E0
1.578767171E1,-7.664062500E-2,8.944200439E0,1.888173523E0,9.141651631E0
1.579774071E1,-1.130149841E-1,9.176217957E0,1.513502655E0,9.300883757E0
1.580780871E1,-2.112107849E-1,9.385333099E0,1.167422333E0,9.460019148E0
1.581787771E1,-3.418890381E-1,9.589957581E0,9.276210022E-1,9.640780842E0
1.582794571E1,-3.724255371E-1,9.775421906E0,8.623567200E-1,9.820449752E0
1.583801471E1,-3.543132019E-1,1.002809647E1,1.034947815E0,1.008758512E1
1.584808271E1,-2.630030823E-1,1.033301239E1,1.418450317E0,1.043323138E1
1.585815171E1,-1.302291870E-1,1.060065582E1,1.956132202E0,1.078041357E1
1.586821971E1,-2.245330811E-2,1.071337143E1,2.597398682E0,1.102376122E1
1.587828871E1,-1.586700439E-2,1.069436096E1,3.127745819E0,1.114236968E1
1.588835671E1,-1.821711731E-1,1.053419403E1,3.503015442E0,1.110286213E1
1.589842558E1,-3.778143311E-1,1.017823425E1,3.540737000E0,1.078313566E1
1.590849358E1,-5.049000549E-1,9.845925293E0,3.305276642E0,1.039817400E1
1.591856258E1,-6.360273743E-1,9.666149139E0,2.883453827E0,1.010709038E1
1.592863058E1,-7.695497131E-1,9.722731476E0,2.424657898E0,1.005000896E1
1.593869958E1,-6.761439514E-1,9.831255798E0,2.290087738E0,1.011707779E1
1.594876758E1,-2.737806702E-1,9.986483002E0,2.691852264E0,1.034653890E1
1.595883658E1,1.284329224E-1,1.009036697E1,3.601660309E0,1.071466087E1
1.596890458E1,2.778222656E-1,1.006506958E1,4.702171783E0,1.111275080E1
1.597897358E1,1.607656860E-1,9.974657593E0,5.685177612E0,1.148219858E1
1.598904158E1,1.646575928E-2,9.832902374E0,6.370003510E0,1.171593722E1
1.599911058E1,-3.712280273E-2,9.643097076E0,6.640940094E0,1.170866280E1
1.600917858E1,-2.095642090E-2,9.574689331E0,6.569089508E0,1.161154821E1
1.601924658E1,-1.197509766E-3,9.544751587E0,5.987249451E0,1.126718422E1
1.602931558E1,-1.116677856E-1,9.483379211E0,5.026247864E0,1.073359765E1
1.603938358E1,-2.165995789E-1,9.477092285E0,4.212240601E0,1.037329092E1
1.604945258E1,-1.799258423E-1,9.447603607E0,3.686533813E0,1.014298372E1
1.605952058E1,-1.960922241E-1,9.529183960E0,3.398532715E0,1.011898333E1
1.606958958E1,-2.770738220E-1,9.701625366E0,3.349584503E0,1.026732784E1
1.607965758E1,-3.091072083E-1,9.786349182E0,3.439397736E0,1.037774708E1
1.608972658E1,-2.701881409E-1,9.730664978E0,3.577710114E0,1.037105839E1
1.609979458E1,-2.948867798E-1,9.690997467E0,3.711232452E0,1.038150454E1
1.610986358E1,-3.876937866E-1,9.699080658E0,3.911665649E0,1.046535237E1
1.611993158E1,-5.652246094E-1,9.528285828E0,4.048481140E0,1.036811985E1
1.613000058E1,-8.038284302E-1,9.292077026E0,4.064797211E0,1.017405583E1
1.614006858E1,-1.137783966E0,9.085356903E0,4.048032074E0,1.001123499E1
1.615013758E1,-1.484463043E0,8.793014832E0,4.061504059E0,9.798803783E0
1.616020558E1,-1.780397644E0,8.535400543E0,4.083208923E0,9.627848842E0
1.617027458E1,-2.017205200E0,8.407566376E0,4.292773132E0,9.653195862E0
1.618034258E1,-2.222578125E0,8.150850220E0,4.583618317E0,9.611751646E0
1.619041158E1,-2.243384857E0,8.077652435E0,4.705315247E0,9.613596416E0
1.620047958E1,-2.300565948E0,8.186925201E0,4.721481628E0,9.726805061E0
1.621054858E1,-2.270328827E0,8.185877380E0,4.603975983E0,9.662275939E0
1.622061658E1,-2.149530029E0,8.263416138E0,4.528981934E0,9.665205790E0
1.623068558E1,-1.995650024E0,8.449928284E0,4.467908936E0,9.764533644E0
1.624075358E1,-1.812131653E0,8.651409302E0,4.415517883E0,9.880663045E0
1.625082258E1,-1.549278259E0,8.819060669E0,4.431085510E0,9.990526163E0
1.626089058E1,-1.355281677E0,9.044342194E0,4.575535126E0,1.022606649E1
1.627095858E1,-1.124761047E0,9.332792358E0,4.918322296E0,1.060924101E1
1.628102758E1,-7.179071045E-1,9.634265442E0,5.471272430E0,1.110267009E1
1.629109558E1,-1.907034302E-1,9.878557434E0,6.015091553E0,1.156735022E1
1.630116458E1,1.718426514E-1,1.004800507E1,6.287824402E0,1.185447896E1
1.631123258E1,3.582051086E-1,1.017853363E1,6.361770630E0,1.200845466E1
1.632130158E1,5.906716919E-1,1.019829254E1,6.353986816E0,1.203026235E1
1.633136958E1,8.822653198E-1,1.009680359E1,6.273603973E0,1.191981299E1
1.634143858E1,1.047821045E0,9.864337006E0,5.974376221E0,1.157999330E1
1.635150658E1,9.610015869E-1,9.596394196E0,5.362598419E0,1.103502458E1
1.636157558E1,8.437953186E-1,9.321715393E0,4.590204620E0,1.042479481E1
1.637164358E1,7.653584290E-1,9.031319275E0,3.856580200E0,9.850061533E0
1.638171258E1,5.788462830E-1,8.760532379E0,3.257226562E0,9.364374804E0
1.639178058E1,3.650907898E-1,8.508007507E0,2.841840363E0,8.977501862E0
1.640184958E1,1.308279419E-1,8.303981781E0,2.563269653E0,8.691581023E0
1.641191758E1,-1.017883301E-1,8.159232788E0,2.479743347E0,8.528339089E0
1.642198658E1,-2.894979858E-1,8.034691772E0,2.544259186E0,8.432872332E0
1.643205458E1,-4.008663940E-1,7.941735077E0,2.706072693E0,8.399683287E0
1.644212358E1,-4.857398987E-1,7.937843170E0,2.909200287E0,8.468101544E0
1.645219158E1,-6.032455444E-1,7.967631226E0,3.104693756E0,8.572407821E0
1.646226058E1,-6.462062073E-1,8.016729126E0,3.351530457E0,8.713109935E0
1.647232858E1,-6.688092041E-1,8.109835510E0,3.593577118E0,8.895534512E0
1.648239658E1,-6.080355835E-1,8.227191467E0,3.792812805E0,9.079747556E0
1.649246558E1,-5.155279541E-1,8.336015167E0,3.910019073E0,9.221885225E0
1.650253358E1,-4.659809875E-1,8.420738983E0,3.918850708E0,9.299643766E0
1.651260258E1,-3.513194275E-1,8.578660583E0,3.950884094E0,9.451260650E0
1.652267058E1,-4.041595459E-2,8.783584442E0,4.038152618E0,9.667453939E0
1.653273958E1,4.108955383E-1,9.022188263E0,4.093687134E0,9.915996700E0
1.654280758E1,8.186476135E-1,9.232949982E0,3.952680359E0,1.007676691E1
1.655287658E1,1.077459412E0,9.418713684E0,3.659889221E0,1.016208027E1
1.656294458E1,1.225052490E0,9.565408630E0,3.376827850E0,1.021766912E1
1.657301358E1,1.403032379E0,9.632020111E0,3.179238739E0,1.023972022E1
1.658308158E1,1.518891449E0,9.643396454E0,2.958148499E0,1.020062591E1
1.659315058E1,1.437760162E0,9.665251007E0,2.647095337E0,1.012380092E1
1.660321858E1,1.328786774E0,9.686357117E0,2.362836456E0,1.005853790E1
1.661328758E1,1.227297821E0,9.677525482E0,2.208507385E0,1.000191303E1
1.662335558E1,1.143172760E0,9.726174316E0,2.265089722E0,1.005166366E1
1.663342458E1,1.089135132E0,9.887987823E0,2.370620270E0,1.022635610E1
1.664349258E1,1.076411591E0,9.948611755E0,2.320624237E0,1.027223611E1
1.665356158E1,1.091230774E0,9.880054321E0,2.181713104E0,1.017674457E1
1.666362958E1,1.024170227E0,9.820627899E0,2.110161896E0,1.009685299E1
1.667369858E1,9.072633362E-1,9.856702881E0,2.191742249E0,1.013811879E1
1.668376658E1,8.419990540E-1,9.962682495E0,2.482138367E0,1.030169965E1
1.669383458E1,9.548643494E-1,1.007090744E1,2.963387604E0,1.054118630E1
1.670390358E1,1.245110779E0,1.019200562E1,3.560645599E0,1.086763435E1
1.671397158E1,1.516197052E0,1.026684998E1,4.231999512E0,1.120789373E1
1.672404058E1,1.749112701E0,1.012090347E1,4.855453033E0,1.136078811E1
1.673410858E1,1.812281342E0,9.779912567E0,5.183121643E0,1.121587283E1
1.674417758E1,1.688339081E0,9.456734619E0,5.097200317E0,1.087482274E1
1.675424558E1,1.438059540E0,9.123976593E0,4.630171509E0,1.033215623E1
1.676431458E1,1.157692566E0,8.797954559E0,3.852538605E0,9.674001768E0
1.677438258E1,8.189469910E-1,8.537047119E0,2.898871765E0,9.052916944E0
1.678445158E1,6.007008362E-1,8.306077423E0,2.045047302E0,8.575195748E0
1.679451958E1,4.637356567E-1,8.087681580E0,1.374591522E0,8.216760064E0
1.680458858E1,4.239184570E-1,8.028853912E0,8.833131409E-1,8.088414190E0
1.681465658E1,7.319778442E-2,8.010292511E0,6.602769470E-1,8.037792587E0
1.682472558E1,-2.642005920E-1,8.180937653E0,6.559359741E-1,8.211442920E0
1.683479358E1,-3.240760803E-1,8.428073730E0,7.445516968E-1,8.467101590E0
1.684486258E1,-1.666035461E-1,8.588090973E0,9.145980835E-1,8.638260991E0
1.685493058E1,2.210902405E-1,8.990753632E0,1.318158875E0,9.089558547E0
1.686499958E1,7.017407227E-1,9.560169525E0,1.939965820E0,9.780222328E0
1.687506758E1,1.225202179E0,1.008842102E1,2.622696075E0,1.049551779E1
