"Time (s)","Linear Acceleration x (m/s^2)","Linear Acceleration y (m/s^2)","Linear Acceleration z (m/s^2)","Absolute acceleration (m/s^2)"
5.002916674E-3,6.190632860E-1,-2.736157787E-1,2.315782743E0,2.412665467E0
1.504291676E-2,6.963991815E-2,1.282313688E0,-2.253634588E-1,1.303827750E0
2.508291672E-2,-2.229178974E-1,2.274310781E0,-2.124803324E0,3.120412005E0
3.512291668E-2,-9.929107929E-1,2.724825298E0,-3.991691812E0,4.933978949E0
4.516291677E-2,-1.310497706E0,4.104232587E0,-5.839700811E0,7.257012810E0
5.520291673E-2,-3.884634629E-1,4.230907837E0,-6.629687127E0,7.874276881E0
6.524391670E-2,-1.452983069E-2,2.979138833E0,-5.869194167E0,6.582014849E0
7.528391667E-2,6.561458161E-1,1.532699064E0,-4.436926879E0,4.739832685E0
8.532391675E-2,1.266000834E0,1.055538200E0,-3.134933801E0,3.541853885E0
9.536391671E-2,9.746888955E-1,7.220738304E-1,-2.276798186E0,2.579771122E0
1.054039167E-1,1.073593836E-1,5.192485374E-1,-1.409749660E0,1.506167051E0
1.154449168E-1,-4.997281927E-1,6.948310679E-1,-7.694175661E-1,1.150878738E0
1.254849167E-1,-1.038721754E0,1.148821755E0,-3.425579596E-1,1.586215705E0
1.355249167E-1,-4.646333505E-1,2.335989550E0,-4.479528522E-1,2.423508425E0
1.455649167E-1,5.102221906E-1,2.458609756E0,-1.121963739E0,2.750252942E0
1.556049167E-1,1.244819149E0,1.279039832E0,-1.457759979E0,2.304469953E0
1.656459167E-1,1.662065787E0,1.322248417E-1,-1.451598183E0,2.210674868E0
1.756859167E-1,1.813507941E0,-1.199583773E0,-1.194960380E0,2.481076901E0
1.857259168E-1,8.567680974E-1,-3.204444332E0,-5.323398685E-1,3.359449476E0
1.957659167E-1,-2.110467340E-1,-4.308968166E0,1.354592875E0,4.521799336E0
2.058059167E-1,1.689591701E-1,-3.497631326E0,3.512523015E0,4.959817539E0
2.158459167E-1,-3.487802010E-1,-2.837547922E0,4.535755348E0,5.361567160E0
2.258869167E-1,-9.277113417E-1,-1.927465058E0,4.863102361E0,5.312770883E0
2.359269167E-1,-1.313092993E0,-7.621886533E-1,4.047957230E0,4.323320770E0
2.459669167E-1,-9.121542397E-1,5.453814983E-2,2.518884609E0,2.679511045E0
2.560069168E-1,-8.994512368E-1,-2.380290395E-1,6.105358529E-1,1.112845173E0
2.660469167E-1,-1.131873747E0,-3.366896939E-1,-9.786935073E-1,1.533733715E0
2.760879167E-1,-1.305510762E0,3.146135312E-1,-2.165171916E0,2.547804830E0
2.861279167E-1,-1.298970944E0,1.391982311E0,-2.477575784E0,3.124631504E0
2.961679167E-1,-9.607642630E-1,1.860528472E0,-2.336137485E0,3.137223695E0
3.062079167E-1,-4.632520189E-1,2.115094022E0,-2.489423413E0,3.299311153E0
3.162479167E-1,1.445445962E-1,2.113328163E0,-2.297032476E0,3.124645142E0
3.262879167E-1,6.079820449E-1,1.208520657E0,-2.331037543E0,2.695162402E0
3.363289167E-1,1.181202831E0,6.148861814E-1,-2.256411869E0,2.620061004E0
3.463689167E-1,9.863511671E-1,-2.958293509E-1,-1.779615287E0,2.056072518E0
3.564089168E-1,9.867943130E-1,-1.037300150E0,-1.413144554E0,2.011649111E0
3.664489167E-1,5.870015408E-1,-1.856428989E0,-7.790315580E-1,2.097090739E0
3.764889167E-1,6.665154328E-2,-2.369521578E0,-1.889235560E-1,2.377975409E0
3.865299167E-1,-9.233987278E-1,-2.760702644E0,1.959075069E-1,2.917623014E0
3.965699167E-1,-1.723133815E0,-2.682138285E0,1.007505662E0,3.343370094E0
4.066099167E-1,-2.173640292E0,-2.201054524E0,1.889137144E0,3.624664438E0
4.166499167E-1,-2.569818827E0,-1.599479529E0,2.598531872E0,3.989319674E0
4.266899168E-1,-3.010286951E0,-1.100492179E0,3.041429222E0,4.418506792E0
4.367309167E-1,-3.227508381E0,-5.220639718E-1,3.338294699E0,4.672640864E0
4.467709167E-1,-2.942583795E0,1.387292844E-1,3.373228304E0,4.478472329E0
4.568109167E-1,-2.201040199E0,6.981364989E-1,2.961449836E0,3.755283965E0
4.668509167E-1,-1.462868545E0,1.010115860E0,2.150639831E0,2.790263448E0
4.768909167E-1,-1.087885289E0,1.095089352E0,1.297943881E0,2.016773018E0
4.869309167E-1,-6.567849167E-1,1.209665542E0,5.601832862E-1,1.486089656E0
4.969719168E-1,3.134435765E-1,1.078028346E0,2.616020894E-1,1.152747866E0
5.070119167E-1,3.684474205E-1,9.976262069E-1,-1.579987105E-1,1.075162845E0
5.170519167E-1,4.139245057E-1,9.439382422E-1,-4.964379644E-1,1.144029525E0
5.270919167E-1,5.969088803E-1,1.050251732E0,-5.036544884E-1,1.308815020E0
5.371319167E-1,7.847121280E-1,1.478260902E0,-4.796459305E-1,1.741002193E0
5.471729167E-1,9.011952420E-1,1.861005020E0,-3.554475252E-1,2.098055169E0
5.572129167E-1,7.548337331E-1,2.203795114E0,-1.569556038E-1,2.334763785E0
5.672529167E-1,4.502657549E-1,2.401626300E0,1.616428780E-1,2.448811254E0
5.772929167E-1,-6.756340742E-2,2.630150691E0,1.535748533E-1,2.635496671E0
5.873329167E-1,-7.022494304E-1,2.978259412E0,2.113019284E-1,3.067218918E0
5.973739167E-1,-1.325885385E0,3.506423784E0,3.782131112E-1,3.767761267E0
6.074139167E-1,-1.695386437E0,4.231203121E0,7.018425373E-1,4.611940803E0
6.174539167E-1,-1.656506254E0,5.053313456E0,8.938813984E-1,5.392496064E0
6.274939167E-1,-1.533938674E0,5.816679153E0,7.582540619E-1,6.063140560E0
6.375339167E-1,-1.385216205E0,6.418418455E0,1.557674130E-1,6.568042546E0
6.475739167E-1,-1.554761193E0,7.290439453E0,-4.201785779E-1,7.466213219E0
6.576149167E-1,-1.294363777E0,7.791738208E0,-1.723657433E0,8.084402070E0
6.676549168E-1,1.444711405E-1,6.611218112E0,-3.116831406E0,7.310520833E0
6.776949167E-1,-4.133045912E-2,5.196536325E0,-4.446988767E0,6.839693493E0
6.877349167E-1,1.051207752E0,4.301057467E0,-5.502284893E0,7.062525902E0
6.977749167E-1,2.053838883E0,3.042579369E0,-5.267579995E0,6.420509511E0
7.078159167E-1,2.784597583E0,7.589416945E-1,-3.645571729E0,4.649749394E0
7.178559167E-1,3.613112081E0,-1.202163565E0,-1.402486249E0,4.057923585E0
7.278959167E-1,4.108066022E0,-2.792880456E0,-3.069615725E-1,4.977008448E0
7.379359168E-1,3.798108921E0,-4.304924816E0,3.189188361E-2,5.740995222E0
7.479759167E-1,2.550520384E0,-5.711651466E0,-4.642583978E-1,6.272451878E0
7.580169167E-1,7.527319515E-1,-7.606808903E0,-1.059946855E0,7.717100130E0
7.680569167E-1,-1.195027403E0,-9.845772096E0,-1.107249806E0,9.979645324E0
7.780969167E-1,-2.961490182E0,-1.230189152E1,-6.173607230E-1,1.266838953E1
7.881369167E-1,-4.454303342E0,-1.464455158E1,2.882534060E-1,1.530969625E1
7.981769167E-1,-5.594119508E0,-1.636170457E1,9.632621205E-1,1.731841284E1
8.082169167E-1,-5.914807127E0,-1.711395003E1,1.228075501E0,1.814884014E1
8.182579167E-1,-5.677724751E0,-1.731090413E1,1.453240958E0,1.827610105E1
8.282979167E-1,-4.932056236E0,-1.706246296E1,1.657135707E0,1.783813106E1
8.383379168E-1,-3.225013959E0,-1.638982266E1,1.429954276E0,1.676519523E1
8.483779167E-1,-6.593110601E-1,-1.497966135E1,1.781078406E0,1.509957568E1
8.584179167E-1,2.349990708E0,-1.255461403E1,2.872173378E0,1.309160684E1
8.684589167E-1,5.285260806E0,-9.531524016E0,3.637177466E0,1.148969067E1
8.784989167E-1,6.846086732E0,-6.245642588E0,4.217331187E0,1.018149484E1
8.885389167E-1,7.475452958E0,-3.321247142E0,4.491538703E0,9.332041547E0
8.985789167E-1,7.587907779E0,-8.184166485E-1,4.387707356E0,8.803302000E0
9.086189168E-1,6.093778703E0,1.604049713E0,3.469046627E0,7.193149440E0
9.186589167E-1,4.320772232E0,4.081108603E0,1.621942778E0,6.160780672E0
9.286999167E-1,2.935533223E0,6.348102763E0,-4.120789417E-1,7.006109694E0
9.387399167E-1,9.887422398E-1,7.933933722E0,-1.478185472E0,8.130802409E0
9.487799167E-1,-8.618494740E-1,9.066486769E0,-1.631375506E0,9.252316082E0
9.588197917E-1,-1.923716993E0,1.006901411E1,-2.076049240E0,1.045924054E1
9.688597918E-1,-2.060162939E0,1.129189612E1,-2.687078013E0,1.178862068E1
9.789007917E-1,-2.757583739E0,1.222697466E1,-3.529009824E0,1.302140882E1
9.889407917E-1,-3.372542134E0,1.306658805E1,-4.466830709E0,1.421486336E1
9.989807917E-1,-3.697739710E0,1.358146345E1,-4.880390823E0,1.489790734E1
1.009020792E0,-4.357134020E0,1.447035717E1,-5.561847555E0,1.610310535E1
1.019060792E0,-4.524970744E0,1.536566179E1,-5.722231418E0,1.700949308E1
1.029101792E0,-4.083467955E0,1.581650082E1,-5.815980996E0,1.733960910E1
1.039141792E0,-2.885692433E0,1.424675614E1,-5.714095017E0,1.561884001E1
1.049181792E0,-1.080960359E0,1.193944134E1,-4.956097063E0,1.297234107E1
1.059221792E0,-2.186796527E-1,9.681443117E0,-4.030617896E0,1.048923459E1
1.069261792E0,3.913815890E-1,8.303683573E0,-2.627156332E0,8.718158683E0
1.079302792E0,7.022729655E-1,7.868478236E0,-1.068109714E0,7.971636935E0
1.089342792E0,1.239267218E0,7.816694124E0,4.524353278E-1,7.927243405E0
1.099382792E0,1.199886147E0,7.965839054E0,1.851582817E0,8.265753295E0
1.109422792E0,5.395025981E-1,7.776966972E0,2.696655167E0,8.248892497E0
1.119462792E0,2.029363535E-1,7.427914510E0,2.545001782E0,7.854433856E0
1.129502792E0,2.759129304E-1,7.040063433E0,2.364559046E0,7.431672797E0
1.139543792E0,4.280758274E-1,6.789181629E0,2.036740894E0,7.101024544E0
1.149583792E0,1.934802181E-1,6.353828942E0,1.189295597E0,6.467070498E0
1.159623792E0,-1.628052862E-1,4.415432514E0,-3.882457638E-1,4.435457656E0
1.169663792E0,-2.400959206E-1,9.570015067E-1,-2.018840082E0,2.247045440E0
1.179703792E0,3.875235596E-1,-5.123220427E0,-3.832619480E0,6.409877856E0
1.189744792E0,3.021681420E0,-1.698278997E1,-7.645902218E0,1.886810892E1
1.199784792E0,7.944116063E0,-3.700686648E1,-1.281889999E1,3.996174851E1
1.209824792E0,5.891344589E0,-5.186815212E1,-1.226888750E1,5.362405007E1
1.219864792E0,-3.860120105E0,-3.992457330E1,-6.059815736E0,4.056591484E1
1.229904792E0,-5.477987958E0,-1.897196244E1,-8.711833844E-1,1.976620023E1
1.239945792E0,-5.713688051E0,-1.724725368E1,6.546734433E0,1.931252760E1
1.249985792E0,-2.591913116E0,-1.710898691E1,1.226868752E1,2.121216963E1
1.260025792E0,4.982826148E-1,-1.576395190E1,9.437182699E0,1.837963227E1
1.270065792E0,1.410418874E0,-1.524132308E1,4.942384758E0,1.608460064E1
1.280105792E0,1.354421844E0,-1.303360390E1,6.919828892E-1,1.312204746E1
1.290145792E0,1.398632788E-1,-1.006782479E1,-1.987397264E0,1.026306024E1
1.300186792E0,-1.040398078E0,-7.066695161E0,-2.363079847E0,7.523613163E0
1.310226792E0,-5.043692008E-1,-3.838110015E0,-9.880927603E-1,3.995222658E0
1.320266792E0,1.977872588E-1,-8.007884628E-1,1.280481610E0,1.523159583E0
1.330306792E0,9.549694531E-2,2.108469712E0,2.613029459E0,3.358971143E0
1.340346792E0,-3.320980947E-1,5.083724824E0,3.081049955E0,5.953773262E0
1.350387792E0,-7.314595617E-1,7.883529553E0,2.266642742E0,8.235456310E0
1.360427792E0,-1.437959552E0,9.874108872E0,5.524110941E-1,9.993543501E0
1.370467792E0,-1.089836944E0,1.192048232E1,-1.119664614E0,1.202244951E1
1.380507792E0,-1.138106001E0,1.272919435E1,-1.711359569E0,1.289404613E1
1.390547792E0,-2.053276089E0,1.371493200E1,-2.419978956E0,1.407734352E1
1.400588792E0,-2.132969984E0,1.537624758E1,-3.792096521E0,1.597994201E1
1.410628792E0,-2.407799206E0,1.597771675E1,-3.808963984E0,1.660099804E1
1.420668792E0,-2.495663561E0,1.624947311E1,-3.547825579E0,1.681846543E1
1.430708792E0,-2.403164703E0,1.619490572E1,-3.926458520E0,1.683648563E1
1.440748792E0,-2.393677303E0,1.467540733E1,-4.941818748E0,1.566904094E1
1.450788792E0,-1.888341046E0,1.164460367E1,-5.884008088E0,1.318272270E1
1.460829792E0,-6.060848793E-1,9.974910192E0,-5.986485220E0,1.164921360E1
1.470869792E0,1.941187888E-1,9.367985580E0,-5.293822299E0,1.076203468E1
1.480909792E0,-6.776323602E-2,8.596114522E0,-4.390367839E0,9.652621742E0
1.490949792E0,-1.718455750E-1,8.513746549E0,-3.042318583E0,9.042627581E0
1.500989792E0,-4.953560834E-1,8.489428564E0,-2.018909079E0,8.740238490E0
1.511030792E0,-8.838828059E-1,8.468880864E0,-7.290144753E-1,8.546031477E0
1.521070792E0,-1.012691631E0,8.779720602E0,4.493117452E-1,8.849345695E0
1.531110792E0,-1.284665146E0,9.173648105E0,1.114827797E0,9.330006705E0
1.541150792E0,-1.218280172E0,9.449744273E0,1.522603261E0,9.648844184E0
1.551190792E0,-6.209099098E-1,9.382624669E0,2.121555780E0,9.639511073E0
1.561231792E0,2.376052625E-2,9.011863834E0,2.629630873E0,9.387716062E0
1.571271792E0,3.224625777E-1,8.201692929E0,2.516396034E0,8.585103262E0
1.581311792E0,2.988880295E-1,6.917970062E0,1.257150342E0,7.037618263E0
1.591351792E0,-2.764258409E-1,4.578207303E0,-6.561625537E-1,4.633243211E0
1.601391792E0,-9.759809840E-1,7.031311905E-1,-2.528098651E0,2.799681257E0
1.611432792E0,-1.435580905E0,-5.599741021E0,-4.470147250E0,7.307544627E0
1.621472792E0,1.968711281E-1,-1.689514371E1,-6.093170008E0,1.796138525E1
1.631512792E0,6.260452416E0,-3.344520814E1,-6.289537636E0,3.460250708E1
1.641552792E0,8.869064888E0,-3.799791106E1,-2.439826599E0,3.909545128E1
1.651592792E0,1.778387664E0,-2.108078182E1,-2.303284027E-1,2.115691556E1
1.661633792E0,-2.795572807E0,-1.219082951E1,-3.714029760E0,1.304705210E1
1.671673792E0,-4.790496973E-1,-1.270069151E1,-3.905840946E0,1.329633961E1
1.681713792E0,8.233114258E-1,-1.794399737E1,-3.009248486E0,1.821319467E1
1.691753792E0,5.933837767E-1,-2.356751610E1,-3.586295873E0,2.384620384E1
1.701793792E0,-1.208186051E-1,-2.556086232E1,-4.179708154E0,2.590062238E1
1.711833792E0,-2.266096101E-1,-2.212749657E1,-2.186746387E0,2.223644118E1
1.721874792E0,-4.995861053E-2,-1.630757104E1,2.479675519E-1,1.630953271E1
1.731914792E0,-3.336847367E-1,-1.239184743E1,1.934406580E0,1.254636031E1
1.741954792E0,-1.212502831E0,-9.621107453E0,2.881079857E0,1.011615010E1
1.751994792E0,-1.443321449E0,-7.352958468E0,2.498329307E0,7.898786258E0
1.762034792E0,-1.245931436E0,-5.263593948E0,2.379717514E0,5.909384219E0
1.772075792E0,4.251313157E-1,-2.405472014E0,2.561834747E0,3.539778173E0
1.782115792E0,1.147086375E0,6.236529118E-1,1.317229167E0,1.854681316E0
1.792155792E0,9.082868182E-1,3.300083145E0,-5.119096971E-1,3.460864812E0
1.802195792E0,3.498290453E-1,5.682902461E0,-1.713864516E0,5.946014827E0
1.812235792E0,-2.946243129E-1,8.149855024E0,-3.098866421E0,8.724099580E0
1.822276792E0,-2.063527281E0,1.013570745E1,-4.312039708E0,1.120644443E1
1.832316792E0,-4.033563139E0,1.118206085E1,-4.123574592E0,1.258220902E1
1.842356792E0,-4.544967052E0,1.242420943E1,-3.722573127E0,1.374318944E1
1.852396792E0,-4.055665614E0,1.349300911E1,-2.489775415E0,1.430764481E1
1.862436792E0,-3.377132783E0,1.458417206E1,-1.030316235E0,1.500548740E1
1.872477792E0,-3.361984109E0,1.520345067E1,-2.622419575E-2,1.557075904E1
1.882517792E0,-3.836711361E0,1.478844103E1,4.022627091E-1,1.528332940E1
1.892557792E0,-3.700523862E0,1.352236213E1,4.483791143E-1,1.402673156E1
1.902597792E0,-2.936602386E0,1.185003039E1,4.866099644E-1,1.221816857E1
1.912637792E0,-1.985698063E0,1.033542963E1,4.099015117E-1,1.053243190E1
1.922678792E0,-9.789665723E-1,9.407864175E0,-2.076954389E-1,9.460941882E0
1.932718792E0,-1.877891779E-2,8.938414620E0,-1.074130007E0,9.002742017E0
1.942758792E0,8.511997940E-1,8.698491082E0,-1.936469770E0,8.951994379E0
1.952798792E0,1.447917361E0,8.584810685E0,-2.590042884E0,9.083158114E0
1.962839292E0,1.804990448E0,8.815209108E0,-2.896860323E0,9.452920282E0
1.972879292E0,1.616626343E0,9.310367117E0,-2.807923003E0,9.858034702E0
1.982920292E0,7.258717431E-1,9.685549616E0,-2.578978198E0,1.004927309E1
1.992960292E0,-9.098457590E-2,9.909433072E0,-2.046387484E0,1.011893491E1
2.003000292E0,-7.763704171E-1,1.014305506E1,-1.073948743E0,1.022925623E1
2.013040292E0,-1.979379270E0,1.000410183E1,-4.816281732E-1,1.020940554E1
2.023080292E0,-2.489734485E0,9.403209207E0,-1.481509395E-1,9.728364194E0
2.033121292E0,-2.196300592E0,8.563909813E0,-3.495114684E-2,8.841126011E0
2.043161292E0,-1.803575422E0,7.625213599E0,-1.024561552E-1,7.836278709E0
2.053201292E0,-1.655814236E0,6.349708409E0,-3.540721504E-1,6.571596819E0
2.063241292E0,-1.646659251E0,4.245335841E0,-7.919095389E-1,4.621848527E0
2.073281292E0,-1.826590209E0,5.542318439E-1,-1.509725354E0,2.433695826E0
2.083322292E0,-1.503364168E0,-6.642918792E0,-2.637649745E0,7.303812023E0
2.093362292E0,6.852131291E-1,-2.226857585E1,-6.234966742E0,2.313512044E1
2.103402292E0,5.434118637E0,-4.605433577E1,-1.083409772E1,4.762256988E1
2.113442292E0,7.461378710E0,-4.991216025E1,-6.877997911E0,5.093331688E1
2.123482292E0,6.206866193E0,-2.757174083E1,1.397521086E-1,2.826208788E1
2.133523292E0,3.605544029E0,-1.576086691E1,9.538972199E-1,1.619613513E1
2.143563292E0,-1.775026099E0,-1.668788447E1,2.024553104E0,1.690369845E1
2.153603292E0,-3.091750652E0,-2.202907156E1,2.544911150E0,2.239007567E1
2.163643292E0,-3.926655279E-1,-2.310518143E1,3.665237962E0,2.339738371E1
2.173683292E0,1.311568185E0,-1.873759669E1,4.707975730E0,1.936447201E1
2.183724292E0,3.058834044E0,-1.272373071E1,4.735774562E0,1.391680098E1
2.193764292E0,2.927406470E0,-7.996631076E0,3.697743218E0,9.283809677E0
2.203804292E0,2.891903054E0,-4.797079110E0,3.569131371E0,6.641819781E0
2.213844292E0,3.099425415E0,-2.084845206E0,3.943901349E0,5.432069154E0
2.223884292E0,2.776765822E0,6.091214114E-1,4.171104269E0,5.047729009E0
2.233925292E0,1.769553690E0,3.430495350E0,3.206484425E0,5.018083397E0
2.243965292E0,9.558032660E-1,5.583792155E0,1.666014411E0,5.904904634E0
2.254005292E0,3.925729957E-1,7.685037047E0,-4.090244293E-2,7.695166079E0
2.264045292E0,-9.581803054E-2,9.431282274E0,-1.556408354E0,9.559323898E0
2.274085292E0,-1.154560943E0,1.062091759E1,-2.739033448E0,1.102901654E1
2.284126292E0,-2.402480140E0,1.171244658E1,-3.161995300E0,1.236735743E1
2.294166292E0,-3.085163471E0,1.250894143E1,-3.339713818E0,1.330960321E1
2.304206292E0,-3.155786142E0,1.357533206E1,-4.055459792E0,1.451534984E1
2.314246292E0,-3.546416108E0,1.475316595E1,-4.507441961E0,1.582877145E1
2.324286292E0,-3.329130943E0,1.540411775E1,-4.730691578E0,1.645446442E1
2.334327292E0,-3.188405419E0,1.567127938E1,-5.054684043E0,1.677214229E1
2.344367292E0,-3.570233279E0,1.494747243E1,-5.134870420E0,1.620309822E1
2.354407292E0,-3.933469039E0,1.315651004E1,-4.965179543E0,1.460201845E1
2.364447292E0,-3.517476191E0,1.058662601E1,-4.975450763E0,1.221492527E1
2.374487292E0,-2.647718650E0,8.607196750E0,-4.311697061E0,9.984236650E0
2.384527292E0,-1.745371360E0,7.518590791E0,-3.179020053E0,8.347556359E0
2.394568292E0,-1.271088204E0,6.898512867E0,-2.159367385E0,7.339483122E0
2.404608292E0,-1.281599159E0,6.679938099E0,-1.220933127E0,6.910480961E0
2.414648292E0,-1.077478927E0,7.050556846E0,-1.773483896E-1,7.134617378E0
2.424688292E0,-7.087530691E-1,7.620400171E0,1.080301158E0,7.729157799E0
2.434728292E0,-2.798090764E-1,8.409884212E0,2.207942544E0,8.699393994E0
2.444769292E0,2.049218852E-1,9.042637146E0,3.002477410E0,9.530275448E0
2.454809292E0,8.200423937E-1,9.340435839E0,3.675627587E0,1.007106992E1
2.464849292E0,1.417713422E0,9.238040568E0,3.831610250E0,1.010111588E1
2.474889292E0,2.218116261E0,8.966551421E0,2.689120445E0,9.620314595E0
2.484929292E0,2.834508831E0,8.260025337E0,1.497312884E0,8.860271145E0
2.494970292E0,3.035783150E0,6.613554075E0,2.287828739E-1,7.280619372E0
2.505010292E0,3.123156340E0,4.396173540E0,-9.752196765E-1,5.480100431E0
2.515050292E0,3.528820374E0,4.693355352E-1,-1.653318937E0,3.925087589E0
2.525090292E0,4.826899325E0,-9.188090728E0,-3.066772224E0,1.082243319E1
2.535130292E0,8.885676243E0,-3.287703888E1,-9.535137595E0,3.536628022E1
2.545171292E0,9.616948328E0,-5.434550045E1,-1.271245494E1,5.663502119E1
2.555211292E0,3.277447404E0,-4.003351394E1,-6.079125581E0,4.062486514E1
2.565251292E0,8.154051863E-1,-1.988591266E1,-3.136203232E0,2.014820534E1
2.575291292E0,-3.938001801E0,-1.574953149E1,-1.145513985E0,1.627475968E1
2.585331292E0,-4.131600188E0,-2.064050051E1,9.128126362E-1,2.106973205E1
2.595372292E0,-3.265374365E0,-2.201971134E1,2.648843654E0,2.241755406E1
2.605412292E0,-3.300262362E0,-2.014468235E1,3.521763077E0,2.071479602E1
2.615452292E0,-3.997525726E-1,-1.585149758E1,4.628632522E0,1.651829339E1
2.625492292E0,2.584921308E0,-1.110024076E1,4.626617571E0,1.230051841E1
2.635532292E0,4.440334051E0,-7.027614711E0,4.450015286E0,9.429028108E0
2.645573292E0,5.130032433E0,-3.780603234E0,4.004341679E0,7.526283669E0
2.655613292E0,5.738842773E0,-9.544439346E-1,3.496519185E0,6.787556704E0
2.665653292E0,6.166558996E0,1.649307162E0,2.959167084E0,7.035860559E0
2.675693292E0,5.615609195E0,3.677327957E0,1.831574814E0,6.957907288E0
2.685733292E0,4.004579660E0,5.521787111E0,6.052920699E-1,6.847858764E0
2.695774292E0,2.556223174E0,7.393345771E0,-9.445521998E-1,7.879595006E0
2.705814292E0,1.216643171E0,8.229306990E0,-1.669511046E0,8.484632065E0
2.715854292E0,2.952112272E-1,1.043490363E1,-3.921897107E0,1.115148602E1
2.725894292E0,-6.201337650E-1,1.218421865E1,-6.028697439E0,1.360826744E1
2.735935292E0,-2.875367128E0,1.232836771E1,-6.201636443E0,1.409669043E1
2.745975292E0,-5.414444511E0,1.316209647E1,-7.205414506E0,1.595227228E1
2.756015292E0,-7.310249820E0,1.415853452E1,-7.484668754E0,1.760466184E1
2.766055292E0,-8.507278944E0,1.490012168E1,-7.045979061E0,1.854813311E1
2.776095292E0,-8.760946362E0,1.552301971E1,-5.350836160E0,1.861047473E1
2.786136292E0,-8.571365013E0,1.536567114E1,-2.905522388E0,1.783295287E1
2.796176292E0,-8.841602855E0,1.388658286E1,-1.177652621E0,1.650448394E1
2.806216292E0,-8.328207965E0,1.047339819E1,5.749497350E-1,1.339334479E1
2.816256292E0,-6.587225232E0,8.573120347E0,2.013785748E0,1.099751162E1
2.826296292E0,-5.154942741E0,7.866145781E0,3.338549638E0,9.979759406E0
2.836337292E0,-3.869056404E0,7.264588913E0,3.979361204E0,9.142164138E0
2.846377292E0,-2.078352458E0,7.068210175E0,4.097927535E0,8.430430244E0
2.856417292E0,-7.522250710E-1,6.994060464E0,3.338439710E0,7.786392234E0
2.866457292E0,-7.435633712E-2,7.289052494E0,2.248166710E0,7.628241519E0
2.876497292E0,8.212853656E-1,8.221955870E0,1.507922072E0,8.399339079E0
2.886538292E0,1.497059115E0,8.711692926E0,9.526728129E-1,8.890577322E0
2.896578292E0,2.105357531E0,8.564962896E0,5.579050648E-1,8.837554968E0
2.906618292E0,1.937621379E0,7.691641477E0,1.214653802E-1,7.932873317E0
2.916658292E0,1.916371428E0,6.572180346E0,-5.696567988E-1,6.869537308E0
2.926698292E0,2.339206396E0,5.011229290E0,-1.140937954E0,5.646772970E0
2.936739292E0,2.931599508E0,2.759677627E0,-1.778284460E0,4.401407946E0
2.946779292E0,3.308165166E0,-5.337695128E-1,-2.398111539E0,4.120655969E0
2.956819292E0,4.543219904E0,-7.127023224E0,-3.503551047E0,9.149326591E0
2.966859167E0,8.528531819E0,-2.164195548E1,-6.897007209E0,2.426270390E1
2.976899167E0,1.317138301E1,-4.027503669E1,-1.168269945E1,4.395508364E1
2.986940167E0,9.394233731E0,-4.384296558E1,-1.071559571E1,4.610077277E1
2.996980167E0,2.405293674E0,-3.014380470E1,-4.756592989E0,3.061142885E1
3.007020167E0,1.792543919E0,-2.261988592E1,-2.365624116E0,2.281378159E1
3.017060167E0,3.236050140E-2,-2.321084764E1,-3.215185082E-1,2.321309694E1
3.027100167E0,-2.667577549E0,-2.469052298E1,8.459612735E-1,2.484861255E1
3.037141167E0,-3.128512974E0,-2.402808490E1,3.008540972E0,2.441695674E1
3.047181167E0,-1.022084087E0,-1.967394407E1,6.331154609E0,2.069280672E1
3.057221167E0,1.208900800E0,-1.278575797E1,6.128152145E0,1.422994367E1
3.067261167E0,2.369195157E0,-8.116217746E0,5.034895896E0,9.840541290E0
3.077301167E0,2.301474313E0,-4.294413861E0,5.089107771E0,7.045409309E0
3.087342167E0,1.753966767E0,-1.281993846E0,5.810558288E0,6.203426091E0
3.097382167E0,1.902334456E0,1.722381570E0,6.027865380E0,6.551384258E0
3.107422167E0,2.287457368E0,4.926756320E0,5.842249027E0,7.977296707E0
3.117462167E0,1.610568481E0,7.245267958E0,5.137874719E0,9.026937202E0
3.127502167E0,-6.660899565E-2,8.781109900E0,3.727438595E0,9.539713115E0
3.137543167E0,-2.132215254E0,1.021894958E1,1.189528316E0,1.050658128E1
3.147583167E0,-4.052252010E0,1.145579708E1,-2.155896478E0,1.234114754E1
3.157623167E0,-5.663051164E0,1.147112380E1,-4.174724865E0,1.345678853E1
3.167663167E0,-6.708139805E0,1.175425885E1,-5.450489672E0,1.459005066E1
3.177704167E0,-6.854962805E0,1.296938159E1,-6.594863450E0,1.608376815E1
3.187744167E0,-5.964116696E0,1.448425250E1,-5.669739209E0,1.665863743E1
3.197784167E0,-4.971223226E0,1.547815988E1,-4.269282528E0,1.680813097E1
3.207824167E0,-4.744280799E0,1.571470548E1,-3.667366056E0,1.681992100E1
3.217864167E0,-4.427057363E0,1.541691848E1,-3.357309260E0,1.638754825E1
3.227905167E0,-3.876080080E0,1.355465046E1,-3.104853385E0,1.443581173E1
3.237945167E0,-2.999999360E0,1.004497855E1,-3.228988604E0,1.096941008E1
3.247985167E0,-1.465755023E0,8.361714849E0,-3.256794453E0,9.092492679E0
3.258025167E0,-4.328276403E-1,7.371454380E0,-3.409619620E0,8.133337900E0
3.268065167E0,5.367532007E-2,7.229168819E0,-3.467330469E0,8.017864020E0
3.278106167E0,2.835217660E-1,7.874272242E0,-3.360211233E0,8.565953972E0
3.288146167E0,1.213513595E-1,8.725874178E0,-3.205331939E0,9.296760681E0
3.298186167E0,-2.083492307E-1,9.600359192E0,-2.757455100E0,9.990688898E0
3.308226167E0,-5.239475792E-1,1.020387079E1,-2.031771199E0,1.041736983E1
3.318266167E0,-1.057738654E0,1.019239153E1,-1.396301064E0,1.034182348E1
3.328307167E0,-1.478502976E0,9.748221243E0,-9.124772984E-1,9.901838378E0
3.338347167E0,-1.399898564E0,9.258560786E0,-4.561693962E-1,9.374900231E0
3.348387167E0,-1.003826960E0,8.894331876E0,-2.561020156E-2,8.950835937E0
3.358427167E0,-5.486893413E-1,8.227663338E0,4.369372827E-1,8.257506777E0
3.368467167E0,-3.557526402E-1,7.088921598E0,7.108115083E-1,7.133345804E0
3.378508167E0,-5.642183036E-1,5.489961886E0,4.903942823E-1,5.540623643E0
3.388548167E0,-4.747619706E-1,2.877471541E0,-2.926121946E-1,2.931017450E0
3.398588167E0,4.392874248E-2,-1.835621672E0,-1.613887653E0,2.444600175E0
3.408628167E0,2.697400687E0,-1.393752965E1,-4.726037779E0,1.496215681E1
3.418669167E0,8.346271183E0,-4.106997268E1,-1.189538490E1,4.356492948E1
3.428709167E0,9.917237935E0,-6.448826315E1,-1.519027923E1,6.699128507E1
3.438749167E0,4.962058300E0,-4.527188476E1,-5.218980278E0,4.584106595E1
3.448789167E0,4.550569269E0,-2.021784739E1,6.079686329E-2,2.072372385E1
3.458829167E0,2.442101019E0,-1.418612987E1,9.506635635E-1,1.442615331E1
3.468870167E0,-2.545413134E0,-1.914381445E1,7.884530597E0,2.085978386E1
3.478910167E0,-4.015694925E0,-2.237884732E1,1.211083609E1,2.576064759E1
3.488950167E0,-1.904419427E0,-2.068589596E1,1.093809747E1,2.347711825E1
3.498990167E0,9.387583400E-1,-1.450918269E1,8.523669274E0,1.685380038E1
3.509030167E0,2.362667472E0,-8.347616628E0,5.445959834E0,1.024321138E1
3.519071167E0,1.632776937E0,-4.015680014E0,3.106991712E0,5.333389542E0
3.529111167E0,1.534600871E0,-1.071745512E0,1.811712846E0,2.604984014E0
3.539151167E0,1.539144157E0,1.244234281E0,1.064409815E0,2.247232061E0
3.549191167E0,1.936704243E0,3.581758726E0,6.303276546E-1,4.120331522E0
3.559232167E0,2.185761716E0,5.828743713E0,2.406492499E-1,6.229744748E0
3.569272167E0,1.335504347E0,7.803252545E0,-6.253632224E-1,7.941372759E0
3.579312167E0,1.159122795E-1,9.361233800E0,-2.159635187E0,9.607817549E0
3.589352167E0,-1.534856102E0,9.535737519E0,-2.808045795E0,1.005838926E1
3.599392167E0,-2.933357474E0,1.011881836E1,-3.786192003E0,1.119510254E1
3.609433167E0,-3.252421613E0,1.111006759E1,-3.904543156E0,1.221709071E1
3.619473167E0,-3.685104754E0,1.191923336E1,-3.199807490E0,1.287970842E1
3.629513167E0,-3.771891468E0,1.281746625E1,-2.885097479E0,1.366888415E1
3.639553167E0,-3.517679966E0,1.387012412E1,-3.132890199E0,1.464818816E1
3.649593167E0,-3.181019801E0,1.474712928E1,-3.176602814E0,1.541711758E1
3.659634167E0,-2.879263127E0,1.510899475E1,-3.321811398E0,1.573551109E1
3.669674167E0,-2.700543273E0,1.513131708E1,-3.951565295E0,1.587024129E1
3.679714167E0,-2.467073016E0,1.445102628E1,-5.194299765E0,1.555311415E1
3.689754167E0,-2.838771451E0,1.182561710E1,-6.267165020E0,1.368141807E1
3.699795167E0,-2.651671368E0,1.025237929E1,-6.550463203E0,1.245195608E1
3.709835167E0,-2.178681469E0,9.392649136E0,-6.018209873E0,1.136606180E1
3.719875167E0,-1.479252151E0,8.586340317E0,-3.976860934E0,9.577517938E0
3.729915167E0,-1.091692704E0,8.298065568E0,-1.958958161E0,8.595766529E0
3.739955167E0,-1.197318269E0,8.383034967E0,-1.186440986E-1,8.468938701E0
3.749996167E0,-1.059278664E0,8.487082661E0,1.476071704E0,8.679368126E0
3.760036167E0,-6.666854954E-1,8.683993496E0,2.519050670E0,9.066522424E0
3.770076167E0,-1.395221303E-1,8.793501905E0,3.046350238E0,9.307276290E0
3.780116167E0,3.821952112E-1,8.623450255E0,3.469986860E0,9.303266969E0
3.790156167E0,1.369913750E0,8.442176630E0,3.466224761E0,9.228311006E0
3.800197167E0,2.018523894E0,7.838270935E0,2.904549412E0,8.599380050E0
3.810237167E0,1.914613317E0,6.825350166E0,1.863122882E0,7.329554960E0
3.820277167E0,1.739057391E0,5.017291684E0,7.008952153E-1,5.356191795E0
3.830317167E0,1.991252041E0,2.247981353E0,-4.032427025E-1,3.030034576E0
3.840358167E0,3.296651706E0,-5.481146039E0,-1.272824242E0,6.521576184E0
3.850398167E0,9.107823660E0,-3.553568597E1,-7.710133882E0,3.748577855E1
3.860438167E0,1.668485328E1,-7.061003599E1,-1.805798300E1,7.476798955E1
3.870478167E0,9.287208635E0,-5.074668890E1,-1.053078744E1,5.265335852E1
3.880518167E0,1.909796526E0,-2.030222272E1,-3.090893158E0,2.062477128E1
3.890559167E0,-3.721622955E0,-1.380415115E1,-4.005178269E-1,1.430263895E1
3.900599167E0,-7.824874379E0,-1.650571447E1,2.252082152E0,1.840486738E1
3.910639167E0,-8.858866759E0,-2.073537744E1,2.314968810E0,2.266703506E1
3.920679167E0,-6.551154928E0,-2.066291874E1,3.730476809E0,2.199523355E1
3.930720167E0,-3.439881300E0,-1.595591949E1,4.401413522E0,1.690551955E1
3.940760167E0,-3.172330473E-1,-1.083021751E1,2.391498192E0,1.109565283E1
3.950800167E0,3.570151710E0,-6.985951545E0,7.990736937E-1,7.885938181E0
3.960840583E0,4.371978931E0,-4.004314781E0,1.756668035E-1,5.931238949E0
3.970880583E0,5.136208262E0,-8.999800444E-1,2.093412839E-2,5.214502626E0
3.980921583E0,5.743174390E0,2.220725142E0,8.137873348E-1,6.211112788E0
3.990961583E0,4.901226792E0,5.017705666E0,1.420936553E0,7.156706988E0
4.001001583E0,3.789459427E0,7.283894665E0,1.293336275E0,8.311909706E0
4.011041583E0,1.498955806E0,8.736699128E0,9.958147395E-1,8.920113629E0
4.021081583E0,-9.426517086E-1,9.844449456E0,9.339266396E-1,9.933478560E0
4.031122583E0,-1.661366898E0,1.216754356E1,1.896369437E-2,1.228045666E1
4.041162583E0,-3.463743203E0,1.337213664E1,-1.080235670E0,1.385562934E1
4.051202583E0,-5.176458156E0,1.401578527E1,-2.146304120E0,1.509452143E1
4.061242583E0,-6.384438531E0,1.428066648E1,-2.975801827E0,1.592337549E1
4.071283583E0,-7.199301826E0,1.436990435E1,-3.148967119E0,1.637803687E1
4.081323583E0,-7.627586984E0,1.454036472E1,-2.578016331E0,1.662072374E1
4.091363583E0,-7.635282505E0,1.424975342E1,-1.679665321E0,1.625343924E1
4.101403583E0,-7.467236450E0,1.307174295E1,-6.665697205E-1,1.506898800E1
4.111443583E0,-6.516601977E0,1.061097967E1,2.907229775E-1,1.245566179E1
4.121484583E0,-5.080791276E0,9.055215091E0,7.674277586E-1,1.041154675E1
4.131524583E0,-4.104233757E0,8.016455476E0,1.035979264E0,9.065403806E0
4.141564583E0,-3.114283774E0,7.643461590E0,8.917705536E-1,8.301597631E0
4.151604583E0,-2.084255514E0,7.650151974E0,1.992567372E-1,7.931497306E0
4.161645583E0,-1.087788664E0,7.699203097E0,-4.323337698E-1,7.787677766E0
4.171685583E0,-2.478551392E-1,8.051850427E0,-1.094334476E0,8.129655307E0
4.181725583E0,2.431139244E-1,8.668583744E0,-1.874081733E0,8.872182981E0
4.191765583E0,5.607158945E-1,9.285712332E0,-2.428724052E0,9.614445192E0
4.201805583E0,9.888085326E-1,9.718348403E0,-2.433869601E0,1.006716242E1
4.211846583E0,1.000596592E0,9.874414097E0,-2.244390578E0,1.017558531E1
4.221886583E0,8.336873100E-1,9.877591474E0,-1.831160831E0,1.008042647E1
4.231926583E0,6.006727695E-1,9.722734399E0,-1.224050277E0,9.817875079E0
4.241966583E0,2.002289099E-1,9.362172278E0,-9.394183445E-1,9.411315966E0
4.252007583E0,-6.725715219E-1,8.067641417E0,-1.194038858E0,8.183209596E0
4.262047583E0,-1.398568615E0,5.551665214E0,-1.837343677E0,6.012720899E0
4.272087583E0,-2.004644504E0,1.654808223E0,-2.496333067E0,3.603979554E0
4.282127583E0,-1.927220644E0,-6.638435732E0,-3.796762015E0,7.886596869E0
4.292167583E0,3.304286124E0,-2.909468557E1,-9.317491364E0,3.072840186E1
4.302208583E0,1.566097658E1,-6.442602539E1,-1.546030833E1,6.808083481E1
4.312248583E0,1.479815910E1,-5.730040725E1,-7.304120768E0,5.962945886E1
4.322288583E0,3.002406074E0,-2.201440674E1,-8.403080392E-1,2.223408789E1
4.332328583E0,-2.837155866E0,-1.038729209E1,5.766529924E0,1.221466978E1
4.342369583E0,-4.422900578E0,-1.343998188E1,9.418579198E0,1.699719967E1
4.352409583E0,-1.895535167E0,-2.241324532E1,5.107652800E0,2.306587819E1
4.362449583E0,-1.763496852E-1,-2.453649095E1,4.031491470E-1,2.454043636E1
4.372489583E0,1.092276914E0,-2.084276740E1,-1.387754774E0,2.091745408E1
4.382529583E0,1.627571892E0,-1.475728940E1,-7.319950935E-1,1.486480399E1
4.392570583E0,1.315912667E0,-9.577365602E0,2.099759261E-1,9.669625014E0
4.402610583E0,1.094136621E0,-5.827638590E0,1.582180542E0,6.136921194E0
4.412650583E0,6.995906284E-1,-2.850802390E0,3.289617798E0,4.408864545E0
4.422690583E0,5.962230384E-2,-2.595345140E-1,4.074318817E0,4.083011977E0
4.432731583E0,-2.916078074E-1,2.550103478E0,3.424611297E0,4.279722584E0
4.442771583E0,-1.103904906E0,5.726203431E0,1.498690488E0,6.021136517E0
4.452811583E0,-1.747980827E0,8.280226883E0,-9.932443035E-1,8.520805622E0
4.462851583E0,-1.952889629E0,1.024147189E1,-2.632817606E0,1.075329033E1
4.472891583E0,-2.209872272E0,1.156313792E1,-3.325655358E0,1.223313850E1
4.482932583E0,-3.397177915E0,1.288617221E1,-4.525527983E0,1.407389980E1
4.492972583E0,-3.932963840E0,1.399964462E1,-4.791514900E0,1.531067827E1
4.503012583E0,-3.993388382E0,1.488094632E1,-3.692576326E0,1.584376325E1
4.513052583E0,-3.997413898E0,1.560699041E1,-2.626164644E0,1.632342514E1
4.523093583E0,-3.516923921E0,1.625111735E1,-1.627548503E0,1.670677955E1
4.533133583E0,-3.434304811E0,1.648160757E1,-1.060691936E0,1.686899241E1
4.543173583E0,-3.919993254E0,1.619418535E1,-8.993397743E-1,1.668612592E1
4.553213583E0,-5.109371297E0,1.487243862E1,-1.025256055E0,1.575900554E1
4.563254583E0,-5.976254346E0,1.139767809E1,-1.224643843E0,1.292758425E1
4.573294583E0,-3.962598991E0,9.251311408E0,-2.300599424E-1,1.006687047E1
4.583334583E0,-2.216255238E0,8.176199069E0,3.968049181E-1,8.480534927E0
4.593374583E0,-1.098641681E0,7.529726229E0,4.262819016E-1,7.621384840E0
4.603414583E0,1.197753887E-1,6.880135068E0,1.374925618E-1,6.882551046E0
4.613455583E0,1.461359232E0,6.552121473E0,-1.829927800E-1,6.715605182E0
4.623495583E0,2.553646891E0,7.037091878E0,-5.608281245E-1,7.507083503E0
4.633535583E0,3.450258354E0,8.019029421E0,-1.135959635E0,8.803381160E0
4.643575583E0,4.044364116E0,9.347113944E0,-1.660086504E0,1.031897802E1
4.653616583E0,4.229179107E0,1.047063246E1,-1.862945126E0,1.144511531E1
4.663656583E0,3.568497533E0,1.141292529E1,-1.968091512E0,1.211868073E1
4.673696583E0,2.311826516E0,1.234764248E1,-2.227023763E0,1.275807397E1
4.683736583E0,1.191054513E0,1.293499529E1,-2.527809799E0,1.323338718E1
4.693776583E0,-2.110152686E-1,1.228279919E1,-3.078075476E0,1.266436860E1
4.703817583E0,-1.997708537E0,9.708462515E0,-3.395697400E0,1.047739684E1
4.713857583E0,-2.905494322E0,6.553503170E0,-2.957060332E0,7.754644212E0
4.723897583E0,-2.998728760E0,2.919154587E0,-2.772255573E0,5.019884325E0
4.733937583E0,-1.091494922E0,-8.263214409E0,-4.597266303E0,9.518767304E0
4.743978583E0,9.969444215E0,-5.861408014E1,-1.544088738E1,6.142817930E1
4.754018583E0,1.420128936E1,-1.096706668E2,-2.141523554E1,1.126407745E2
4.764058583E0,2.654274841E0,-6.172350780E1,-6.447419475E0,6.211606723E1
4.774098583E0,-2.787206903E0,-1.645881746E1,2.156586449E0,1.683187630E1
4.784138583E0,-1.097833333E1,-6.518614588E0,1.532117266E1,1.994378275E1
4.794179583E0,-1.300502856E1,-1.012284943E1,1.609265195E1,2.303424180E1
4.804219583E0,-1.150087326E1,-1.409397424E1,1.223808320E1,2.192443559E1
4.814259583E0,-4.107471360E0,-1.320727673E1,7.900670081E0,1.592871832E1
4.824299583E0,3.700848967E-3,-1.029004705E1,-2.216491612E-1,1.029243462E1
4.834340583E0,7.368573457E-1,-7.005477152E0,-3.295812339E0,7.777020500E0
4.844380583E0,1.276155401E0,-2.885425508E0,-3.502730098E0,4.714167064E0
4.854420583E0,1.875275735E0,9.015166926E-1,-3.415204296E0,3.999126381E0
4.864460583E0,1.372930913E0,3.814254545E0,-3.588950216E0,5.414244239E0
4.874501583E0,1.523860705E0,6.126282790E0,-3.422279427E0,7.180911415E0
4.884541583E0,2.240631696E0,8.256515254E0,-3.042567090E0,9.080070981E0
4.894581583E0,3.131367877E0,1.051541160E1,-2.641656257E0,1.128528661E1
4.904621583E0,3.395642436E0,1.244382099E1,-2.023781564E0,1.305659834E1
4.914661583E0,2.500633987E0,1.398067391E1,-1.694753476E0,1.430330741E1
4.924702583E0,1.817904463E0,1.552836641E1,-8.580525845E-1,1.565794349E1
4.934742583E0,7.734264902E-1,1.688131622E1,3.746661901E-2,1.689906593E1
4.944782583E0,-3.451223291E-1,1.770680975E1,5.277298872E-1,1.771803374E1
4.954822583E0,-1.348515718E0,1.782432475E1,8.580215943E-1,1.789584445E1
4.964863208E0,-2.232032196E0,1.717239763E1,6.052721894E-1,1.732742227E1
4.974903208E0,-2.929350377E0,1.550853265E1,7.058407903E-2,1.578292307E1
4.984943208E0,-3.334253981E0,1.277193749E1,-4.175379753E-2,1.320005229E1
4.994983208E0,-3.459919124E0,9.543823634E0,-1.871138245E-1,1.015335518E1
5.005024208E0,-2.266796816E0,6.910123098E0,-4.540832559E-2,7.272567013E0
5.015064208E0,-6.059908122E-1,5.109832057E0,2.744939939E-1,5.152955994E0
5.025104208E0,7.662089796E-1,4.400171866E0,4.827700979E-1,4.492399761E0
5.035144208E0,1.238012113E0,4.776712089E0,5.300460058E-1,4.962922641E0
5.045184208E0,8.554847798E-1,6.239724036E0,3.495500600E-1,6.307788480E0
5.055225208E0,3.036211313E-1,8.166386272E0,1.452354813E-1,8.173319024E0
5.065265208E0,-3.895688425E-1,1.005187475E1,1.415400501E-1,1.006041667E1
5.075305208E0,-1.306786917E0,1.163595915E1,-1.848000995E-1,1.171056738E1
5.085345208E0,-2.311697001E0,1.251493599E1,-3.277562448E-1,1.273086761E1
5.095386208E0,-2.715351932E0,1.287860474E1,-5.132183039E-1,1.317174966E1
5.105426208E0,-2.964460568E0,1.277658954E1,-1.302899981E0,1.318054684E1
5.115466208E0,-3.441484022E0,1.119934054E1,-2.581538694E0,1.199722396E1
5.125506208E0,-3.150116389E0,8.211482922E0,-3.920251701E0,9.629125529E0
5.135547208E0,-2.352203441E0,3.605956843E0,-5.330039953E0,6.851650289E0
5.145587208E0,-1.261393374E0,-3.940746192E0,-6.150439392E0,7.412725444E0
5.155627208E0,2.038967075E0,-2.238011266E1,-9.643523923E0,2.445453706E1
5.165667208E0,1.106326297E1,-5.940152701E1,-1.545879858E1,6.236915626E1
5.175707208E0,1.580835682E1,-6.556064718E1,-8.703976940E0,6.799898396E1
5.185748208E0,1.069272023E1,-2.918763057E1,1.168729770E0,3.110655837E1
5.195788208E0,6.087201755E0,-1.019722367E1,8.717668780E0,1.473211270E1
5.205828208E0,-1.622063669E-1,-8.907242528E0,1.416079856E1,1.673001782E1
5.215868208E0,-3.272090769E0,-1.402165939E1,8.968024335E0,1.696287035E1
5.225909208E0,-3.524290828E0,-1.795513164E1,1.853523946E0,1.839138193E1
5.235949208E0,-2.441798426E0,-1.777195241E1,-3.356326635E-1,1.794205454E1
5.245989208E0,2.431957123E-1,-1.374405113E1,-1.557721931E0,1.383418170E1
5.256029208E0,2.492319831E0,-8.950273942E0,-2.039677073E0,9.512063096E0
5.266070208E0,2.870093816E0,-4.996071553E0,-1.843310030E0,6.049459591E0
5.276110208E0,2.521844177E0,-1.876033534E0,-2.162414954E0,3.815132803E0
5.286150208E0,2.148021155E0,4.838477397E-1,-2.011938028E0,2.982615991E0
5.296190208E0,2.288025133E0,2.576110139E0,-1.810577463E0,3.892247834E0
5.306231208E0,2.266359737E0,4.820058668E0,-1.701149161E0,5.591355872E0
5.316271208E0,1.771308586E0,6.947498501E0,-1.678246787E0,7.363544106E0
5.326311208E0,1.323545768E0,8.784559758E0,-1.905207632E0,9.085707438E0
5.336351208E0,1.256043610E0,1.024930131E1,-1.878543159E0,1.049546318E1
5.346391208E0,8.735047290E-1,1.110695453E1,-1.526835476E0,1.124538466E1
5.356432208E0,-6.536814339E-2,1.172610684E1,-1.042532238E0,1.177254128E1
5.366472208E0,-9.802142950E-1,1.231639379E1,-7.315854961E-1,1.237697836E1
5.376512208E0,-1.541722195E0,1.292742665E1,-4.528037024E-1,1.302690671E1
5.386552208E0,-1.854052096E0,1.329652045E1,5.942759156E-2,1.342529317E1
5.396593208E0,-2.158461359E0,1.307935837E1,6.511143601E-1,1.327224625E1
5.406633208E0,-2.422134971E0,1.190536493E1,9.816352415E-1,1.218884981E1
5.416673208E0,-2.701038240E0,1.072792632E1,8.811040628E-1,1.109776352E1
5.426713208E0,-2.926327659E0,9.953586566E0,6.551430917E-1,1.039550343E1
5.436754208E0,-3.051480878E0,9.239196562E0,5.554281843E-1,9.745911406E0
5.446794208E0,-3.163263561E0,8.604119360E0,3.347285378E-1,9.173284555E0
5.456834208E0,-3.184960824E0,8.401059009E0,-1.356670976E-2,8.984539609E0
5.466874208E0,-3.104581197E0,8.727897899E0,-6.543899703E-1,9.286702988E0
5.476914208E0,-2.872869489E0,9.051575784E0,-1.681759794E0,9.644310203E0
5.486955208E0,-2.425366580E0,9.292411487E0,-2.564013419E0,9.940094522E0
5.496995208E0,-1.816861758E0,9.492037184E0,-2.889372379E0,1.008703273E1
5.507035208E0,-1.146060627E0,9.977943728E0,-2.782879964E0,1.042195936E1
5.517075208E0,-6.171373594E-1,1.049284486E1,-2.439947782E0,1.079045861E1
5.527116208E0,-5.835518298E-1,1.066443959E1,-2.188485349E0,1.090230584E1
5.537156208E0,-6.082522959E-1,1.021973194E1,-1.869981666E0,1.040719574E1
5.547196208E0,-8.502428240E-1,9.149502613E0,-1.755377408E0,9.355087427E0
5.557236208E0,-1.060076224E0,7.001765925E0,-2.039019992E0,7.369266598E0
5.567277208E0,-9.184123684E-1,3.647749232E0,-1.942784178E0,4.233670524E0
5.577317208E0,-3.345474568E-1,-1.213783736E0,-1.884750563E0,2.266600460E0
5.587357208E0,2.023762268E0,-1.183753606E1,-3.363157060E0,1.247131505E1
5.597397208E0,9.387203039E0,-4.259425292E1,-1.058209091E1,4.488174028E1
5.607438208E0,1.062744660E1,-7.514051949E1,-1.731578422E1,7.783878643E1
5.617478208E0,-2.256294925E0,-5.388589994E1,-9.859935222E0,5.482699520E1
5.627518208E0,-4.267064679E0,-2.205880348E1,4.844551192E-1,2.247294704E1
5.637558208E0,-7.971274041E0,-1.031026321E1,8.493961326E0,1.555603151E1
5.647598208E0,-9.965917175E0,-9.347724978E0,1.993817039E1,2.417085241E1
5.657639208E0,-6.313891289E0,-9.693797114E0,1.913143590E1,2.235725308E1
5.667679208E0,-2.315901587E0,-9.374611645E0,1.046699549E1,1.424095286E1
5.677719208E0,1.187333783E0,-9.140875631E0,3.664532788E0,9.919383517E0
5.687759208E0,2.780313621E0,-7.378070505E0,-7.013735175E-1,7.915680199E0
5.697800208E0,2.152268573E0,-5.872581459E0,-3.459236169E0,7.147432257E0
5.707840208E0,2.892627085E-1,-3.757193322E0,-5.025194196E0,6.281142513E0
5.717880208E0,2.581861095E-1,-1.878167768E0,-4.438920779E0,4.826820062E0
5.727920208E0,1.010802323E0,-2.658243638E-1,-3.350994852E0,3.510206607E0
5.737961208E0,2.010807762E0,1.795140229E0,-2.547048308E0,3.708548419E0
5.748001208E0,3.276007527E0,3.665553419E0,-1.118290519E0,5.041733915E0
5.758041208E0,3.612387611E0,5.527294604E0,9.706366289E-1,6.674014186E0
5.768081208E0,3.269869120E0,7.393099018E0,2.237808952E0,8.387952436E0
5.778122208E0,2.677747026E0,9.257535185E0,2.499428583E0,9.955874149E0
5.788162208E0,1.829298493E0,1.069057431E1,2.485650204E0,1.112713660E1
5.798202208E0,8.817598280E-1,1.180802867E1,2.103739314E0,1.202633613E1
5.808242208E0,1.493544792E-1,1.311413293E1,1.555404972E0,1.320689493E1
5.818283208E0,3.783809993E-2,1.412129009E1,1.012403290E0,1.415758546E1
5.828323208E0,8.884592023E-2,1.488316241E1,3.875581312E-1,1.488847267E1
5.838363208E0,1.888088958E-1,1.539937683E1,-2.845313609E-1,1.540316246E1
5.848403208E0,1.144260488E0,1.537900747E1,-6.532123411E-1,1.543534545E1
5.858443208E0,2.414193136E0,1.475372728E1,-6.431902134E-1,1.496377261E1
5.868484208E0,3.567740318E0,1.356730383E1,-9.383395332E-1,1.405990702E1
5.878524208E0,3.977952610E0,1.210761895E1,-1.587365853E0,1.284282967E1
5.888564208E0,3.303336536E0,1.122103722E1,-2.175199306E0,1.189769728E1
5.898604208E0,1.983384320E0,1.069538890E1,-2.442501261E0,1.114858599E1
5.908645208E0,7.420604905E-1,1.029137086E1,-2.233279699E0,1.055701218E1
5.918685208E0,-2.607768646E-1,1.008845610E1,-1.980343183E0,1.028429435E1
5.928725208E0,-1.098723250E0,9.901253986E0,-1.775371377E0,1.011899040E1
5.938765208E0,-1.570952718E0,9.551025065E0,-1.719087249E0,9.830830748E0
5.948806208E0,-2.438322841E0,8.893924325E0,-2.047507811E0,9.446671182E0
5.958846208E0,-3.413364177E0,8.040147809E0,-2.482953469E0,9.080753809E0
5.968886667E0,-3.574262303E0,7.112137383E0,-2.530096060E0,8.352199425E0
5.978926667E0,-4.161711594E0,5.686965106E0,-3.075451831E0,7.688941375E0
5.988967667E0,-3.956588638E0,2.813405938E0,-4.712538897E0,6.765934486E0
5.999007667E0,-4.192222073E0,-2.076749736E0,-6.948274426E0,8.376522720E0
6.009047667E0,-3.997332329E0,-1.271547444E1,-1.158831604E1,1.766213533E1
6.019087667E0,-4.233077884E-1,-3.402660381E1,-1.430162290E1,3.691240136E1
6.029127667E0,8.960300309E-1,-5.215817870E1,-1.210425096E1,5.355176343E1
6.039168667E0,-1.388476321E0,-3.890956917E1,-4.800074054E0,3.922911100E1
6.049208667E0,-3.139184069E-1,-2.010007746E1,-3.918840475E-1,2.010634804E1
6.059248667E0,2.956082385E0,-1.446977713E1,4.893581557E0,1.555827798E1
6.069288667E0,3.782823130E0,-1.609249525E1,1.005528953E1,1.934908271E1
6.079329667E0,3.405603753E0,-1.926643992E1,8.173830947E0,2.120389956E1
6.089369667E0,4.563444546E0,-1.927866294E1,5.565669880E0,2.057835154E1
6.099409667E0,5.767757254E0,-1.550182239E1,3.569105351E0,1.692075749E1
6.109449667E0,5.698067799E0,-1.110564008E1,2.444364184E0,1.271920337E1
6.119490667E0,4.664005837E0,-8.037707182E0,2.071504784E0,9.520967349E0
6.129530667E0,3.639016415E0,-5.597420261E0,1.907247287E0,6.943424678E0
6.139570667E0,2.427704005E0,-3.043318457E0,1.721916278E0,4.256821541E0
6.149610667E0,1.030093895E0,-5.263043725E-1,1.516071922E0,1.906977660E0
6.159651667E0,3.048584021E-1,1.854564312E0,7.620736094E-1,2.028078800E0
6.169691667E0,-6.897901833E-2,4.083305402E0,-7.422489171E-1,4.150792041E0
6.179731667E0,-7.421956343E-1,6.418006811E0,-2.379426177E0,6.885007968E0
6.189771667E0,-1.300875382E0,8.635561593E0,-3.357350775E0,9.356121259E0
6.199812667E0,-2.028390047E0,1.025933981E1,-3.406649820E0,1.099880369E1
6.209852667E0,-2.634832556E0,1.145123742E1,-2.768714499E0,1.207223927E1
6.219892667E0,-3.169907752E0,1.253921831E1,-1.901136215E0,1.307266728E1
6.229932667E0,-3.342614914E0,1.376729966E1,-1.057368963E0,1.420667602E1
6.239972667E0,-3.288748902E0,1.495218646E1,-3.747492206E-1,1.531418252E1
6.250013667E0,-3.260544857E0,1.576945763E1,1.338392671E-1,1.610356668E1
6.260053667E0,-3.261761663E0,1.630750556E1,5.647691113E-1,1.664009587E1
6.270093667E0,-3.154312059E0,1.605905970E1,7.843688965E-1,1.638469767E1
6.280133667E0,-2.407631098E0,1.410060265E1,9.277508104E-1,1.433472721E1
6.290174667E0,-1.477745031E0,1.239039732E1,9.782064342E-1,1.251649168E1
6.300214667E0,-7.734752414E-1,1.106893594E1,6.143318653E-1,1.111292087E1
6.310254667E0,-4.529142878E-1,9.900390937E0,-1.135949914E-1,9.911396263E0
6.320294667E0,-4.584822989E-1,9.189530312E0,-7.689029380E-1,9.233032281E0
6.330335667E0,-8.895271962E-1,9.103927075E0,-1.375869724E0,9.250176448E0
6.340375667E0,-1.626641454E0,9.041260711E0,-1.673370209E0,9.337586707E0
6.350415667E0,-2.371976531E0,8.927349933E0,-1.525690591E0,9.362242321E0
6.360455667E0,-3.016457518E0,8.855312237E0,-1.135510569E0,9.423638099E0
6.370496667E0,-3.541463808E0,8.818266617E0,-6.538321459E-1,9.525297293E0
6.380536667E0,-3.860076543E0,8.889523711E0,-1.895293093E-1,9.693283452E0
6.390576667E0,-4.005914580E0,8.849476131E0,-3.868517876E-2,9.714014410E0
6.400616667E0,-3.939360986E0,8.507088325E0,-5.083147558E-1,9.388690039E0
6.410657667E0,-4.097527877E0,7.217490760E0,-1.611861008E0,8.454584761E0
6.420697667E0,-3.661896570E0,4.888396246E0,-2.685620302E0,6.672215581E0
6.430737667E0,-2.562832866E0,1.789897031E0,-3.432119122E0,4.642336195E0
6.440777667E0,-1.166657005E0,-5.776187770E0,-4.714178456E0,7.546450307E0
6.450818667E0,5.804880642E0,-2.920579670E1,-9.167937130E0,3.115648041E1
6.460858667E0,2.137227254E1,-6.966942481E1,-1.570646675E1,7.454727282E1
6.470898667E0,1.785853564E1,-5.842427017E1,-9.723971086E0,6.186176730E1
6.480938667E0,5.293484330E0,-2.012597594E1,-2.357762389E0,2.094361305E1
6.490979667E0,7.109899946E-2,-9.348091013E0,-2.068550624E0,9.574484965E0
6.501019667E0,-2.882017751E0,-1.128635880E1,3.479619563E-1,1.165371181E1
6.511059667E0,-2.986152276E0,-1.904384578E1,7.189833430E0,2.057374230E1
6.521099667E0,-1.685434476E0,-2.215626253E1,1.175123467E1,2.513627210E1
6.531139667E0,2.103373278E0,-1.868707440E1,1.284991362E1,2.277611049E1
6.541180667E0,3.333739426E0,-1.158472351E1,8.893213888E0,1.498028339E1
6.551220667E0,3.813390911E0,-6.106543760E0,5.610204028E0,9.127223903E0
6.561260667E0,3.150548206E0,-2.801449551E0,4.417479624E0,6.106406457E0
6.571300667E0,2.456576971E0,-3.292491120E-1,3.718596436E0,4.468907567E0
6.581341667E0,2.005184494E0,1.410120374E0,3.005846575E0,3.878700551E0
6.591381667E0,1.376070868E0,3.073893548E0,1.980923081E0,3.907230327E0
6.601421667E0,1.032744657E0,5.499238493E0,4.599068999E-2,5.595560801E0
6.611461667E0,5.241202182E-1,7.548015735E0,-2.185575775E0,7.875530776E0
6.621502667E0,-8.264235333E-2,9.315882211E0,-3.681087717E0,1.001713022E1
6.631542667E0,6.657822467E-1,1.136043133E1,-4.041355723E0,1.207622549E1
6.641582667E0,9.664815974E-1,1.291012591E1,-4.225438936E0,1.361836157E1
6.651622667E0,-7.999897331E-1,1.330299565E1,-4.511340299E0,1.406989226E1
6.661663667E0,-2.117262316E0,1.363805280E1,-4.082294419E0,1.439251235E1
6.671703667E0,-2.829699204E0,1.433568644E1,-3.428627749E0,1.500915026E1
6.681743667E0,-2.858365179E0,1.510831647E1,-2.966175556E0,1.565981084E1
6.691783667E0,-2.692421783E0,1.577218711E1,-2.600533959E0,1.621029914E1
6.701824667E0,-2.803700144E0,1.607602481E1,-2.197972457E0,1.646603751E1
6.711864667E0,-3.733848313E0,1.550355550E1,-1.966695197E0,1.606766151E1
6.721904667E0,-4.637631971E0,1.355165201E1,-1.686744545E0,1.442220543E1
6.731944667E0,-5.101402127E0,1.048660354E1,-1.426652792E0,1.174855292E1
6.741985667E0,-5.353708897E0,8.675642502E0,-1.320824035E0,1.027976400E1
6.752025667E0,-4.976295685E0,7.564254622E0,-7.990933549E-1,9.089555375E0
6.762065667E0,-4.021165872E0,6.973812141E0,1.666877460E-1,8.051808216E0
6.772105667E0,-3.385489916E0,7.008401930E0,7.408667815E-1,7.818447619E0
6.782146667E0,-2.573893459E0,7.569429408E0,1.107015917E0,8.071348917E0
6.792186667E0,-1.475049318E0,8.049741921E0,1.317998661E0,8.289224086E0
6.802226667E0,-6.835115893E-1,8.397559451E0,1.319496717E0,8.528028167E0
6.812266667E0,-2.432307225E-1,8.433809849E0,1.205940354E0,8.523062941E0
6.822306667E0,6.119046130E-1,7.834148063E0,8.744312203E-1,7.906512068E0
6.832347667E0,1.722007787E0,5.993217704E0,2.883554399E-1,6.242364786E0
6.842387667E0,2.428109509E0,2.910828736E0,-6.134617996E-1,3.839918632E0
6.852427667E0,3.788389971E0,-2.649736524E0,-7.858318698E-1,4.689406567E0
6.862467667E0,8.182329875E0,-1.957598684E1,-3.327660953E0,2.147657119E1
6.872508667E0,1.973700980E1,-5.794705785E1,-1.383248091E1,6.275945026E1
6.882548667E0,1.982065773E1,-6.872324241E1,-1.331637525E1,7.275347668E1
6.892588667E0,5.702466075E0,-3.074687716E1,-2.500179366E0,3.137099730E1
6.902628667E0,-4.243624946E0,-1.293056544E1,8.836721599E-1,1.363776931E1
6.912669667E0,-9.141766747E0,-1.108272835E1,4.153193078E0,1.495485806E1
6.922709667E0,-9.146674899E0,-1.418405645E1,7.048673458E0,1.829024102E1
6.932749667E0,-5.402471167E0,-1.632585646E1,9.776003119E0,1.978106470E1
6.942789667E0,-1.203002494E-1,-1.587653068E1,8.284890622E0,1.790860439E1
6.952830667E0,3.617927848E0,-1.119272149E1,5.459921231E0,1.296831354E1
6.962869667E0,6.517864391E0,-6.967908792E0,3.869330639E0,1.029592292E1
6.972909667E0,7.642709053E0,-3.303162873E0,2.605632731E0,8.724173804E0
6.982949667E0,7.713941588E0,6.091407073E-1,1.309371679E0,7.847955238E0
6.992990667E0,5.420631450E0,3.582614173E0,-8.320307207E-1,6.550621707E0
7.003030667E0,2.050690889E0,5.629923763E0,-3.075524336E0,6.734999973E0
7.013070667E0,-2.061098932E-1,7.245956760E0,-5.992299691E0,9.405000066E0
7.023110667E0,3.395666702E-1,9.289673236E0,-8.339877253E0,1.248867034E1
7.033151667E0,4.655867390E-1,1.032864101E1,-9.114336873E0,1.378291452E1
7.043191667E0,2.525317423E-1,1.119467680E1,-8.978630015E0,1.435271256E1
7.053231667E0,-6.182487689E-1,1.236275636E1,-7.218663712E0,1.432930850E1
7.063271667E0,-2.178738918E0,1.362363123E1,-5.208934761E0,1.474731272E1
7.073312667E0,-3.498762177E0,1.432396161E1,-3.893009523E0,1.525033560E1
7.083352667E0,-4.124972661E0,1.465877551E1,-2.964396248E0,1.551395321E1
7.093392667E0,-4.422521971E0,1.482280628E1,-2.361030836E0,1.564764370E1
7.103432667E0,-4.976236628E0,1.426153907E1,-1.747337487E0,1.520551268E1
7.113473667E0,-5.786439693E0,1.258724500E1,-1.214676094E0,1.390672712E1
7.123513667E0,-5.897870666E0,1.002302693E1,-1.002514479E0,1.167265962E1
7.133553667E0,-4.961181802E0,8.762018741E0,-5.144689503E-1,1.008221085E1
7.143593667E0,-4.027036769E0,7.865666894E0,-1.086763501E-1,8.837281900E0
7.153634667E0,-2.522462520E0,7.083849138E0,5.511066534E-2,7.519758837E0
7.163674667E0,-3.596183807E-2,6.698032308E0,2.601010726E-1,6.703177054E0
7.173714667E0,1.940925933E0,7.386554230E0,1.515925741E-1,7.638806005E0
7.183754667E0,3.027992905E0,8.983198444E0,-5.419462591E-1,9.495277830E0
7.193795667E0,3.673442482E0,1.035737657E1,-1.054284557E0,1.103997033E1
7.203835667E0,3.824662589E0,1.106167369E1,-1.264263334E0,1.177229929E1
7.213875667E0,3.790937603E0,1.111494183E1,-1.661765825E0,1.186063259E1
7.223915667E0,3.507406116E0,1.024367629E1,-2.418073348E0,1.109422734E1
7.233956667E0,2.886156995E0,8.473077410E0,-3.236789959E0,9.518390213E0
7.243996667E0,2.594804272E0,6.297705027E0,-3.718705194E0,7.760339305E0
7.254036667E0,2.292108682E0,3.744637011E0,-4.350791545E0,6.181056190E0
7.264076667E0,1.909243087E0,-6.068380737E-1,-5.205374976E0,5.577579247E0
7.274117667E0,3.161769598E0,-1.016656555E1,-6.125688128E0,1.228331784E1
7.284157667E0,6.788256015E0,-3.181286434E1,-1.120179637E1,3.440376432E1
7.294197667E0,2.188065812E0,-5.297655968E1,-1.796418547E1,5.598227815E1
7.304237667E0,-1.233437748E1,-4.369858613E1,-1.764700560E1,4.871468059E1
7.314277667E0,-1.164073282E1,-2.223610042E1,-5.624592272E0,2.572133084E1
7.324318667E0,-1.170162689E1,-1.746787381E1,1.103424674E1,2.374466863E1
7.334358667E0,-1.090872807E1,-1.995024138E1,1.759134712E1,2.874835601E1
7.344398667E0,-3.327489045E0,-1.915360386E1,1.557237021E1,2.490846118E1
7.354438667E0,9.474928377E-1,-1.797948413E1,1.129295797E1,2.125301136E1
7.364479667E0,3.621514822E0,-1.452785986E1,5.564678192E0,1.597309379E1
7.374519667E0,3.209971704E0,-1.106399153E1,2.479993608E0,1.178415017E1
7.384559667E0,1.388300904E0,-8.319514909E0,5.679282157E-1,8.453653068E0
7.394599667E0,6.482500284E-1,-5.153860422E0,-1.040307373E0,5.297616896E0
7.404640667E0,1.083866206E-1,-2.133273600E0,-1.791816233E0,2.788047583E0
7.414680667E0,-1.853516199E-2,5.132101178E-1,-2.088261734E0,2.150480237E0
7.424720667E0,2.816700990E-1,3.105252165E0,-1.424969963E0,3.428187342E0
7.434760667E0,8.290342420E-1,5.372666155E0,-3.894491573E-1,5.450184404E0
7.444801667E0,5.788155851E-1,7.800155275E0,-3.640067160E-1,7.830067093E0
7.454841667E0,-4.639775122E-1,9.423879699E0,-1.079276726E0,9.496821677E0
7.464881667E0,-6.619743937E-1,1.050975618E1,-1.428410465E0,1.062701941E1
7.474921667E0,-4.232920010E-1,1.158156367E1,-1.624291019E0,1.170256871E1
7.484962667E0,-5.302475886E-1,1.239974234E1,-2.143916118E0,1.259488582E1
7.495002667E0,-8.404148971E-1,1.296077917E1,-2.575979746E0,1.324098809E1
7.505042667E0,-9.662621076E-1,1.370023210E1,-2.896186139E0,1.403630707E1
7.515082667E0,-7.656766637E-1,1.430548674E1,-3.147560863E0,1.466766345E1
7.525123667E0,-3.893938646E-1,1.440044903E1,-3.231290653E0,1.476366483E1
7.535163667E0,-1.311977783E-1,1.397346547E1,-3.240760803E0,1.434494617E1
7.545203667E0,-3.678864167E-1,1.235567655E1,-3.363483920E0,1.281058576E1
7.555243667E0,-5.159814057E-1,1.068228646E1,-3.009021614E0,1.110998163E1
7.565284667E0,-5.383197429E-1,9.551069503E0,-2.168045238E0,9.808829541E0
7.575324667E0,-6.264863994E-1,8.794310575E0,-1.480900919E0,8.940103535E0
7.585364667E0,-8.984005652E-1,8.530729787E0,-1.031631859E0,8.639718663E0
7.595404667E0,-1.400704456E0,8.744582929E0,-7.877655441E-1,8.891022333E0
7.605445667E0,-1.998082320E0,9.086874256E0,-5.736376198E-1,9.321624151E0
7.615485667E0,-2.539805069E0,9.320289257E0,-4.930424863E-1,9.672718983E0
7.625525667E0,-2.650705993E0,9.453377733E0,-3.762613471E-1,9.825180172E0
7.635565667E0,-2.539272388E0,9.570060090E0,-3.238755208E-1,9.906505426E0
7.645606667E0,-2.463602401E0,9.588810942E0,-5.754736090E-1,9.916945192E0
7.655646667E0,-2.456442485E0,9.418949912E0,-1.057994031E0,9.791326697E0
7.665686667E0,-2.174409347E0,8.914251001E0,-1.661364706E0,9.324808824E0
7.675726667E0,-1.587178449E0,7.700364354E0,-2.094641047E0,8.136477599E0
7.685767667E0,-9.429939900E-1,5.860028071E0,-2.328006932E0,6.375639806E0
7.695807667E0,-2.751114234E-1,3.054352738E0,-2.679423423E0,4.072353965E0
7.705847667E0,5.559064134E-1,-2.457137427E0,-3.498907188E0,4.311485566E0
7.715887667E0,3.910243022E0,-1.586830949E1,-6.279768108E0,1.750796202E1
7.725928667E0,1.326465429E1,-4.580226932E1,-1.272715016E1,4.935361465E1
7.735968667E0,1.296547799E1,-5.784838024E1,-1.138194090E1,6.036627613E1
7.746008667E0,3.172912636E0,-3.003698542E1,-6.682262367E0,3.093445487E1
7.756048667E0,-3.117275649E-1,-1.514437391E1,-7.733501109E-1,1.516731043E1
7.766089667E0,-2.157940664E0,-1.611458018E1,6.788839567E0,1.761887468E1
7.776129667E0,-9.551603647E-1,-2.194415596E1,6.271686087E0,2.284277475E1
7.786169667E0,-5.759007481E-1,-2.530545594E1,3.276425310E0,2.552318015E1
7.796209667E0,-1.068471949E-1,-2.284034233E1,2.380999224E0,2.296435959E1
7.806250667E0,6.452770847E-1,-1.683130147E1,1.988515252E0,1.696063928E1
7.816290667E0,1.381684195E0,-1.170855350E1,2.596734438E0,1.207237781E1
7.826330667E0,2.046719314E0,-7.695833346E0,3.342308228E0,8.636314905E0
7.836370667E0,1.427787444E0,-4.449804202E0,3.779194640E0,6.010128663E0
7.846411667E0,2.505401807E-1,-1.536146582E0,3.237680490E0,3.592365747E0
7.856451667E0,2.902557850E-1,1.255547474E0,2.179587057E0,2.532044158E0
7.866491667E0,8.578217657E-1,4.099005761E0,1.231692588E0,4.365177321E0
7.876531667E0,1.197978712E0,6.528769448E0,1.270857421E-1,6.638985938E0
7.886572667E0,5.171987960E-1,8.292314247E0,-1.093010666E0,8.380014468E0
7.896612667E0,-5.475714268E-1,9.924849840E0,-2.302105520E0,1.020304703E1
7.906652667E0,-1.750926508E0,1.160129685E1,-3.393104160E0,1.221347568E1
7.916692667E0,-2.413060384E0,1.268405501E1,-3.468643169E0,1.336935292E1
7.926733667E0,-2.059237618E0,1.360381619E1,-3.082794764E0,1.409992546E1
7.936773667E0,-2.233496192E0,1.424452835E1,-2.969818372E0,1.472124024E1
7.946813667E0,-2.354083467E0,1.466191898E1,-2.979504869E0,1.514566031E1
7.956853667E0,-2.027599649E0,1.533091178E1,-2.883487156E0,1.573094131E1
7.966895417E0,-1.816285369E0,1.568737910E1,-2.860521047E0,1.604915375E1
7.976935417E0,-1.684306256E0,1.462849044E1,-3.091252761E0,1.504611125E1
7.986975417E0,-1.125426387E0,1.182998380E1,-2.972846060E0,1.224960876E1
7.997015417E0,-3.858047705E-1,9.983041331E0,-2.582012318E0,1.031875705E1
8.007056417E0,-8.447033912E-3,8.842385212E0,-2.131423541E0,9.095648075E0
8.017096417E0,4.726055905E-2,8.213800759E0,-1.612192546E0,8.370658353E0
8.027136417E0,-1.716693545E-1,8.072015135E0,-1.214187779E0,8.164628018E0
8.037176417E0,-4.940688188E-1,8.087520196E0,-8.700376955E-1,8.149174959E0
8.047217417E0,-1.032110161E0,8.112824022E0,-7.344810373E-1,8.211128266E0
8.057257417E0,-1.419388942E0,8.304914412E0,-7.342431287E-1,8.457267959E0
8.067297417E0,-1.690743748E0,8.658082729E0,-6.621509065E-1,8.846437407E0
8.077337417E0,-1.974045001E0,9.051765819E0,-5.282000399E-1,9.279564288E0
8.087378417E0,-2.356964098E0,9.424371450E0,-4.750763680E-1,9.726240514E0
8.097418417E0,-2.863398462E0,9.742084005E0,-4.581071270E-1,1.016450263E1
8.107458417E0,-3.309806187E0,9.738206132E0,-4.345791372E-1,1.029448079E1
8.117498417E0,-3.381168531E0,9.282906253E0,-5.657432209E-1,9.895691716E0
8.127539417E0,-2.803857434E0,8.512516295E0,-1.021581080E0,9.020431148E0
8.137579417E0,-1.983402885E0,7.251175985E0,-1.633676385E0,7.693005830E0
8.147619417E0,-1.559425956E0,4.931722945E0,-2.231535475E0,5.633245165E0
8.157659417E0,-1.484433661E0,1.023594276E0,-3.554194951E0,3.985422222E0
8.167700417E0,-5.903628858E-1,-8.164700519E0,-6.190700396E0,1.026331498E1
8.177740417E0,4.496136369E0,-3.203414169E1,-1.201527037E1,3.450750930E1
8.187780417E0,1.410510500E1,-6.604804769E1,-1.685291746E1,6.960832865E1
8.197820417E0,1.215910252E1,-5.605907611E1,-7.106144571E0,5.780104739E1
8.207861417E0,5.058844922E0,-2.451120057E1,1.699784859E-1,2.502837905E1
8.217901417E0,6.156803794E-2,-1.657921631E1,-2.519481902E-1,1.658124489E1
8.227941417E0,-3.471767337E0,-2.053780236E1,6.376060055E0,2.178321914E1
8.237981417E0,-3.230019468E0,-2.154340417E1,1.219927990E1,2.496745319E1
8.248021417E0,-5.429692295E-1,-1.687261556E1,1.314643528E1,2.139646541E1
8.258062417E0,2.049114918E0,-1.100064280E1,9.961274486E0,1.498132181E1
8.268102417E0,3.032415739E0,-6.837888350E0,5.118690004E0,9.063842986E0
8.278142417E0,3.485167108E0,-3.583358524E0,2.664658034E0,5.664560929E0
8.288183417E0,3.096099226E0,-3.643142796E-1,9.916960339E-1,3.271393638E0
8.298223417E0,1.709969686E0,2.123598797E0,-1.188797414E-1,2.729065879E0
8.308263417E0,1.222062443E0,4.151997322E0,-2.689146173E-1,4.336454018E0
8.318303417E0,7.043147401E-1,5.862857539E0,-2.604816898E-1,5.910753631E0
8.328344417E0,1.249981948E-1,7.089785231E0,-5.806261389E-1,7.114619167E0
8.338384417E0,-2.171549182E-1,8.233621066E0,-7.332162845E-1,8.269055462E0
8.348424417E0,-4.540377572E-1,9.675142157E0,-9.767656803E-1,9.734916396E0
8.358464417E0,-8.457409065E-1,1.100733201E1,-8.757959604E-1,1.107445955E1
8.368505417E0,-1.250186454E0,1.202553574E1,-3.450781095E-1,1.209526994E1
8.378545417E0,-1.688317154E0,1.303683507E1,-1.267675897E-2,1.314570821E1
8.388585417E0,-1.778847255E0,1.393203444E1,1.098311752E-1,1.404556670E1
8.398625417E0,-1.592926262E0,1.452859076E1,8.176170783E-3,1.461565703E1
8.408665417E0,-1.283894776E0,1.476553865E1,-2.304808688E-1,1.482304419E1
8.418706417E0,-9.507432318E-1,1.463920137E1,-5.173060924E-1,1.467915989E1
8.428746417E0,-5.549348985E-1,1.360228656E1,-8.518826026E-1,1.364022933E1
8.438786417E0,-2.694190127E-1,1.178694829E1,-1.424136735E0,1.187572743E1
8.448826417E0,-4.383865882E-1,9.880849543E0,-2.039424620E0,1.009864463E1
8.458867417E0,-3.979967999E-1,8.195182639E0,-2.381942818E0,8.543598278E0
8.468907417E0,-3.160195673E-1,7.012597307E0,-2.579789207E0,7.478750010E0
8.478947417E0,-5.325927606E-1,6.559205959E0,-2.431593280E0,7.015659894E0
8.488987417E0,-7.963808316E-1,7.031194961E0,-1.693725536E0,7.276031281E0
8.499028417E0,-9.500346954E-1,8.132774722E0,-8.086646622E-1,8.227911590E0
8.509068417E0,-1.082636609E0,9.126183332E0,-2.131345189E-1,9.192646548E0
8.519108417E0,-1.187938824E0,9.874553261E0,9.616339998E-3,9.945757549E0
8.529149417E0,-1.363167525E0,1.045677456E1,-1.269804740E-1,1.054601744E1
8.539189417E0,-1.621245205E0,1.063303069E1,-4.711850460E-1,1.076623393E1
8.549229417E0,-1.839279837E0,1.034088742E1,-8.218284988E-1,1.053528856E1
8.559269417E0,-1.928181342E0,9.548589699E0,-1.233221051E0,9.819077487E0
8.569309417E0,-1.708589012E0,7.627102835E0,-1.830063894E0,8.027521904E0
8.579350417E0,-1.995410873E0,4.680904291E0,-3.114562687E0,5.965989462E0
8.589390417E0,-2.351145826E0,-5.004456460E-1,-5.163745140E0,5.695840272E0
8.599430417E0,-3.990992558E-1,-1.241630516E1,-7.944064608E0,1.474557820E1
8.609470417E0,7.689979114E0,-3.968298506E1,-1.316564222E1,4.251128341E1
8.619511417E0,1.560181445E1,-6.689292825E1,-1.651117460E1,7.064488199E1
8.629551417E0,6.974712612E0,-4.511770070E1,-7.763446455E0,4.630901244E1
8.639591417E0,2.543017310E-1,-2.024676538E1,-3.512928227E-1,2.025140945E1
8.649631417E0,-3.700207820E0,-1.551311453E1,9.609832267E0,1.861980495E1
8.659672417E0,-2.546910898E0,-1.917671907E1,1.472434736E1,2.431130837E1
8.669712417E0,1.743050601E-1,-2.083777622E1,1.218600789E1,2.414005154E1
8.679752417E0,1.850907463E0,-1.818830691E1,8.062248530E0,1.998099642E1
8.689792417E0,2.349352192E0,-1.446432636E1,4.231296676E0,1.525254288E1
8.699833417E0,2.300699850E0,-1.096279143E1,1.532918042E0,1.130600962E1
8.709873417E0,2.621105340E0,-7.454582491E0,5.459255818E-1,7.920797186E0
8.719913417E0,2.468512308E0,-4.130297720E0,2.892113261E-1,4.820431045E0
8.729954417E0,2.164164148E0,-1.324227115E0,-3.695908070E-1,2.563938626E0
8.739994417E0,1.637206057E0,1.111299587E0,-8.792762232E-1,2.165307628E0
8.750034417E0,1.033443473E0,3.438963872E0,-3.200648173E-1,3.605124050E0
8.760074417E0,5.303406324E-1,6.035932783E0,-1.934737679E-1,6.062274973E0
8.770114417E0,-8.782145150E-2,8.813347355E0,-8.410203031E-1,8.853819478E0
8.780155417E0,-9.265112007E-1,1.037427970E1,-4.283506465E-1,1.042437464E1
8.790195417E0,-2.058004147E0,1.184638173E1,2.637912869E-2,1.202384452E1
8.800235417E0,-2.959250699E0,1.366317712E1,-2.313544428E-1,1.398188466E1
8.810275417E0,-3.569166747E0,1.500587559E1,-3.140679860E-1,1.542769886E1
8.820316417E0,-3.730399333E0,1.562372046E1,-2.382494795E-1,1.606465944E1
8.830356417E0,-3.346983077E0,1.610993282E1,-7.059461315E-2,1.645409416E1
8.840396417E0,-2.948470772E0,1.647799399E1,-1.265881441E-1,1.674018490E1
8.850436417E0,-2.650846033E0,1.661894463E1,-2.733912821E-1,1.683125213E1
8.860477417E0,-2.403786408E0,1.612752475E1,-6.280500180E-1,1.631777223E1
8.870517417E0,-1.800704439E0,1.456137026E1,-1.316493003E0,1.473123193E1
8.880557417E0,-9.359322345E-1,1.170132868E1,-2.540057961E0,1.201036871E1
8.890597417E0,6.168512844E-2,8.959210827E0,-3.417632060E0,9.589133047E0
8.900638417E0,5.155492233E-1,7.037686540E0,-3.747138450E0,7.989735252E0
8.910678417E0,1.242479239E0,6.153698046E0,-3.654474115E0,7.264085307E0
8.920718417E0,2.116809888E0,6.324031531E0,-2.842790535E0,7.249532187E0
8.930759417E0,2.075989159E0,7.431042770E0,-1.743689994E0,7.910156916E0
8.940799417E0,1.850037398E0,8.616609013E0,-8.755211413E-1,8.856360795E0
8.950839417E0,2.019563382E0,9.579338452E0,-2.844687957E-1,9.794043288E0
8.960879417E0,2.127123207E0,1.035708889E1,-7.227392435E-2,1.057351251E1
8.970920292E0,1.790478244E0,1.059630900E1,-3.720723653E-1,1.075295376E1
8.980960292E0,1.045352497E0,1.071970513E1,-1.142599148E0,1.083099131E1
8.991000292E0,1.570365512E-1,1.068017328E1,-2.014089219E0,1.086955920E1
9.001040292E0,-9.377250639E-1,9.794714794E0,-2.711624039E0,1.020630546E1
9.011080292E0,-1.791667421E0,7.615090899E0,-3.273100584E0,8.480145576E0
9.021121292E0,-2.262373690E0,3.325764116E0,-4.304868683E0,5.891598768E0
9.031161292E0,-2.304109069E0,-7.188167558E0,-8.709508406E0,1.152537236E1
9.041201292E0,3.834430070E0,-3.705967619E1,-1.806469209E1,4.140598452E1
9.051241292E0,1.256982732E1,-8.120403534E1,-2.360061602E1,8.549318681E1
9.061282292E0,2.268467658E0,-6.634744384E1,-1.319169039E1,6.768419273E1
9.071322292E0,-4.172302948E0,-2.807754370E1,-3.386393603E0,2.858713406E1
9.081362292E0,-1.090099572E1,-1.479678267E1,8.879282312E0,2.041122581E1
9.091402292E0,-1.388378906E1,-1.315345779E1,2.651818952E1,3.269537315E1
9.101443292E0,-6.046850120E0,-1.503007838E1,2.011444991E1,2.582748048E1
9.111483292E0,-1.437154245E0,-1.436611068E1,1.361667305E1,1.984601555E1
9.121523292E0,8.817006981E-1,-1.274640036E1,6.648216954E0,1.440301729E1
9.131563292E0,8.702836441E-1,-1.064657167E1,3.551239184E-1,1.068798367E1
9.141604292E0,1.100782785E0,-7.420464572E0,-3.472143313E0,8.266244395E0
9.151644292E0,1.507795480E0,-3.686324483E0,-4.428748963E0,5.956194488E0
9.161684292E0,1.012976464E0,-4.397252351E-1,-3.945227498E0,4.096864607E0
9.171724292E0,1.023332760E0,2.313253237E0,-3.439202439E0,4.269246291E0
9.181765292E0,1.906197858E0,5.356710858E0,-3.688673894E0,6.777481581E0
9.191805292E0,1.628223418E0,7.893108462E0,-3.884680749E0,8.946676322E0
9.201845292E0,2.001223444E0,9.642418799E0,-3.017302440E0,1.029976940E1
9.211886292E0,1.604092105E0,1.171663669E1,-2.469269230E0,1.208097584E1
9.221926292E0,7.269622488E-1,1.326089336E1,-2.220142760E0,1.346509565E1
9.231966292E0,-3.036713442E-1,1.353835193E1,-1.763813771E0,1.365614251E1
9.242006292E0,-9.582485716E-1,1.395532273E1,-1.741968573E0,1.409623096E1
9.252046292E0,-1.628834306E0,1.512325727E1,-2.009772220E0,1.534292007E1
9.262087292E0,-1.819591092E0,1.627377648E1,-2.323885668E0,1.653926108E1
9.272127292E0,-2.042261104E0,1.686246830E1,-2.607262350E0,1.718462931E1
9.282167292E0,-2.255043913E0,1.708540509E1,-2.762950314E0,1.745365820E1
9.292207292E0,-3.027357312E0,1.626289598E1,-3.145069365E0,1.683859077E1
9.302248292E0,-3.637604313E0,1.414716169E1,-3.443771453E0,1.500779500E1
9.312288292E0,-3.454563074E0,1.162553122E1,-3.651525949E0,1.266572635E1
9.322328292E0,-2.641675845E0,9.545571951E0,-3.574498823E0,1.052964562E1
9.332368292E0,-2.022985904E0,8.490996203E0,-3.601598328E0,9.442510207E0
9.342409292E0,-1.702029167E0,8.246490203E0,-3.464508603E0,9.105181152E0
9.352449292E0,-1.498472826E0,8.446753246E0,-2.759806851E0,9.011636647E0
9.362489292E0,-1.359427061E0,8.718506686E0,-1.792672119E0,9.004114287E0
9.372530292E0,-1.144853323E0,9.093672813E0,-5.447394741E-1,9.181629238E0
9.382570292E0,-1.072634143E0,9.262828084E0,2.692373836E-1,9.328612806E0
9.392610292E0,-9.710197677E-1,9.113281451E0,5.833480543E-1,9.183412936E0
9.402650292E0,-6.326510458E-1,8.775104810E0,5.301003850E-1,8.813836746E0
9.412691292E0,-2.449056575E-1,7.759486136E0,5.918200850E-2,7.763575618E0
9.422731292E0,6.789202094E-3,4.982398424E0,-3.816009879E-1,4.996995043E0
9.432771292E0,6.730381297E-1,4.527323663E-1,-1.007553610E0,1.293487996E0
9.442811292E0,2.041993594E0,-9.097805040E0,-3.322290870E0,9.898353955E0
9.452852292E0,9.344423640E0,-3.333683819E1,-1.002488634E1,3.604388131E1
9.462892292E0,1.694417963E1,-6.200740650E1,-1.523502563E1,6.606155985E1
9.472932292E0,5.099883020E0,-4.830839530E1,-9.814896458E0,4.955847108E1
9.482972292E0,-4.089218692E0,-1.988257507E1,-5.241880313E0,2.096463236E1
9.493013292E0,-8.155283579E0,-1.292380840E1,-2.209839673E-1,1.528339974E1
9.503053292E0,-5.909900728E0,-1.916300735E1,5.998228183E0,2.093147197E1
9.513093292E0,-3.333828304E0,-2.535609984E1,7.822317392E0,2.674387518E1
9.523133292E0,-6.193521385E-1,-2.219113533E1,8.276709198E0,2.369248825E1
9.533174292E0,1.007962915E0,-1.576582768E1,7.178519068E0,1.735247670E1
9.543214292E0,1.222786840E0,-9.770167598E0,5.790328091E0,1.142275282E1
9.553254292E0,1.036678298E0,-6.084222014E0,4.833265189E0,7.839190762E0
9.563294292E0,2.020549954E0,-3.348840153E0,4.272189764E0,5.792146222E0
9.573335292E0,2.424464355E0,-6.677204525E-1,2.974554909E0,3.895106535E0
9.583375292E0,2.627552188E0,2.189755949E0,1.226644102E0,3.633691975E0
9.593415292E0,2.661246768E0,4.386278297E0,8.020749964E-2,5.131091979E0
9.603455292E0,2.376869482E0,6.609696082E0,-1.634219592E0,7.211675568E0
9.613496292E0,1.717278559E0,8.529718804E0,-3.020693825E0,9.210306168E0
9.623536292E0,1.504892776E0,9.628369694E0,-2.894210950E0,1.016595604E1
9.633576292E0,1.278796003E0,1.068996853E1,-2.860150918E0,1.113962341E1
9.643616292E0,2.176478384E-1,1.143655974E1,-2.855839766E0,1.178974512E1
9.653657292E0,-7.359750009E-1,1.201497450E1,-2.463807930E0,1.228705094E1
9.663697292E0,-1.308146541E0,1.290300634E1,-2.486133184E0,1.320528978E1
9.673737292E0,-1.655853412E0,1.395912342E1,-2.841145713E0,1.434123726E1
9.683777292E0,-1.692601701E0,1.522992218E1,-3.223617936E0,1.565909138E1
9.693818292E0,-1.664734602E0,1.572889550E1,-3.381678116E0,1.617421534E1
9.703858292E0,-2.023991917E0,1.515969712E1,-3.216725823E0,1.562882866E1
9.713898292E0,-2.632080272E0,1.440680262E1,-3.060630308E0,1.496165987E1
9.723938292E0,-2.979932300E0,1.315496637E1,-2.886026017E0,1.379355947E1
9.733979292E0,-3.059810529E0,1.081011946E1,-2.682736455E0,1.155067955E1
9.744019292E0,-3.251415892E0,8.495567556E0,-2.514045453E0,9.437520752E0
9.754059292E0,-2.897916915E0,7.056518667E0,-2.168541082E0,7.930633554E0
9.764099292E0,-2.353990788E0,6.374190701E0,-1.676352289E0,6.998695358E0
9.774140292E0,-1.977872296E0,6.365922153E0,-9.459151858E-1,6.732881940E0
9.784180292E0,-1.852167831E0,6.934877286E0,-1.750340617E-1,7.180089524E0
9.794220292E0,-1.614590781E0,7.930208461E0,4.052237391E-1,8.103043619E0
9.804260292E0,-1.396589625E0,8.858821735E0,6.903585327E-1,8.994764034E0
9.814301292E0,-1.279938111E0,9.558455706E0,7.028739130E-1,9.669351002E0
9.824341292E0,-1.324375634E0,1.004959785E1,6.022140956E-1,1.015436111E1
9.834381292E0,-1.420276549E0,1.059665750E1,5.002433324E-1,1.070311071E1
9.844421292E0,-1.216512047E0,1.104776668E1,8.282348910E-2,1.111485087E1
9.854462292E0,-9.565582877E-1,1.089577415E1,-5.940338043E-1,1.095380182E1
9.864502292E0,-1.042902659E0,9.527928563E0,-1.263314331E0,9.667731469E0
9.874542292E0,-1.228600581E0,7.540804363E0,-2.170519195E0,7.942565291E0
9.884582292E0,-6.224292357E-1,3.814318864E0,-2.352879817E0,4.524653577E0
9.894623292E0,2.504379713E0,-7.781723682E0,-2.236186935E0,8.475120838E0
9.904663292E0,1.638978523E1,-5.703727787E1,-1.286514679E1,6.072386787E1
9.914703292E0,2.718620584E1,-9.938206518E1,-2.154044548E1,1.052609874E2
9.924743292E0,1.045750078E1,-4.617696357E1,-3.851210117E0,4.750266421E1
9.934784292E0,-1.958344935E0,-1.217961221E1,1.980130198E0,1.249395790E1
9.944824292E0,-6.641869217E0,-6.768573702E0,1.051006491E1,1.415589916E1
9.954864292E0,-8.099832678E0,-9.753439883E0,1.248029943E1,1.779029940E1
9.964904292E0,-6.257382043E0,-1.739264236E1,7.764742198E0,2.004869222E1
9.974945417E0,-4.004118900E0,-2.109724524E1,4.393187659E0,2.191864099E1
9.984985417E0,-1.443289289E0,-1.725916797E1,2.369971375E0,1.748081026E1
9.995025417E0,1.321615018E0,-9.559932128E0,4.494099784E-1,9.661311395E0
1.000506542E1,2.634924942E0,-5.055364074E0,-1.469801442E-1,5.702730796E0
1.001510642E1,3.203943810E0,-1.783815926E0,-4.815284416E-2,3.667366070E0
1.002514642E1,3.763830788E0,8.613720489E-1,1.870828342E-1,3.865667342E0
1.003518642E1,4.191427144E0,3.107807983E0,5.131330808E-1,5.243075197E0
1.004522642E1,4.071354863E0,5.555078233E0,6.047540530E-1,6.913794332E0
1.005526742E1,2.602977218E0,7.733388843E0,1.016340367E-1,8.160338404E0
1.006530742E1,1.392006138E0,9.480994717E0,-1.280461875E0,9.667808672E0
1.007534742E1,1.032266136E0,1.150863018E1,-3.185837907E0,1.198597952E1
1.008538742E1,-5.229659048E-1,1.186968405E1,-3.533765364E0,1.239557947E1
1.009542842E1,-1.703691384E0,1.209530705E1,-2.956237628E0,1.256735286E1
1.010546842E1,-2.848918417E0,1.307964839E1,-2.512362624E0,1.362004053E1
1.011550842E1,-3.748064356E0,1.429206738E1,-1.984512248E0,1.490803359E1
1.012554842E1,-4.136917353E0,1.550205277E1,-1.477941644E0,1.611248078E1
1.013558942E1,-4.217834632E0,1.637754818E1,-1.099399334E0,1.694765153E1
1.014562942E1,-4.483672444E0,1.660217599E1,-1.084570211E0,1.723113051E1
1.015566942E1,-4.583187084E0,1.618223247E1,-1.556652768E0,1.689063111E1
1.016570942E1,-4.409202013E0,1.432152215E1,-2.308574880E0,1.516168121E1
1.017575042E1,-3.786423553E0,1.159243248E1,-2.432166308E0,1.243530968E1
1.018579042E1,-3.034202648E0,9.737445994E0,-2.280512922E0,1.045107551E1
1.019583042E1,-2.325726371E0,8.259759289E0,-2.637091920E0,8.977019576E0
1.020587042E1,-1.482488146E0,7.009971907E0,-2.458344877E0,7.575020579E0
1.021591142E1,-5.287042891E-1,5.966207660E0,-1.627850804E0,6.206855912E0
1.022595142E1,3.271873838E-1,5.736379341E0,-8.855350828E-1,5.813542114E0
1.023599142E1,6.692424828E-1,6.428058175E0,2.507461488E-1,6.467665037E0
1.024603142E1,5.595414812E-1,7.365351056E0,1.078317783E0,7.464867855E0
1.025607242E1,5.028128182E-1,7.953449973E0,1.102956780E0,8.045290602E0
1.026611242E1,4.899615153E-1,8.338056430E0,7.796724129E-1,8.388750586E0
1.027615242E1,1.639506644E-1,8.518947648E0,3.537729557E-1,8.527866330E0
1.028619242E1,-4.596187053E-1,8.079467411E0,-9.503245711E-2,8.093088049E0
1.029623342E1,-1.157802128E0,6.533581706E0,-7.968316519E-1,6.683048433E0
1.030627342E1,-1.840086021E0,3.888701879E0,-1.728957349E0,4.636508642E0
1.031631342E1,-2.307044517E0,-1.084956712E0,-3.069247935E0,3.989970972E0
1.032635342E1,-8.219203732E-1,-1.285254721E1,-6.111795144E0,1.425543976E1
1.033639442E1,7.410959923E0,-4.058625358E1,-1.339157980E1,4.337626904E1
1.034643442E1,1.500456932E1,-6.249180855E1,-1.427130392E1,6.583337567E1
1.035647442E1,4.895207376E0,-3.811435719E1,-5.610316880E0,3.883481602E1
1.036651442E1,-3.215689404E0,-1.609998319E1,9.748397537E-1,1.644689727E1
1.037655542E1,-5.413497847E0,-1.455340401E1,5.825406708E0,1.658441710E1
1.038659542E1,-4.147963913E0,-2.093934937E1,5.227112585E0,2.197691203E1
1.039663542E1,-9.771160016E-1,-2.390380818E1,3.325834575E0,2.415383980E1
1.040667542E1,1.045617522E0,-2.052899645E1,2.926591076E0,2.076289832E1
1.041671642E1,2.329993377E0,-1.514127605E1,2.672047745E0,1.555078612E1
1.042675642E1,2.936047193E0,-1.050488311E1,2.172344695E0,1.112169158E1
1.043679642E1,2.691958099E0,-6.372173996E0,2.367851028E0,7.311494945E0
1.044683642E1,2.188651995E0,-3.189904060E0,2.710772685E0,4.723766931E0
1.045687742E1,1.079286520E0,-3.815898782E-1,2.636950418E0,2.874713505E0
1.046691742E1,-9.539834663E-2,2.412989779E0,1.923724594E0,3.087448272E0
1.047695742E1,-1.104967491E0,5.191784293E0,6.305461212E-1,5.345387331E0
1.048699742E1,-1.782285271E0,7.360387940E0,-6.390738467E-1,7.600017552E0
1.049703842E1,-2.067769582E0,9.428942218E0,-1.948983396E0,9.847799687E0
1.050707842E1,-2.216984971E0,1.169864949E1,-3.178873873E0,1.232390609E1
1.051711842E1,-2.383556065E0,1.310856872E1,-3.281879593E0,1.372175816E1
1.052715842E1,-2.821928254E0,1.307466890E1,-1.924819778E0,1.351351831E1
1.053719942E1,-3.004909267E0,1.345161433E1,-1.349293544E0,1.384904332E1
1.054723942E1,-2.811781873E0,1.457215954E1,-1.270757251E0,1.489526015E1
1.055727942E1,-2.519885067E0,1.563248661E1,-1.183830789E0,1.587847328E1
1.056731942E1,-2.320403358E0,1.611289618E1,-1.323883299E0,1.633286142E1
1.057736042E1,-2.168912672E0,1.604046322E1,-1.514887276E0,1.625716844E1
1.058740042E1,-2.498170847E0,1.577404770E1,-2.057387266E0,1.610261720E1
1.059744042E1,-2.314701446E0,1.493019508E1,-2.813579600E0,1.536830498E1
1.060748042E1,-2.114968015E0,1.226191762E1,-3.340794384E0,1.288365711E1
1.061752142E1,-2.108722311E0,9.630099301E0,-3.518443905E0,1.046732869E1
1.062756142E1,-1.510688682E0,8.093538736E0,-2.891285588E0,8.726229536E0
1.063760142E1,-6.710565083E-1,7.195230995E0,-2.135027180E0,7.535250956E0
1.064764142E1,-7.072492383E-2,6.904913229E0,-1.327819059E0,7.031780157E0
1.065768242E1,5.538935825E-1,7.412032303E0,-2.648730218E-1,7.437417473E0
1.066772242E1,1.469159418E0,8.287141800E0,4.992025280E-1,8.431153644E0
1.067776242E1,2.283152356E0,9.140382711E0,7.941454411E-1,9.454631022E0
1.068780242E1,2.986684665E0,9.780386192E0,6.616411024E-1,1.024763428E1
1.069784342E1,3.458060879E0,1.035119957E1,3.969885206E-1,1.092076542E1
1.070788342E1,3.487689890E0,1.070886557E1,-5.810972052E-3,1.126249600E1
1.071792342E1,2.874310828E0,1.110363799E1,-8.986714375E-1,1.150478378E1
1.072796342E1,1.701474851E0,1.038086600E1,-1.868131022E0,1.068397441E1
1.073800442E1,4.863964679E-1,7.348002952E0,-2.001521214E0,7.631239485E0
1.074804442E1,3.998314003E-1,2.571844010E0,-2.133468897E0,3.365402843E0
1.075808442E1,2.961646303E0,-1.180091144E1,-5.899195061E0,1.352158874E1
1.076812442E1,1.526542531E1,-5.820037794E1,-1.949300432E1,6.324788075E1
1.077816542E1,1.469430553E1,-9.146260566E1,-2.437225202E1,9.578798211E1
1.078820542E1,-2.058028121E0,-4.701939766E1,-9.415386618E0,4.799696596E1
1.079824542E1,-5.286330262E0,-1.717405473E1,-2.055411931E0,1.808640820E1
1.080828542E1,-8.343893121E0,-1.048601297E1,1.039209266E1,1.695796598E1
1.081832642E1,-1.298829383E1,-1.305223547E1,2.092784672E1,2.787528289E1
1.082836642E1,-9.196287940E0,-1.586995139E1,1.719868437E1,2.514402142E1
1.083840642E1,-2.643066898E0,-1.237047936E1,1.261642261E1,1.786585239E1
1.084844642E1,1.163835651E-1,-8.857282748E0,5.823304049E0,1.060074869E1
1.085848742E1,1.442309881E0,-6.315649547E0,1.923457815E0,6.757764198E0
1.086852742E1,2.239023858E0,-3.059126989E0,3.953045225E-1,3.811528753E0
1.087856742E1,2.175326044E0,1.363178927E-1,-1.048348464E0,2.418607134E0
1.088860742E1,1.926172385E0,2.904493863E0,-2.025487050E0,4.030982814E0
1.089864842E1,2.391332862E0,5.277531956E0,-2.624007021E0,6.360521146E0
1.090868842E1,2.356274419E0,7.142741125E0,-2.844613112E0,8.041306092E0
1.091872842E1,2.011443062E0,9.025301905E0,-3.031847974E0,9.731088316E0
1.092876842E1,1.451884112E0,1.069477261E1,-2.958015182E0,1.119088836E1
1.093880942E1,1.522623142E0,1.190568770E1,-1.782156487E0,1.213424339E1
1.094884942E1,5.760348686E-1,1.269719604E1,-8.590056807E-1,1.273925015E1
1.095888942E1,-3.471396916E-1,1.324130987E1,-4.806335253E-1,1.325457663E1
1.096892896E1,-1.040285519E0,1.383425496E1,-5.370217341E-1,1.388370255E1
1.097896996E1,-1.254464277E0,1.462866235E1,-4.672515510E-1,1.468978444E1
1.098900996E1,-1.271386412E0,1.554008891E1,-3.603767645E-1,1.559617447E1
1.099904996E1,-1.483477203E0,1.629490130E1,-5.872732902E-1,1.637282513E1
1.100908996E1,-1.767086165E0,1.639106461E1,-8.153205478E-1,1.650619096E1
1.101913096E1,-2.031481762E0,1.533454407E1,-9.702986598E-1,1.549892382E1
1.102917096E1,-1.971398405E0,1.394284009E1,-9.840337694E-1,1.411586072E1
1.103921096E1,-2.032752800E0,1.283294734E1,-1.346358826E0,1.306251521E1
1.104925096E1,-2.330813010E0,1.120747051E1,-2.256972032E0,1.166764789E1
1.105929196E1,-1.875280997E0,9.968863002E0,-2.658593886E0,1.048632585E1
1.106933196E1,-1.564826883E0,9.025373241E0,-2.637313530E0,9.532128197E0
1.107937196E1,-1.753358949E0,8.515553924E0,-2.125997325E0,8.950351438E0
1.108941196E1,-1.802236995E0,8.286362951E0,-1.220795133E0,8.567508967E0
1.109945296E1,-1.416929164E0,8.071525138E0,-4.204428720E-1,8.205728397E0
1.110949296E1,-9.833367813E-1,7.414018602E0,9.137679616E-2,7.479503511E0
1.111953296E1,-5.082181305E-1,6.150667434E0,-9.989967942E-2,6.172436755E0
1.112957296E1,-1.101694366E-1,3.590959904E0,-6.067562127E-1,3.643526237E0
1.113961396E1,4.292703039E-1,-1.567000585E0,-1.451211097E0,2.178480543E0
1.114965396E1,2.515273661E0,-1.180952907E1,-3.530947591E0,1.258011007E1
1.115969396E1,9.285740983E0,-3.503513625E1,-9.732753603E0,3.752881893E1
1.116973396E1,1.336993575E1,-5.562429119E1,-1.487491199E1,5.911074318E1
1.117977496E1,3.601729306E0,-4.065448824E1,-1.101604085E1,4.227425960E1
1.118981496E1,-1.489236856E-1,-2.164422186E1,-3.728339067E0,2.196349313E1
1.119985496E1,-4.014068814E0,-1.698360507E1,4.842106179E0,1.811081395E1
1.120989496E1,-6.411915767E0,-2.204762828E1,9.606636178E0,2.488971746E1
1.121993596E1,-3.786025650E0,-2.612086653E1,9.913665286E0,2.819422668E1
1.122997596E1,-9.557405546E-1,-2.339514018E1,9.284714212E0,2.518832948E1
1.124001596E1,2.734674056E-1,-1.687183203E1,6.701250615E0,1.815599792E1
1.125005696E1,1.935524275E0,-1.183464754E1,4.655520358E0,1.286386436E1
1.126009696E1,3.161522845E0,-7.876665507E0,3.238683872E0,9.084390978E0
1.127013696E1,2.654487387E0,-4.480278720E0,9.849669850E-1,5.299939685E0
1.128017696E1,2.557311925E0,-1.274818727E0,-4.203938285E-1,2.888206717E0
1.129021796E1,2.448982607E0,1.667640522E0,-1.631493620E0,3.382353050E0
1.130025796E1,2.326053962E0,4.166461580E0,-2.076989472E0,5.204211217E0
1.131029796E1,2.063066521E0,6.542536717E0,-2.922144853E0,7.456538118E0
1.132033796E1,8.782758377E-1,8.986554746E0,-4.776744248E0,1.021502914E1
1.133037896E1,-5.334439690E-1,1.029214152E1,-3.987532103E0,1.105048197E1
1.134041896E1,-1.390476799E0,1.071090858E1,-3.095991930E0,1.123575340E1
1.135045896E1,-1.956138634E0,1.113480833E1,-2.618688979E0,1.160465281E1
1.136049896E1,-2.167700983E0,1.245634572E1,-2.530843919E0,1.289436494E1
1.137053896E1,-2.512783332E0,1.397775498E1,-2.604177359E0,1.443860984E1
1.138057996E1,-3.057502048E0,1.523140504E1,-3.082027025E0,1.583802099E1
1.139061996E1,-3.051449595E0,1.603998491E1,-3.508874352E0,1.670043891E1
1.140065996E1,-3.404678138E0,1.622705956E1,-3.991910498E0,1.705416796E1
1.141069996E1,-4.056416981E0,1.567309903E1,-4.310791620E0,1.675361084E1
1.142074096E1,-4.498268849E0,1.462549316E1,-4.406661690E0,1.592350904E1
1.143078096E1,-4.550849351E0,1.262162663E1,-4.879670447E0,1.427679489E1
1.144082096E1,-3.671659666E0,1.020969461E1,-5.080222342E0,1.198030082E1
1.145086196E1,-2.740278904E0,8.784291371E0,-4.703989098E0,1.033442871E1
1.146090196E1,-2.242377382E0,8.234255489E0,-4.121459069E0,9.477217135E0
1.147094196E1,-1.821775466E0,8.042569141E0,-3.200579322E0,8.845648209E0
1.148098196E1,-1.434378279E0,8.030243796E0,-2.118501779E0,8.427947927E0
1.149102296E1,-1.186658868E0,8.006042170E0,-1.032839309E0,8.159143799E0
1.150106296E1,-1.049947385E0,8.129413742E0,-1.035647507E-1,8.197590071E0
1.151110296E1,-8.491598466E-1,8.363628643E0,6.028800935E-1,8.428215762E0
1.152114296E1,-5.127133238E-1,8.559365941E0,1.167894788E0,8.653877657E0
1.153118396E1,1.183034983E-1,8.703132602E0,1.574666870E0,8.845229706E0
1.154122396E1,1.060919831E0,8.913920633E0,1.664447358E0,9.129836633E0
1.155126396E1,1.922041473E0,9.242017844E0,1.511468409E0,9.560003870E0
1.156130396E1,2.394115844E0,9.594517824E0,1.452686934E0,9.994841784E0
1.157134496E1,2.225581694E0,9.478740615E0,1.175173402E0,9.807179516E0
1.158138496E1,1.249077822E0,7.731663914E0,-7.959239082E-3,7.831914558E0
1.159142496E1,5.173710330E-1,4.411076923E0,-1.199203119E0,4.600365260E0
1.160146496E1,1.042365154E0,-3.702482679E0,-1.991313729E0,4.331308517E0
1.161150596E1,6.712881312E0,-3.318594728E1,-9.202646202E0,3.508644424E1
1.162154596E1,1.858743317E1,-8.053031447E1,-1.958865542E1,8.493726886E1
1.163158596E1,1.131804603E1,-6.729189079E1,-1.080479615E1,6.908719384E1
1.164162596E1,9.036043679E-1,-2.613854851E1,-1.388730090E0,2.619100591E1
1.165166696E1,-4.639512143E0,-1.183476448E1,2.510092735E0,1.295713274E1
1.166170696E1,-8.768937167E0,-1.099828754E1,7.773514191E0,1.607121995E1
1.167174696E1,-1.025687813E1,-1.971519267E1,8.747480224E0,2.388327409E1
1.168178696E1,-4.903483817E0,-2.139155665E1,8.891387218E0,2.367909661E1
1.169182796E1,-6.436890540E-1,-1.634616501E1,6.026141621E0,1.743346864E1
1.170186796E1,1.857577529E0,-1.083648456E1,2.067618870E0,1.118727132E1
1.171190796E1,3.940111476E0,-6.626365909E0,3.949020879E-1,7.719400965E0
1.172194796E1,4.860915502E0,-2.898498713E0,3.668005157E-1,5.671361118E0
1.173198896E1,4.886741192E0,9.623277354E-1,6.018153886E-1,5.016821295E0
1.174202896E1,4.489476098E0,4.401664075E0,2.132211307E-1,6.290906574E0
1.175206896E1,3.510868545E0,6.856136341E0,6.475487280E-1,7.729949730E0
1.176210896E1,2.300620474E0,8.695739967E0,1.371108921E0,9.098828925E0
1.177214996E1,6.044276322E-1,9.940085346E0,8.028519452E-1,9.990755761E0
1.178218996E1,-6.802885310E-1,1.123685394E1,-1.094949603E-1,1.125796021E1
1.179222996E1,-1.340048803E0,1.283131714E1,-1.095865277E0,1.294756159E1
1.180226996E1,-2.315343324E0,1.357615184E1,-1.695280311E0,1.387611937E1
1.181231096E1,-3.222473052E0,1.400576081E1,-2.014647628E0,1.451221807E1
1.182235096E1,-3.366727662E0,1.463893708E1,-2.086568965E0,1.516532571E1
1.183239096E1,-3.303492364E0,1.510763585E1,-1.921310279E0,1.558348986E1
1.184243096E1,-3.188796013E0,1.544376889E1,-1.664850231E0,1.585717957E1
1.185247196E1,-3.143828293E0,1.541732778E1,-1.656047832E0,1.582150899E1
1.186251196E1,-3.124889162E0,1.501747880E1,-1.782691507E0,1.544239589E1
1.187255196E1,-3.089020295E0,1.289031087E1,-1.899197279E0,1.339063520E1
1.188259196E1,-2.821270150E0,1.023831089E1,-1.738975384E0,1.076134798E1
1.189263296E1,-2.347904714E0,8.893922571E0,-1.401936026E0,9.304834220E0
1.190267296E1,-1.948572776E0,7.944139452E0,-1.358702883E0,8.291704349E0
1.191271296E1,-1.246181843E0,7.322635977E0,-1.219732693E0,7.527397603E0
1.192275296E1,-6.297153781E-1,7.050869088E0,-8.030653685E-1,7.124339291E0
1.193279396E1,-2.731875432E-1,7.271642409E0,-2.508397043E-1,7.281094376E0
1.194283396E1,-2.010386762E-1,7.577628958E0,1.180932909E-1,7.581215153E0
1.195287396E1,-8.286907911E-2,7.968640455E0,2.797214413E-1,7.973979061E0
1.196291396E1,7.596285962E-2,8.537290948E0,1.091511532E-1,8.538326596E0
1.197295554E1,2.721655961E-1,9.075675668E0,-2.234361251E-1,9.082504426E0
1.198299554E1,3.151637542E-1,9.530515956E0,-3.502295065E-1,9.542155065E0
1.199303554E1,6.916050129E-2,9.550026945E0,-2.088882709E-1,9.552561548E0
1.200307554E1,-2.548603228E-1,9.127528192E0,-3.992408315E-1,9.139809512E0
1.201311654E1,-6.719193381E-1,7.758425451E0,-1.050033558E0,7.857939396E0
1.202315654E1,-1.058939525E0,5.111144757E0,-1.662644076E0,5.478096291E0
1.203319654E1,-9.027538173E-1,6.685887641E-1,-1.830001913E0,2.147296531E0
1.204323654E1,2.397634114E0,-1.273070293E1,-3.607025714E0,1.344730757E1
1.205327754E1,1.493414896E1,-5.403030278E1,-1.260705420E1,5.745642035E1
1.206331754E1,1.976938467E1,-8.169763390E1,-1.686080301E1,8.572991679E1
1.207335754E1,4.978990667E0,-4.008293461E1,-6.758637528E0,4.095254786E1
1.208339754E1,-4.656558093E-2,-1.512258368E1,-1.272640640E0,1.517611016E1
1.209343854E1,-3.052314106E0,-1.127477430E1,1.048848635E1,1.569858283E1
1.210347854E1,-5.126840438E0,-1.671218199E1,1.677935013E1,2.423072658E1
1.211351854E1,-2.988535601E0,-2.234777990E1,9.227114460E0,2.436173747E1
1.212355854E1,-1.625380794E0,-2.127493043E1,1.901182408E0,2.142146172E1
1.213359954E1,-1.491917074E-1,-1.627461848E1,-1.117910596E0,1.631365038E1
1.214363954E1,1.193920087E0,-1.103499870E1,-1.612533292E0,1.121592194E1
1.215367954E1,1.541816043E0,-6.434106535E0,-1.810781092E0,6.859581020E0
1.216371954E1,1.154493408E0,-2.529006139E0,-1.311432238E0,3.073854517E0
1.217376054E1,6.495470870E-1,9.826848167E-1,-3.106754315E-1,1.218236468E0
1.218380054E1,1.607465364E-1,4.192429649E0,4.725486533E-1,4.222038375E0
1.219384054E1,-5.153461788E-1,7.098606926E0,1.040575175E0,7.192954794E0
1.220388054E1,-1.510651114E0,9.231154302E0,9.728679264E-1,9.404400488E0
1.221392154E1,-2.553187007E0,1.089114316E1,1.879166655E-1,1.118798802E1
1.222396154E1,-3.627733043E0,1.212118683E1,-7.588253349E-1,1.267515022E1
1.223400154E1,-4.217780837E0,1.314311290E1,-1.820054045E0,1.392277589E1
1.224404154E1,-4.203241151E0,1.356952344E1,-2.577183103E0,1.443748854E1
1.225408254E1,-3.683098574E0,1.371333571E1,-2.619262006E0,1.443888239E1
1.226412254E1,-2.885267926E0,1.370504552E1,-2.304119301E0,1.419373135E1
1.227416254E1,-2.327631540E0,1.380151757E1,-2.432814179E0,1.420627821E1
1.228420254E1,-2.028307601E0,1.416199373E1,-2.742882085E0,1.456706904E1
1.229424354E1,-1.935546787E0,1.456775074E1,-3.324154962E0,1.506704049E1
1.230428354E1,-1.916399495E0,1.492770533E1,-2.934400617E0,1.533361277E1
1.231432354E1,-2.237385614E0,1.500973709E1,-2.399687364E0,1.536413360E1
1.232436354E1,-3.060747837E0,1.406327285E1,-2.243646812E0,1.456632320E1
1.233440454E1,-3.650877785E0,1.095382531E1,-2.353865073E0,1.178371242E1
1.234444454E1,-3.353972546E0,9.286537959E0,-1.830130552E0,1.004182737E1
1.235448454E1,-2.209021209E0,8.537273991E0,-1.332162956E0,8.918490906E0
1.236452454E1,-1.431848043E0,8.038565553E0,-6.723923779E-1,8.192730709E0
1.237456554E1,-9.651887050E-1,8.465189517E0,2.666529874E-1,8.524208268E0
1.238460554E1,-2.594267059E-1,9.645043615E0,7.810915321E-1,9.680096721E0
1.239464554E1,5.537132690E-1,1.060254097E1,5.612976193E-1,1.063181679E1
1.240468554E1,1.137526104E0,1.115796213E1,6.402003128E-2,1.121597892E1
1.241472654E1,1.467454955E0,1.131955929E1,-6.140769267E-1,1.143078900E1
1.242476654E1,1.584028993E0,1.096001517E1,-1.316109425E0,1.115182606E1
1.243480654E1,1.134432415E0,9.976161497E0,-1.926197382E0,1.022354985E1
1.244484654E1,1.700453269E-1,8.281538413E0,-1.933098266E0,8.505860498E0
1.245488754E1,-3.216443330E-1,6.559265016E0,-1.447003441E0,6.724673344E0
1.246492754E1,-6.051534178E-1,5.669966081E0,-1.536434265E0,5.905536069E0
1.247496754E1,-2.097401736E-2,2.904697346E0,-2.792023255E0,4.029032196E0
1.248500754E1,1.957630376E1,-3.681593618E1,-9.336141644E0,4.272947889E1
1.249504854E1,2.791221952E1,-1.054223699E2,-2.292081405E1,1.114375691E2
1.250508854E1,5.920844961E0,-8.949337569E1,-1.774530548E1,9.142765755E1
1.251512854E1,-2.237448471E0,-3.336958727E1,-3.961145958E0,3.367827501E1
1.252516854E1,-7.817460110E0,-9.187213061E0,1.162449714E0,1.211894615E1
1.253520954E1,-1.271219064E1,-4.835125188E0,1.335640646E1,1.906231413E1
1.254524954E1,-1.087763024E1,-8.315644637E0,1.815481990E1,2.273917921E1
1.255528954E1,-7.764536961E0,-1.339517116E1,1.404874135E1,2.090659652E1
1.256532954E1,-2.496455859E0,-1.131986335E1,9.149537112E0,1.476772249E1
1.257537054E1,-8.329870328E-3,-6.446373993E0,2.993907731E0,7.107692350E0
1.258541054E1,2.224025603E0,-3.082665541E0,-1.086096188E-1,3.802750684E0
1.259545054E1,3.788394941E0,2.070855743E-1,-4.095810843E-1,3.816094513E0
1.260549054E1,3.733095484E0,3.424986103E0,-8.619379862E-1,5.139014379E0
1.261553154E1,3.563469220E0,6.663234943E0,-2.291334364E0,7.896025959E0
1.262557154E1,3.409542730E0,9.217635539E0,-3.282985886E0,1.036184264E1
1.263561154E1,2.317306527E0,1.110181132E1,-2.205620030E0,1.155356585E1
1.264565154E1,6.374318024E-1,1.267319089E1,-1.994509817E0,1.284500510E1
1.265569254E1,5.002861632E-1,1.390338542E1,-1.121971925E0,1.395755112E1
1.266573254E1,-1.068186166E-1,1.486661830E1,-8.559926105E-1,1.489162427E1
1.267577254E1,-2.391185073E0,1.537778774E1,-1.682779548E0,1.565330217E1
1.268581254E1,-3.829556124E0,1.597736474E1,-1.740957590E0,1.652188299E1
1.269585354E1,-4.378554125E0,1.636168235E1,-1.658525298E0,1.701843388E1
1.270589354E1,-4.887397834E0,1.648002181E1,-1.841551918E0,1.728783068E1
1.271593354E1,-5.999534451E0,1.599290079E1,-2.785714694E0,1.730686268E1
1.272597354E1,-7.894327022E0,1.539466047E1,-4.126254371E0,1.778600419E1
1.273601454E1,-8.721571212E0,1.458302951E1,-4.424879860E0,1.755876180E1
1.274605454E1,-7.969300021E0,1.241182035E1,-3.970443031E0,1.527505957E1
1.275609454E1,-5.621776838E0,1.026876552E1,-3.175373729E0,1.212991832E1
1.276613454E1,-3.772917069E0,9.224090865E0,-2.562876720E0,1.029014541E1
1.277617554E1,-2.582384201E0,8.556411343E0,-1.858210051E0,9.128736376E0
1.278621554E1,-1.372116250E0,8.342848223E0,-7.087614745E-1,8.484583803E0
1.279625554E1,-2.403151546E-1,8.484554325E0,4.178449541E-1,8.498235574E0
1.280629554E1,5.759094458E-1,8.685182819E0,1.181809407E0,8.784118952E0
1.281633654E1,1.210048389E0,8.736152413E0,1.848203126E0,9.011128170E0
1.282637654E1,1.335992882E0,8.409428714E0,1.989918584E0,8.744320685E0
1.283641654E1,9.134415773E-1,7.629473881E0,1.628844831E0,7.854704494E0
1.284645654E1,4.788252007E-1,6.445700979E0,6.517365038E-1,6.496236999E0
1.285649754E1,3.981483889E-1,4.388127771E0,-1.125126498E0,4.547537478E0
1.286653754E1,5.209591988E0,-5.459398490E0,-3.277995288E0,8.227401392E0
1.287657754E1,2.115316099E1,-4.578932592E1,-1.264840688E1,5.200096907E1
1.288661754E1,2.532058152E1,-8.459707635E1,-2.273467612E1,9.118477216E1
1.289665854E1,9.070214953E0,-5.497639631E1,-8.501499556E0,5.636442535E1
1.290669854E1,1.698254789E0,-1.874054485E1,-2.525397238E0,1.898604018E1
1.291673854E1,-2.113714079E0,-1.065456364E1,-5.548772304E-1,1.087636899E1
1.292677854E1,-5.772772411E0,-1.124861269E1,9.454636638E0,1.578753757E1
1.293681954E1,-5.601356606E0,-1.478147583E1,1.547298626E1,2.211968642E1
1.294685954E1,-1.409099889E0,-1.387153914E1,1.404330344E1,1.978937928E1
1.295689954E1,1.482549834E-1,-1.096609043E1,7.033249673E0,1.302857321E1
1.296693954E1,2.008225193E0,-6.845259935E0,2.973738345E0,7.728756158E0
1.297697967E1,3.254249745E0,-3.040585468E0,6.256486396E-1,4.497414548E0
1.298701967E1,2.160592961E0,-1.200263804E-1,-3.393770012E-1,2.190375544E0
1.299705967E1,1.778240899E0,3.201593229E0,-1.235294473E0,3.865008711E0
1.300709967E1,1.365601867E0,6.189471896E0,-2.221099949E0,6.716227795E0
1.301714067E1,7.665319651E-1,8.574619573E0,-3.117955241E0,9.156053569E0
1.302718067E1,-7.045033859E-1,1.025030469E1,-3.991739759E0,1.102266110E1
1.303722067E1,-1.599322093E0,1.162943132E1,-3.647551596E0,1.229252360E1
1.304726067E1,-2.814590583E0,1.219061199E1,-2.920669600E0,1.284769442E1
1.305730167E1,-4.501776593E0,1.207111362E1,-2.936858786E0,1.321373966E1
1.306734167E1,-5.762191290E0,1.209751496E1,-2.432660982E0,1.361875751E1
1.307738167E1,-6.443997100E0,1.290360977E1,-1.486371574E0,1.449957049E1
1.308742167E1,-6.401401888E0,1.392903247E1,-5.433653784E-1,1.533920264E1
1.309746267E1,-6.212113484E0,1.461901445E1,5.304032707E-1,1.589299421E1
1.310750267E1,-5.730468975E0,1.479327551E1,1.422566757E0,1.592805610E1
1.311754267E1,-4.628402141E0,1.373700874E1,1.150498152E0,1.454136038E1
1.312758267E1,-3.446080518E0,1.127329378E1,5.664490163E-1,1.180184257E1
1.313762367E1,-2.657158395E0,9.185814407E0,-5.491120219E-3,9.562411161E0
1.314766367E1,-2.001375179E0,7.745270385E0,-6.799031264E-1,8.028510709E0
1.315770367E1,-1.182780483E0,6.907791814E0,-1.461323857E0,7.159051950E0
1.316774367E1,-5.228312726E-1,6.165804121E0,-2.442481965E0,6.652534190E0
1.317778467E1,2.839608188E-1,5.842299898E0,-3.227819161E0,6.680712416E0
1.318782467E1,9.964564714E-1,6.502268697E0,-3.509022287E0,7.455579194E0
1.319786467E1,6.877145679E-1,7.681684839E0,-3.063039361E0,8.298400051E0
1.320790467E1,3.766074657E-1,8.513676968E0,-2.466438593E0,8.871744362E0
1.321794567E1,4.053536204E-1,9.174224641E0,-2.018192210E0,9.402329983E0
1.322798567E1,4.219524769E-1,9.543332468E0,-1.760339940E0,9.713497577E0
1.323802567E1,-4.695531978E-1,9.008242654E0,-1.695729377E0,9.178475583E0
1.324806567E1,-1.564018505E0,7.778731661E0,-1.933906351E0,8.166689288E0
1.325810667E1,-2.766407772E0,5.809074849E0,-2.487404954E0,6.898227742E0
1.326814667E1,-4.174438059E0,2.356777571E0,-3.545094929E0,5.962217011E0
1.327818667E1,-4.558649244E0,-4.045005555E0,-5.862330705E0,8.456374765E0
1.328822667E1,-1.464710564E0,-1.811133182E1,-1.090031510E1,2.118920920E1
1.329826767E1,7.736153991E0,-4.546348632E1,-1.634591358E1,4.892816732E1
1.330830767E1,1.123808770E1,-5.900828071E1,-1.322877344E1,6.150831045E1
1.331834767E1,5.608392561E0,-3.512069738E1,-6.347923254E0,3.612773978E1
1.332838767E1,3.218738143E0,-1.656776512E1,5.158323601E0,1.764821291E1
1.333842767E1,9.254618447E-1,-1.207388520E1,1.877714257E1,2.234314809E1
1.334846867E1,-2.857375245E0,-1.433497659E1,1.439501580E1,2.051518041E1
1.335850867E1,-3.022964592E0,-1.656538063E1,6.022095348E0,1.788339405E1
1.336854867E1,-2.026285634E0,-1.513709179E1,3.066162944E-1,1.527518886E1
1.337858967E1,-1.194522642E0,-1.185117645E1,-3.237811468E0,1.234344727E1
1.338862967E1,-1.196127922E0,-9.132831032E0,-4.101670922E0,1.008280859E1
1.339866967E1,-1.447130179E0,-6.385250124E0,-2.360987713E0,6.959875565E0
1.340870967E1,-1.446432753E0,-3.422641954E0,-2.094718230E-1,3.721629227E0
1.341875067E1,-1.411020260E0,-1.455585399E0,7.450650823E-1,2.159821522E0
1.342879067E1,-1.406699899E0,7.408071399E-1,1.567267803E0,2.232471319E0
1.343883067E1,-1.206848792E0,3.168062956E0,2.200197322E0,4.041531289E0
1.344887067E1,-8.487198436E-1,5.100712155E0,2.846173149E0,5.902397094E0
1.345891067E1,-3.000299907E-1,6.525949920E0,3.320091147E0,7.328099725E0
1.346895167E1,-7.988743767E-2,7.777182734E0,3.185289438E0,8.404583397E0
1.347899167E1,1.525114641E-2,9.019153558E0,2.662445447E0,9.403934244E0
1.348903167E1,-1.051486518E-1,1.012795054E1,2.111010911E0,1.034614930E1
1.349907167E1,-2.439548271E-1,1.119885054E1,1.473326436E0,1.129798470E1
1.350911267E1,-3.212065592E-1,1.207277890E1,8.081044990E-1,1.210405705E1
1.351915267E1,-7.259291189E-1,1.266350205E1,1.543939751E-1,1.268523136E1
1.352919267E1,-1.011785678E0,1.307653182E1,-4.340177679E-1,1.312279567E1
1.353923267E1,-3.155793816E-1,1.329204733E1,-7.019996812E-1,1.331431245E1
1.354927367E1,1.681846917E0,1.309236374E1,-1.226390333E0,1.325679564E1
1.355931367E1,3.638554485E0,1.278495340E1,-2.069147771E0,1.345271291E1
1.356935367E1,3.855065479E0,1.288279369E1,-2.954733725E0,1.376801926E1
1.357939367E1,2.013625096E0,1.294020282E1,-4.013135306E0,1.369703581E1
1.358943467E1,-1.362276628E-1,1.222297516E1,-4.134893632E0,1.290414759E1
1.359947467E1,-1.423673343E0,1.100652042E1,-3.674889084E0,1.169081465E1
1.360951467E1,-2.367463650E0,9.731054403E0,-2.829139041E0,1.040684062E1
1.361955467E1,-2.965847820E0,8.930529649E0,-1.982168099E0,9.616631608E0
1.362959567E1,-3.234477385E0,8.364282947E0,-1.234974046E0,9.052526391E0
1.363963567E1,-3.666324959E0,7.867668981E0,-9.741566527E-1,8.734479669E0
1.364967567E1,-3.672124520E0,7.977887242E0,-1.282203176E0,8.875541016E0
1.365971567E1,-3.830160726E0,8.447546128E0,-2.324111516E0,9.562042727E0
1.366975667E1,-4.108565959E0,8.771705239E0,-4.175695503E0,1.054796473E1
1.367979667E1,-3.568963848E0,8.017901493E0,-4.873692838E0,1.003878126E1
1.368983667E1,-1.190438216E0,7.049986743E0,-4.744445983E0,8.580747281E0
1.369987667E1,1.506629253E0,5.240939496E0,-5.013509120E0,7.407607725E0
1.370991767E1,3.454347604E0,1.004158716E0,-5.657153077E0,6.704046020E0
1.371995767E1,5.847130283E0,-6.278346650E0,-6.713147360E0,1.089370996E1
1.372999767E1,1.028260354E1,-2.031515208E1,-1.029015230E1,2.498648783E1
1.374003767E1,1.713812593E1,-4.103736860E1,-1.332374859E1,4.642524377E1
1.375007867E1,1.062395347E1,-4.620994187E1,-9.041348419E0,4.826979486E1
1.376011867E1,-1.837476701E0,-2.871676833E1,-5.723523653E0,2.933918586E1
1.377015867E1,-7.606002572E0,-1.843622534E1,-2.190726295E0,2.006352316E1
1.378019867E1,-1.212050855E1,-2.056096669E1,1.448456006E1,2.791885669E1
1.379023967E1,-8.912429008E0,-2.219518862E1,1.733723648E1,2.954043936E1
1.380027967E1,-5.106722508E0,-2.066636626E1,1.031554442E1,2.365560749E1
1.381031967E1,-2.165949157E0,-1.797330479E1,5.935611520E0,1.905157487E1
1.382035967E1,1.390994132E-1,-1.483310674E1,2.491345392E0,1.504151608E1
1.383040067E1,1.566724012E0,-1.188302506E1,1.142557633E0,1.204019712E1
1.384044067E1,3.422367720E0,-8.422952739E0,8.148330362E-1,9.128126124E0
1.385048067E1,4.856870399E0,-5.117220599E0,-9.425045049E-1,7.117826316E0
1.386052067E1,4.561769611E0,-3.423099791E0,-2.319806796E0,6.157016951E0
1.387056167E1,5.309253686E0,-8.443642527E-1,-2.230209911E0,5.820220094E0
1.388060167E1,5.788148834E0,2.142564826E0,-2.114084208E0,6.524002069E0
1.389064167E1,6.380106329E0,5.154683125E0,-1.607128272E0,8.358192159E0
1.390068167E1,6.931054961E0,7.789285886E0,-1.616957442E0,1.055116339E1
1.391072267E1,5.923487903E0,9.474662767E0,-1.524811755E0,1.127749947E1
1.392076267E1,4.006391712E0,1.058085013E1,-1.033673122E0,1.136107584E1
1.393080267E1,2.314581286E0,1.193225394E1,-7.598018199E-1,1.217839355E1
1.394084267E1,6.000452902E-1,1.333751528E1,-9.453649628E-1,1.338443435E1
1.395088367E1,-1.601977752E-1,1.461862853E1,-1.446791772E0,1.469092134E1
1.396092367E1,-5.346911070E-1,1.542817437E1,-1.819997327E0,1.554435104E1
1.397096417E1,-2.028293714E0,1.562259312E1,-2.306106770E0,1.592160543E1
1.398100417E1,-3.200888347E0,1.546130118E1,-2.790607059E0,1.603387066E1
1.399104517E1,-3.683047119E0,1.512496466E1,-2.980250974E0,1.584964630E1
1.400108517E1,-4.490549062E0,1.441697677E1,-3.193573773E0,1.543415575E1
1.401112517E1,-5.169514003E0,1.325481460E1,-3.162864781E0,1.457455655E1
1.402116517E1,-5.452938486E0,1.185977536E1,-2.832795305E0,1.335715310E1
1.403120617E1,-5.261163261E0,9.971603007E0,-2.465648049E0,1.154088929E1
1.404124617E1,-4.813227366E0,8.261981231E0,-2.148300360E0,9.800137038E0
1.405128617E1,-4.268570922E0,7.229591573E0,-1.700948601E0,8.566266291E0
1.406132617E1,-3.848540571E0,6.615929798E0,-1.109952974E0,7.733937369E0
1.407136717E1,-3.686257240E0,6.297965228E0,-5.175230241E-1,7.315783522E0
1.408140717E1,-3.146335287E0,6.515503870E0,1.811180896E-1,7.237680580E0
1.409144717E1,-2.606340536E0,7.234975689E0,6.003546810E-1,7.713514760E0
1.410148717E1,-2.191121859E0,8.217051226E0,7.407042289E-1,8.536368584E0
1.411152817E1,-1.947598045E0,8.934243216E0,7.920942378E-1,9.178303398E0
1.412156817E1,-1.894998393E0,9.276657919E0,8.069099128E-1,9.502552534E0
1.413160817E1,-2.207018099E0,8.892229217E0,5.484337084E-1,9.178423006E0
1.414164817E1,-2.920578384E0,7.314923499E0,1.396081209E-1,7.877650305E0
1.415168917E1,-2.264094672E0,4.632014551E0,-2.125346311E-1,5.160121554E0
1.416172917E1,-6.887544952E-1,-1.034295850E0,-1.205687681E0,1.731425264E0
1.417176917E1,2.387541820E0,-1.767964592E1,-5.875384029E0,1.878271475E1
1.418180917E1,1.449532946E1,-5.964195984E1,-1.822760020E1,6.402752033E1
1.419185017E1,1.676763816E1,-8.018031418E1,-1.868795733E1,8.401949905E1
1.420189017E1,4.792839586E0,-3.885546371E1,-3.955837855E0,3.934929510E1
1.421193017E1,1.397122744E-1,-1.452077888E1,-6.244403856E-1,1.453487065E1
1.422197017E1,-4.114949949E0,-9.683680261E0,3.237113602E0,1.100842318E1
1.423201117E1,-8.414369611E0,-1.161646687E1,1.559221917E1,2.118634507E1
1.424205117E1,-5.625790951E0,-1.286650802E1,1.982313695E1,2.429307126E1
1.425209117E1,-1.189797873E0,-1.027378711E1,1.557052834E1,1.869244964E1
1.426213117E1,1.238523598E0,-7.411163406E0,9.476017567E0,1.209355997E1
1.427217217E1,2.641687832E0,-3.993530762E0,5.572023464E0,7.346716820E0
1.428221217E1,3.940846179E0,-1.104119207E0,2.850570548E0,4.987494389E0
1.429225217E1,3.403093835E0,1.286513159E0,1.504941454E0,3.937132528E0
1.430229217E1,2.369655625E0,3.459774113E0,9.034219348E-1,4.289694148E0
1.431233317E1,2.683630494E0,5.530547410E0,2.174637973E-1,6.151107037E0
1.432237317E1,3.086342270E0,7.217400128E0,-2.350392850E-1,7.853127828E0
1.433241317E1,2.440809077E0,8.883704562E0,-4.629907946E-1,9.224538805E0
1.434245317E1,1.781123576E0,1.033008878E1,-9.847143853E-1,1.052866553E1
1.435249417E1,1.302609082E0,1.134830537E1,-1.004476805E0,1.146690015E1
1.436253417E1,1.087164986E0,1.233133459E1,-9.524307382E-1,1.241575068E1
1.437257417E1,7.339639241E-1,1.347479504E1,-1.549326791E0,1.358341701E1
1.438261417E1,-1.442888170E-2,1.444106496E1,-2.264636562E0,1.461756287E1
1.439265517E1,-7.185324642E-1,1.505280066E1,-3.007914151E0,1.536719377E1
1.440269517E1,-8.093593115E-1,1.531549618E1,-3.662622210E0,1.576814153E1
1.441273517E1,-6.265431905E-1,1.564424887E1,-4.443973943E0,1.627525678E1
1.442277517E1,3.136936180E-2,1.599572500E1,-4.787300811E0,1.669677967E1
1.443281617E1,5.802019234E-1,1.543047934E1,-4.635183742E0,1.612207354E1
1.444285617E1,1.073754616E0,1.448820522E1,-4.257802690E0,1.513901989E1
1.445289617E1,1.401390773E0,1.293653194E1,-4.002723754E0,1.361394697E1
1.446293617E1,7.600333697E-1,1.052866607E1,-3.889361445E0,1.124978188E1
1.447297717E1,2.487452682E-1,9.099373848E0,-3.487288771E0,9.747905499E0
1.448301717E1,4.722307475E-1,8.542223659E0,-2.904292719E0,9.034794027E0
1.449305717E1,4.377593647E-1,8.029804670E0,-2.272287644E0,8.356595445E0
1.450309717E1,4.431843017E-1,7.506843150E0,-1.525937344E0,7.673173476E0
1.451313817E1,1.474334314E-1,6.835243070E0,-1.146068301E0,6.932225977E0
1.452317817E1,1.779909073E-1,5.517827961E0,-9.434172553E-1,5.600726943E0
1.453321817E1,4.721076270E-1,2.663041863E0,-1.190143443E0,2.954846695E0
1.454325817E1,2.008738140E0,-3.806099433E0,-2.342820268E0,4.900023328E0
1.455329917E1,7.688116191E0,-2.194112476E1,-5.990957755E0,2.400857474E1
1.456333917E1,1.524735156E1,-5.407307166E1,-1.159929828E1,5.736656281E1
1.457337917E1,6.562597345E0,-5.901602710E1,-1.074832141E1,6.034472265E1
1.458341917E1,-4.237981506E0,-2.946495933E1,-6.167232596E0,3.040031371E1
1.459346017E1,-8.983241129E0,-1.300580741E1,-4.864747767E0,1.653830156E1
1.460350017E1,-5.804070218E0,-1.656754293E1,3.043508492E0,1.781666786E1
1.461354017E1,-6.173550512E0,-2.139208056E1,1.240238996E1,2.548633189E1
1.462358017E1,-4.790947135E0,-2.138684146E1,1.210441819E1,2.503731419E1
1.463362117E1,-5.924612322E-1,-1.653412492E1,8.766145706E0,1.872361097E1
1.464366117E1,3.922117840E-1,-1.105214507E1,5.505441220E0,1.235368867E1
1.465370117E1,1.757663670E0,-6.989827080E0,3.352052028E0,7.948793429E0
1.466374117E1,3.123068631E0,-4.274429247E0,2.656066135E0,5.922751926E0
1.467378217E1,3.439853818E0,-1.906902739E0,2.158305531E0,4.486329804E0
1.468382217E1,3.368784420E0,3.182697952E-1,1.226028902E0,3.599048625E0
1.469386217E1,3.088782313E0,2.823238615E0,-5.446611945E-1,4.219941738E0
1.470390217E1,2.340483428E0,4.976207977E0,-2.535177290E0,6.055380450E0
1.471394317E1,8.426682678E-1,6.690796963E0,-4.304133103E0,8.000150972E0
1.472398317E1,-8.299524741E-1,8.148356382E0,-6.332056249E0,1.035275177E1
1.473402317E1,-1.251529414E0,9.369964862E0,-6.649558890E0,1.155764686E1
1.474406317E1,-2.484417027E0,9.854908955E0,-6.428970340E0,1.202593939E1
1.475410417E1,-3.583781862E0,1.083523091E1,-5.663094433E0,1.274034379E1
1.476414417E1,-4.117995179E0,1.227296769E1,-4.318881535E0,1.364684424E1
1.477418417E1,-4.626737439E0,1.329256890E1,-2.958104060E0,1.438226223E1
1.478422417E1,-5.420022170E0,1.394908959E1,-2.132509954E0,1.511626077E1
1.479426517E1,-6.216277871E0,1.430565280E1,-1.556434667E0,1.567534056E1
1.480430517E1,-6.157305193E0,1.368681858E1,-7.274287105E-1,1.502566347E1
1.481434517E1,-5.677695515E0,1.130576922E1,2.906153888E-1,1.265468693E1
1.482438517E1,-4.808894579E0,9.409352877E0,1.090401639E0,1.062310521E1
1.483442617E1,-4.158329272E0,8.051770905E0,1.518954599E0,9.188576610E0
1.484446617E1,-3.077917601E0,6.693828744E0,1.863290112E0,7.599524331E0
1.485450617E1,-1.539946249E0,6.020579165E0,1.887558396E0,6.494742845E0
1.486454617E1,-3.202096090E-2,6.193840935E0,1.747055651E0,6.435595879E0
1.487458717E1,1.099082050E0,7.070473632E0,1.579916500E0,7.327736000E0
1.488462717E1,1.661745944E0,8.453942397E0,9.732620287E-1,8.670512131E0
1.489466717E1,1.798842686E0,9.814319923E0,2.983226220E-1,9.982269629E0
1.490470717E1,1.597648035E0,1.094913818E1,-3.181481731E-1,1.106965783E1
1.491474817E1,1.400329358E0,1.186642832E1,-7.602432847E-1,1.197292835E1
1.492478817E1,1.210846022E0,1.244379409E1,-9.075334775E-1,1.253546076E1
1.493482817E1,1.042009424E0,1.265495342E1,-9.392324030E-1,1.273246980E1
1.494486817E1,7.996550531E-1,1.264599549E1,-1.063129056E0,1.271577341E1
1.495490917E1,1.287028445E-1,1.260609175E1,-1.651772933E0,1.271449831E1
1.496494917E1,-2.640057336E-1,1.156275903E1,-2.799070319E0,1.189965924E1
1.497498879E1,-7.668601401E-1,8.470301737E0,-4.236200151E0,9.501551332E0
1.498502879E1,-2.060028746E0,4.106433479E0,-5.587851877E0,7.233989422E0
1.499506979E1,-3.002487642E0,-4.113763549E0,-7.076548305E0,8.718687888E0
1.500510979E1,1.041131976E0,-2.799549791E1,-1.107818155E1,3.012570274E1
1.501514979E1,1.535925441E1,-8.032217231E1,-2.081286708E1,8.438443871E1
1.502518979E1,1.981829078E1,-7.697669489E1,-9.899472924E0,8.010103476E1
1.503523079E1,7.105814788E0,-2.676156233E1,3.767461617E0,2.794400810E1
1.504527079E1,-4.331329745E-1,-8.540228589E0,1.101612739E1,1.394554306E1
1.505531079E1,8.966022541E-1,-8.148508410E0,1.900328832E1,2.069606368E1
1.506535079E1,6.446115985E-1,-1.471848026E1,1.658819179E1,2.218597061E1
1.507539179E1,1.957122428E0,-1.821252491E1,7.850228491E0,1.992868483E1
1.508543179E1,3.178490003E0,-1.720172258E1,1.528354729E0,1.755955372E1
1.509547179E1,3.980200864E0,-1.178025440E1,-1.464676212E0,1.252045003E1
1.510551179E1,4.792162771E0,-7.009792398E0,-2.779017878E0,8.934481174E0
1.511555279E1,4.448846720E0,-2.763324535E0,-2.678842210E0,5.882550060E0
1.512559279E1,3.758048185E0,6.162099910E-1,-2.096581006E0,4.347216676E0
1.513563279E1,2.836722002E0,3.260477030E0,-1.444034225E0,4.556636591E0
1.514567279E1,2.690261529E0,5.299853117E0,-5.925205815E-1,5.973025264E0
1.515571379E1,2.145184379E0,6.608244803E0,3.281468388E-1,6.955457982E0
1.516575379E1,4.255490993E-1,7.494103237E0,3.860682607E-2,7.506275098E0
1.517579379E1,-1.201856220E0,8.984236325E0,-1.361258701E0,9.165914355E0
1.518583379E1,-2.942408671E0,1.031595489E1,-2.383873569E0,1.098906490E1
1.519587479E1,-3.974914396E0,1.114283071E1,-2.581556236E0,1.210896582E1
1.520591479E1,-4.472088525E0,1.182623924E1,-2.031608647E0,1.280573871E1
1.521595479E1,-4.730431377E0,1.279409844E1,-1.348318813E0,1.370707480E1
1.522599479E1,-4.941845645E0,1.395532506E1,-1.042571415E0,1.484115532E1
1.523603579E1,-4.964500682E0,1.521138885E1,-9.706735394E-1,1.603043433E1
1.524607579E1,-4.939224923E0,1.606295395E1,-1.127046797E0,1.684294116E1
1.525611579E1,-5.508188242E0,1.636023107E1,-1.826046272E0,1.735890962E1
1.526615579E1,-5.916119242E0,1.622546327E1,-2.340882500E0,1.742830618E1
1.527619679E1,-6.089309676E0,1.421516246E1,-2.874718087E0,1.572941640E1
1.528623679E1,-5.265928742E0,1.138197247E1,-2.623097779E0,1.281249175E1
1.529627679E1,-3.896469905E0,9.877101477E0,-1.945213112E0,1.079460353E1
1.530631679E1,-2.473467238E0,8.401149057E0,-1.662107302E0,8.914030869E0
1.531635779E1,-1.242090400E0,7.352577814E0,-1.571271976E0,7.620504228E0
1.532639779E1,-3.615185796E-1,6.278882255E0,-1.551683804E0,6.477868529E0
1.533643779E1,4.890862602E-1,5.746823053E0,-1.542127699E0,5.970204218E0
1.534647779E1,6.988428426E-1,6.078011101E0,-1.570262747E0,6.316353803E0
1.535651879E1,-1.940632403E-2,7.300999525E0,-1.234403358E0,7.404641944E0
1.536655879E1,-2.216926499E-1,8.047934546E0,-9.480698848E-1,8.106616717E0
1.537659879E1,-3.384986763E-1,8.040901515E0,-7.339097643E-1,8.081417084E0
1.538663879E1,-5.891924925E-1,7.835012282E0,-7.755805314E-1,7.895320792E0
1.539667979E1,-9.552371825E-1,6.786825201E0,-9.758698869E-1,6.922845977E0
1.540671979E1,-1.372504651E0,4.411369869E0,-1.284568959E0,4.795213295E0
1.541675979E1,-1.812835073E0,-9.417233169E-2,-1.714533437E0,2.496971033E0
1.542679979E1,-6.118553868E-1,-1.336251329E1,-4.298809798E0,1.405029872E1
1.543684079E1,6.548519003E0,-4.668013753E1,-1.292259568E1,4.887649558E1
1.544688079E1,1.372576806E1,-7.453995898E1,-1.521077723E1,7.730439792E1
1.545692079E1,7.541871480E0,-4.584887864E1,-2.443870825E0,4.652925964E1
1.546696079E1,7.561916028E-1,-1.656915442E1,3.607644349E0,1.697420990E1
1.547700179E1,-2.555294636E0,-1.064971045E1,8.076160226E0,1.360772675E1
1.548704179E1,-5.684350962E-1,-1.451744597E1,1.027681714E1,1.779585139E1
1.549708179E1,4.656621681E-1,-1.648946389E1,1.006997189E1,1.932675851E1
1.550712179E1,5.770147888E-1,-1.559485159E1,7.803931407E0,1.744802819E1
1.551716279E1,1.544801192E0,-1.265925463E1,3.859652327E0,1.332441573E1
1.552720279E1,2.739881586E0,-9.485611678E0,1.714214326E0,1.002109329E1
1.553724279E1,3.178204074E0,-6.252102592E0,9.066433851E-1,7.071900041E0
1.554728279E1,3.087603514E0,-2.917889249E0,2.479755919E-1,4.255451213E0
1.555732379E1,2.746197748E0,9.917871773E-2,-3.643539675E-1,2.772037573E0
1.556736379E1,1.854874507E0,3.549834682E0,-4.656698426E-1,4.032212062E0
1.557740379E1,1.266477674E0,6.380848340E0,-3.184545672E-1,6.513110206E0
1.558744379E1,8.137982252E-1,7.673059611E0,-8.429872334E-1,7.762006108E0
1.559748479E1,-2.288187978E-1,8.863363853E0,-7.954809451E-1,8.901930507E0
1.560752479E1,-1.541548679E0,1.057042338E1,-1.526633162E0,1.079077530E1
1.561756479E1,-2.904519006E0,1.239921726E1,-2.179319254E0,1.291999426E1
1.562760479E1,-2.867381293E0,1.380362256E1,-1.972987971E0,1.423567887E1
1.563764579E1,-2.924041690E0,1.465779786E1,-1.451306992E0,1.501690214E1
1.564768579E1,-2.919018931E0,1.557873199E1,-8.927429456E-1,1.587496620E1
1.565772579E1,-2.799082890E0,1.633588911E1,-6.412647253E-1,1.658636062E1
1.566776579E1,-2.781008270E0,1.680787987E1,-8.156257725E-1,1.705591035E1
1.567780679E1,-3.027382748E0,1.686359915E1,-1.382961227E0,1.718890934E1
1.568784679E1,-3.146258981E0,1.652861685E1,-2.354112995E0,1.698928981E1
1.569788679E1,-3.247795004E0,1.559685251E1,-3.917531576E0,1.640600604E1
1.570792679E1,-3.336175668E0,1.327606806E1,-4.970078341E0,1.456316346E1
1.571796779E1,-3.141037710E0,1.031396333E1,-4.825403023E0,1.181221706E1
1.572800779E1,-2.294285016E0,8.631272660E0,-4.324470888E0,9.922885666E0
1.573804779E1,-8.035336574E-1,7.849263700E0,-3.650957599E0,8.694026591E0
1.574808779E1,4.386953942E-1,7.559416051E0,-2.623317050E0,8.013676873E0
1.575812879E1,1.498080331E0,7.689972682E0,-1.548865446E0,7.986169839E0
1.576816879E1,2.020747882E0,8.080716376E0,-6.776998955E-1,8.357073429E0
1.577820879E1,2.354923419E0,8.317570710E0,5.867856324E-2,8.644714570E0
1.578824879E1,2.309785546E0,7.922372607E0,7.646971089E-1,8.287572543E0
1.579828979E1,2.057974327E0,7.641848343E0,1.356304355E0,8.029487277E0
1.580832979E1,1.705086530E0,7.792876076E0,1.274685996E0,8.078431902E0
1.581836979E1,1.327944921E0,7.635598254E0,4.010125744E-1,7.760580487E0
1.582840979E1,8.940870742E-1,6.385067106E0,-6.536368489E-1,6.480410078E0
1.583845079E1,5.277895653E-1,3.633582598E0,-1.826014112E0,4.100708702E0
1.584849079E1,6.252047628E-1,-3.342528668E0,-4.226185040E0,5.424391108E0
1.585853079E1,2.705724199E0,-2.533980716E1,-1.419215952E1,2.916923314E1
1.586857079E1,5.859324067E0,-7.296543946E1,-3.355911892E1,8.052640249E1
1.587861179E1,2.055425964E0,-8.270500156E1,-2.054019504E1,8.524225286E1
1.588865179E1,-7.758301344E-1,-3.789047198E1,1.125633598E0,3.791512667E1
1.589869179E1,-6.434804692E0,-1.629376226E1,8.186863221E0,1.933696278E1
1.590873179E1,-1.496846978E1,-1.475413892E1,2.144757766E1,3.002895753E1
1.591877279E1,-1.024131986E1,-1.579392589E1,2.137272394E1,2.848027486E1
1.592881279E1,-3.388674894E0,-1.266693437E1,1.742471083E1,2.180722108E1
1.593885279E1,4.073788767E-1,-9.907078983E0,1.071675697E1,1.460017299E1
1.594889279E1,1.344657871E0,-7.693792083E0,4.306124665E0,8.918814441E0
1.595893379E1,9.917363796E-1,-5.689249029E0,-1.041247751E0,5.868159203E0
1.596897379E1,8.624923023E-1,-2.583626150E0,-2.754399930E0,3.873723794E0
1.597901467E1,8.386001406E-1,7.644357383E-1,-3.149537222E0,3.347715177E0
1.598905467E1,7.256341269E-1,3.339415026E0,-3.372001559E0,4.800899094E0
1.599909567E1,1.332258266E0,5.022776957E0,-2.891272724E0,5.946651024E0
1.600913567E1,2.701165125E0,7.204081925E0,-3.201980900E0,8.333532930E0
1.601917567E1,2.943422871E0,9.556592199E0,-2.594995476E0,1.033083705E1
1.602921567E1,2.751673374E0,1.149514065E1,-1.452866444E0,1.190885326E1
1.603925667E1,1.304316469E0,1.258862027E1,-8.924371362E-1,1.268743653E1
1.604929667E1,-3.714443743E-1,1.272937210E1,-9.221521014E-1,1.276813415E1
1.605933667E1,-6.403135295E-1,1.357037128E1,-1.181445125E0,1.363674414E1
1.606937667E1,-1.610875314E0,1.512613177E1,-1.713148232E0,1.530782997E1
1.607941767E1,-2.564616852E0,1.685288471E1,-2.810751302E0,1.727707457E1
1.608945767E1,-2.092735293E0,1.735006177E1,-3.505011097E0,1.782384041E1
1.609949767E1,-1.355336495E0,1.720085369E1,-4.135361994E0,1.774281611E1
1.610953767E1,-1.199677767E0,1.694443340E1,-4.953989142E0,1.769449232E1
1.611957867E1,-1.933480527E0,1.618385332E1,-6.054086634E0,1.738698997E1
1.612961867E1,-2.791819187E0,1.472136645E1,-7.220459391E0,1.663273634E1
1.613965867E1,-3.330177302E0,1.249924675E1,-7.855333695E0,1.513365513E1
1.614969867E1,-3.498283875E0,1.095829843E1,-7.117274162E0,1.352693188E1
1.615973967E1,-2.994136064E0,9.316144166E0,-5.191330549E0,1.107724270E1
1.616977967E1,-2.303865825E0,8.288261542E0,-3.280355809E0,9.206726419E0
1.617981967E1,-1.885330314E0,7.804894443E0,-1.794100594E0,8.227371670E0
1.618985967E1,-1.585536697E0,7.661485632E0,-7.316684534E-1,7.857965859E0
1.619990067E1,-1.175344067E0,7.570590080E0,-2.305036730E-1,7.664750471E0
1.620994067E1,-7.498075397E-1,7.343736824E0,-9.728597403E-3,7.381922279E0
1.621998067E1,-3.631537169E-1,6.775484526E0,1.597067187E-1,6.787089024E0
1.623002067E1,1.044860892E-2,5.477509655E0,1.428030213E-1,5.479380795E0
1.624006167E1,1.385160365E0,1.031840605E0,-2.547093916E-1,1.745921288E0
1.625010167E1,7.435871401E0,-1.870132758E1,-4.139344532E0,2.054667880E1
1.626014167E1,1.550173234E1,-5.944741596E1,-1.516986075E1,6.328051553E1
1.627018167E1,7.262658162E0,-7.200809122E1,-1.731739688E1,7.441642049E1
1.628022267E1,-2.134632493E0,-4.090411757E1,-7.436263164E0,4.162933461E1
1.629026267E1,-2.712107604E0,-1.753458118E1,-1.100286868E0,1.777716783E1
1.630030267E1,-4.308875195E0,-1.215394293E1,1.443049554E0,1.297563587E1
1.631034267E1,-2.148453849E0,-1.550286787E1,8.947382494E0,1.802804536E1
1.632038367E1,1.006739531E0,-1.763770385E1,9.509878793E0,2.006339742E1
1.633042367E1,1.984429218E0,-1.469145209E1,6.773087168E0,1.629881694E1
1.634046367E1,2.086511370E0,-1.037472643E1,2.717085339E0,1.092570505E1
1.635050367E1,2.279807163E0,-6.496301029E0,1.629524131E0,7.074941459E0
1.636054467E1,2.734073839E0,-2.682503151E0,1.870381615E0,4.262547396E0
1.637058467E1,2.991823198E0,6.662890542E-1,1.392738941E0,3.366700003E0
1.638062467E1,3.085864845E0,3.193383738E0,6.826063672E-1,4.492906965E0
1.639066467E1,3.054022078E0,5.525950329E0,-2.168111019E-3,6.313729689E0
1.640070567E1,3.017042824E0,7.506095876E0,-6.052464616E-1,8.112357609E0
1.641074567E1,2.814929430E0,9.597341444E0,-1.605060697E0,1.012961057E1
1.642078567E1,1.702338192E0,1.113441306E1,-2.109992911E0,1.145971987E1
1.643082567E1,-7.311294132E-1,1.189144037E1,-2.206907002E0,1.211657307E1
1.644086667E1,-2.954284074E0,1.224420406E1,-1.922798395E0,1.274148662E1
1.645090667E1,-3.798605642E0,1.346161424E1,-1.479225692E0,1.406529671E1
1.646094667E1,-4.208930199E0,1.492173766E1,-1.740054780E0,1.560131850E1
1.647098767E1,-4.326264229E0,1.540575030E1,-1.646359581E0,1.608614945E1
1.648102767E1,-4.446908368E0,1.502163734E1,-1.345337902E0,1.572369284E1
1.649106767E1,-5.178897614E0,1.346524419E1,-8.585021623E-1,1.445236339E1
1.650110767E1,-5.137277718E0,1.112094575E1,-3.095960720E-1,1.225409754E1
1.651114867E1,-4.047559619E0,9.686636029E0,5.165044026E-1,1.051096728E1
1.652118867E1,-3.331680914E0,8.791579925E0,1.275684700E0,9.487852588E0
1.653122867E1,-2.985308231E0,8.383840129E0,1.781075336E0,9.075961100E0
1.654126867E1,-2.665644459E0,8.398679193E0,1.619861169E0,8.959208825E0
1.655130967E1,-2.231374530E0,8.321766087E0,1.034917994E0,8.677665490E0
1.656134967E1,-1.719107714E0,8.419291213E0,3.799567509E-1,8.601404710E0
1.657138967E1,-1.311895629E0,8.753791124E0,-1.936013103E-1,8.853666509E0
1.658142967E1,-1.005852435E0,9.139171168E0,-6.474446476E-1,9.217123918E0
1.659146967E1,-8.330280364E-1,9.567348737E0,-1.032397259E0,9.658878903E0
1.660151067E1,-7.424660680E-1,9.860806457E0,-1.233328639E0,9.965332878E0
1.661155067E1,-6.279479109E-1,1.018718868E1,-1.180440574E0,1.027455944E1
1.662159067E1,-3.224903154E-1,1.034461093E1,-1.027790823E0,1.040054466E1
1.663163167E1,1.954895224E-1,1.022527861E1,-8.448630202E-1,1.026198482E1
1.664167167E1,6.235694428E-1,9.833247360E0,-9.129561853E-1,9.895204975E0
1.665171167E1,6.443397760E-1,8.173318146E0,-1.410560085E0,8.319133549E0
1.666175167E1,4.475292946E-1,5.115709679E0,-1.877222857E0,5.467607671E0
