"Time (s)","Acceleration x (m/s^2)","Acceleration y (m/s^2)","Acceleration z (m/s^2)","Absolute acceleration (m/s^2)"
6.688333524E-4,-1.509610748E0,-1.184531754E1,7.842192078E-1,1.196684887E1
1.059283334E-2,-1.634002075E0,-9.857451324E0,1.138233032E0,1.005658410E1
2.051608334E-2,-1.596280518E0,-9.889035645E0,1.912572784E0,1.019799353E1
3.043908335E-2,-2.111658783E0,-1.032986893E1,2.406545563E0,1.081465471E1
4.036208335E-2,-2.416275330E0,-9.839638367E0,3.208278351E0,1.062778997E1
5.028508336E-2,-2.359094238E0,-1.045845154E1,2.859653320E0,1.109604215E1
6.020808333E-2,-1.749262390E0,-1.305390427E1,1.152303772E0,1.322089783E1
7.013108334E-2,-2.849025421E0,-1.290945465E1,2.019899597E0,1.337351710E1
8.005408334E-2,-3.150199127E0,-1.198722244E1,2.607278137E0,1.266551048E1
8.997708335E-2,-2.593656464E0,-1.121168518E1,2.992427216E0,1.189048187E1
9.990108333E-2,-2.035167847E0,-9.090446320E0,3.099903717E0,9.817714882E0
1.098240833E-1,-1.323547668E0,-6.604865112E0,2.871478729E0,7.322664247E0
1.197470833E-1,-1.382974091E0,-5.432503052E0,2.541415100E0,6.154957145E0
1.296700833E-1,-1.970951385E0,-6.277495880E0,1.759590912E0,6.810856339E0
1.395930834E-1,-2.642305298E0,-8.044870605E0,1.004561005E0,8.527066504E0
1.495160834E-1,-2.672392731E0,-9.542356567E0,2.938389587E-1,9.913858638E0
1.594390833E-1,-2.682421875E0,-9.774523773E0,1.121168518E-1,1.013653157E1
1.693630833E-1,-2.188299408E0,-1.057266403E1,7.831713867E-1,1.082512062E1
1.792860834E-1,-2.871778107E0,-1.067100952E1,8.333171082E-1,1.108205627E1
1.892090834E-1,-2.646047516E0,-1.037238052E1,8.629554749E-1,1.073929874E1
1.991320833E-1,-2.339634705E0,-9.938881989E0,1.212179260E0,1.028224899E1
2.090550833E-1,-2.245929565E0,-9.730215912E0,1.434766388E0,1.008860029E1
2.189780833E-1,-1.850002899E0,-9.463171234E0,1.401984558E0,9.743699566E0
2.289010833E-1,-1.079555054E0,-9.294472046E0,1.030756531E0,9.413559834E0
2.388240834E-1,-9.684860229E-2,-9.442813568E0,5.269042969E-1,9.457998513E0
2.487480833E-1,9.183403015E-1,-9.841434631E0,5.134323120E-2,9.884321962E0
2.586710833E-1,1.907034302E0,-1.031594788E1,-2.757266235E-1,1.049435970E1
2.685940833E-1,2.378553772E0,-1.070364166E1,-3.477268982E-1,1.097024963E1
2.785170834E-1,2.221679993E0,-1.064616119E1,-2.562670898E-1,1.087852393E1
2.884400834E-1,1.657802582E0,-1.016985168E1,-1.058299255E-1,1.030462967E1
2.983630833E-1,1.127455444E0,-9.595645752E0,-7.185058594E-2,9.661921946E0
3.082860833E-1,4.731660461E-1,-8.972042542E0,-3.562591553E-1,8.991571279E0
3.182090833E-1,-4.366419983E-1,-8.348888397E0,-9.656419373E-1,8.415881300E0
3.281330834E-1,-1.574575653E0,-7.431595917E0,-1.538350983E0,7.750769646E0
3.380560834E-1,-2.814896393E0,-6.129902802E0,-2.148332520E0,7.079172457E0
3.479790833E-1,-3.824696503E0,-4.659211121E0,-2.765798492E0,6.632208750E0
3.579020833E-1,-4.067341919E0,-3.164868622E0,-2.564616852E0,5.756467951E0
3.678250833E-1,-3.879482574E0,-8.322692871E-1,-1.045875092E0,4.103280629E0
3.777480834E-1,-3.974684601E0,1.480271759E0,2.354753265E0,4.851204500E0
3.876710834E-1,-3.662433929E0,3.416046295E0,9.629176025E0,1.085374707E1
3.975940833E-1,-2.102827148E0,2.977757721E0,1.597328339E1,1.638397709E1
4.075180833E-1,-2.026036835E0,-4.140390015E-1,1.860720612E1,1.872176202E1
4.174410834E-1,-1.716779938E0,-5.987548828E0,1.847158813E1,1.949352822E1
4.273640834E-1,1.368903351E0,-1.365550323E1,1.712573685E1,2.194624176E1
4.372870833E-1,2.201472015E0,-2.382715118E1,1.492785736E1,2.820320085E1
4.472100833E-1,-7.324269104E-1,-4.214949966E1,7.269033966E0,4.277798062E1
4.571330833E-1,-5.954168243E0,-5.787444946E1,-2.114353180E0,5.821833482E1
4.670560833E-1,-1.046743286E1,-4.936584320E1,-7.075336761E0,5.095698201E1
4.769790834E-1,-5.172344055E0,-3.435595642E1,-6.738237762E0,3.539051755E1
4.869030833E-1,-5.143454132E0,-2.738450363E1,-9.092092896E-1,2.787817822E1
4.968260833E-1,-7.847131805E0,-2.403896072E1,3.768114166E0,2.556653662E1
5.067490833E-1,-8.084538116E0,-2.058923447E1,5.618715820E0,2.282205731E1
5.166720834E-1,-7.645351410E0,-1.557795547E1,2.818039856E0,1.758025721E1
5.265950834E-1,-7.443870392E0,-1.076261902E1,1.088087311E0,1.313122647E1
5.365180833E-1,-5.328619080E0,-7.297325134E0,1.152902527E0,9.109024078E0
5.464410833E-1,-3.437900848E0,-4.414919128E0,1.876497803E0,5.901857094E0
5.563650834E-1,-1.648372192E0,-1.677711182E0,4.273014221E0,4.877550228E0
5.662880834E-1,3.242257690E-1,9.731263733E-1,6.772067413E0,6.849306121E0
5.762110834E-1,2.755020905E0,3.424877930E0,8.121810608E0,9.234919413E0
5.861340833E-1,5.371430054E0,5.452860718E0,7.920030212E0,1.101421034E1
5.960570833E-1,6.895560608E0,6.925348663E0,6.356082458E0,1.165800130E1
6.059800833E-1,7.116052094E0,7.718100128E0,4.517605591E0,1.142873691E1
6.159030834E-1,6.456074524E0,8.171806641E0,1.713786163E0,1.055444859E1
6.258260834E-1,5.678591309E0,8.316106567E0,-9.861492920E-1,1.011812819E1
6.357490833E-1,5.225483551E0,8.065677338E0,-2.744243317E0,9.994583565E0
6.456730833E-1,4.816683655E0,7.185657349E0,-3.761827240E0,9.433210331E0
6.555960834E-1,1.968556366E0,4.619244232E0,-4.153562622E0,6.516495523E0
6.655190834E-1,-1.918410645E0,5.487588501E-1,-2.985541534E0,3.590946105E0
6.754420834E-1,-2.995121613E0,-2.189347229E0,-1.072968750E0,3.862027538E0
6.853650833E-1,-2.993624725E0,-3.874542847E0,5.164260864E-1,4.923471049E0
6.952880833E-1,-3.185375977E0,-4.941374359E0,1.429377594E0,6.050365359E0
7.052110833E-1,-3.639681244E0,-5.425018616E0,9.593550110E-1,6.602913643E0
7.151350834E-1,-3.949686584E0,-5.569019165E0,-6.215075684E-1,6.855674309E0
7.250580833E-1,-3.920796661E0,-5.590724030E0,-2.762954407E0,7.366325997E0
7.349810833E-1,-3.332220612E0,-5.617368622E0,-4.797822876E0,8.104173541E0
7.449040833E-1,-2.278861084E0,-5.541476440E0,-5.475463715E0,8.116764865E0
7.548270834E-1,-8.939410400E-1,-5.301974487E0,-4.864883423E0,7.251010603E0
7.647500834E-1,-3.103047180E-1,-4.473297729E0,-3.550616455E0,5.719576803E0
7.746730834E-1,-7.131170654E-1,-3.364553375E0,-1.896705780E0,3.927626278E0
7.845960833E-1,-1.632505188E0,-2.255359955E0,3.369493103E-1,2.804506472E0
7.945200833E-1,-3.446582794E0,-1.485510864E0,2.783761139E0,4.672793764E0
8.044430834E-1,-5.747747498E0,-2.674488373E0,4.906197510E0,8.016249956E0
8.143660834E-1,-7.569608917E0,-5.259462891E0,5.983207855E0,1.098907209E1
8.242890833E-1,-1.022553589E1,-8.710835724E0,4.595743103E0,1.419722148E1
8.342120833E-1,-8.883875885E0,-1.316093170E1,1.755848694E-1,1.587967897E1
8.441350833E-1,-2.731819153E0,-1.891391830E1,-1.539698181E0,1.917211026E1
8.540580834E-1,6.953939209E0,-3.528297867E1,2.564616852E0,3.605305970E1
8.639820833E-1,1.247445923E1,-6.010181763E1,9.132808228E0,6.205843054E1
8.739050833E-1,-8.981323242E-4,-7.268300491E1,1.075453583E1,7.347434413E1
8.838280833E-1,-7.118447113E0,-5.871105972E1,1.211999634E1,6.037015102E1
8.937510833E-1,-4.288432159E0,-3.505185928E1,1.122860001E1,3.705543075E1
9.036740834E-1,-9.374705200E0,-2.241229340E1,7.208410034E0,2.534082019E1
9.135970834E-1,-1.330119003E1,-1.521166718E1,-2.639012146E-1,2.020856547E1
9.235200833E-1,-1.384366196E1,-1.090661957E1,-5.170248413E0,1.836662177E1
9.334430833E-1,-9.951904907E0,-8.773255920E0,-5.602998505E0,1.440152849E1
9.433670834E-1,-5.230572968E0,-8.102201385E0,-5.039121094E0,1.088105244E1
9.532900834E-1,-2.383493500E0,-7.831414490E0,-4.047133942E0,9.131888486E0
9.632130833E-1,-1.237925720E-1,-7.003635864E0,-3.047662354E0,7.639010783E0
9.731360833E-1,1.620081024E0,-5.640869751E0,-9.253756714E-1,5.941413485E0
9.830590833E-1,2.836601257E0,-3.972588959E0,1.574875031E0,5.129132587E0
9.929820833E-1,3.927532654E0,-2.285597076E0,3.315305786E0,5.625008373E0
1.002905083E0,4.827161865E0,-3.176394653E-1,4.415218506E0,6.549545095E0
1.012829083E0,4.305496674E0,2.093845825E0,4.302652588E0,6.436948908E0
1.022752458E0,2.762355652E0,4.624633026E0,3.051554260E0,6.191108364E0
1.032675458E0,1.372645569E0,6.716233521E0,1.431024170E0,7.002840762E0
1.042598458E0,8.652008057E-1,8.024213562E0,2.694396973E-3,8.070723820E0
1.052521458E0,1.110091553E0,8.145311737E0,-8.466394043E-1,8.264091289E0
1.062444458E0,1.149010620E0,6.952292633E0,-1.338815918E0,7.172658247E0
1.072367458E0,6.436614990E-3,4.408482513E0,-1.641636200E0,4.704224582E0
1.082290458E0,-8.282276917E-1,2.132016449E0,-1.523980865E0,2.748449186E0
1.092214458E0,-8.912466431E-1,1.290316772E0,-1.012943573E0,1.866893847E0
1.102137458E0,-6.454577637E-1,1.134041748E0,-6.712042236E-1,1.467372318E0
1.112060458E0,-1.844165039E-1,1.109642487E0,-7.048841858E-1,1.327470380E0
1.121983458E0,7.933502197E-2,1.115180969E0,-6.487509155E-1,1.292594442E0
1.131906458E0,2.552192688E-1,1.182540894E0,-2.314187622E-1,1.231703894E0
1.141829458E0,3.655398560E-1,1.160087585E0,5.878276062E-1,1.350912242E0
1.151752458E0,4.152365112E-1,7.813751221E-1,1.232985992E0,1.517637275E0
1.161676458E0,3.737727356E-1,-4.131408691E-2,1.653311920E0,1.695539211E0
1.171599458E0,2.016307068E-1,-1.174906769E0,1.963766327E0,2.297267734E0
1.181522458E0,2.679428101E-2,-2.296973419E0,2.127675476E0,3.131103281E0
1.191445458E0,-2.070195007E-1,-3.295397186E0,2.974763947E0,4.444290745E0
1.201368458E0,-1.472937012E0,-4.162693634E0,4.684807892E0,6.437778088E0
1.211291458E0,-3.839515686E0,-5.439388733E0,6.974596252E0,9.642293471E0
1.221214458E0,-5.770799561E0,-7.731123047E0,8.026309204E0,1.254966257E1
1.231138458E0,-8.512049103E0,-1.427311890E1,5.893694000E0,1.763271198E1
1.241061458E0,-8.669970703E0,-3.389985489E1,1.901046753E-2,3.499098334E1
1.250984458E0,-3.497476959E0,-6.474231766E1,1.893262939E0,6.486435450E1
1.260907458E0,-8.341254272E0,-6.617888031E1,2.610720978E0,6.675355111E1
1.270830458E0,-4.692591705E0,-4.924758911E1,-4.944667511E0,4.971715184E1
1.280753458E0,-3.344046021E-1,-3.931978409E1,-2.630928955E0,3.940912374E1
1.290676458E0,-4.660857697E0,-3.563639374E1,4.078418884E0,3.617056336E1
1.300599458E0,-6.045927429E0,-3.076956436E1,8.531957703E0,3.249790196E1
1.310523458E0,-8.057294769E0,-2.449536163E1,8.688232727E0,2.721080904E1
1.320446458E0,-8.704698486E0,-1.826576614E1,2.880310364E0,2.043786134E1
1.330369458E0,-6.659501495E0,-1.264959503E1,-2.413880310E0,1.449786304E1
1.340292458E0,-4.317920837E0,-8.140072632E0,-3.159629517E0,9.741071886E0
1.350215458E0,-2.832260284E0,-5.187462616E0,-1.647923126E0,6.135724679E0
1.360138458E0,-1.341809692E0,-3.325185242E0,-1.703457642E-1,3.589753170E0
1.370061458E0,1.131646729E-1,-2.301763458E0,1.159039764E0,2.579591913E0
1.379985458E0,1.169068909E0,-1.716330872E0,2.706821136E0,3.411655674E0
1.389908458E0,2.586172028E0,-9.328601074E-1,3.911815338E0,4.781298252E0
1.399831458E0,3.985162811E0,4.658312988E-1,4.365671539E0,5.929385248E0
1.409754458E0,4.818779297E0,2.323767700E0,4.744833069E0,7.150802129E0
1.419677458E0,4.935686188E0,4.667294312E0,5.283562775E0,8.605850912E0
1.429600458E0,3.176095276E0,6.995402985E0,4.715643768E0,9.014462839E0
1.439523458E0,9.819580078E-1,8.547824707E0,2.779869232E0,9.041970012E0
1.449447458E0,-2.872526550E-1,9.026379547E0,1.642085266E-1,9.032441877E0
1.459370458E0,-7.972421265E-1,7.437134399E0,-2.429148560E0,7.864307077E0
1.469293458E0,-1.008303223E0,4.397106171E0,-3.368744659E0,5.630244990E0
1.479216458E0,-1.238823853E0,2.343975677E0,-2.927911377E0,3.949882472E0
1.489139458E0,-1.431323547E0,1.087787933E0,-2.661465454E0,3.211754668E0
1.499062458E0,-1.577120361E0,-1.317260742E-2,-2.924767914E0,3.322912804E0
1.508985458E0,-1.707798615E0,-1.016236725E0,-3.385809174E0,3.925941537E0
1.518909458E0,-1.761985931E0,-1.712139587E0,-3.687431946E0,4.430933394E0
1.528832458E0,-1.389710083E0,-1.956431580E0,-3.074007568E0,3.899800145E0
1.538755458E0,-5.884263611E-1,-2.065854034E0,-1.724414063E0,2.754560279E0
1.548678458E0,8.217910767E-2,-2.439776459E0,-3.385958862E-1,2.464530330E0
1.558601458E0,6.468049622E-1,-2.588267670E0,9.851014709E-1,2.843925297E0
1.568524458E0,1.269360352E0,-2.269730072E0,2.304308167E0,3.474591548E0
1.578447458E0,1.428629150E0,-1.675316162E0,3.287912750E0,3.957023597E0
1.588370458E0,1.089135132E0,-9.400451660E-1,3.935316467E0,4.190061568E0
1.598294458E0,-4.026626587E-2,-3.870950317E-1,4.253704376E0,4.271471041E0
1.608217458E0,-1.779948578E0,-4.011657715E-1,4.488865356E0,4.845519900E0
1.618140458E0,-3.603905640E0,-1.863325195E0,5.228327637E0,6.617818864E0
1.628063458E0,-6.915169830E0,-5.208119659E0,5.670508118E0,1.034885242E1
1.637986458E0,-1.357586884E1,-1.559666656E1,3.518732758E0,2.097478731E1
1.647909458E0,-7.673343201E0,-4.887291824E1,-1.385369110E0,4.949102526E1
1.657832458E0,-1.178199921E0,-7.956479416E1,4.437821503E0,7.969716986E1
1.667756458E0,-1.019604721E1,-7.416776733E1,-1.569935303E0,7.488178541E1
1.677679458E0,-4.965025177E0,-4.666441086E1,-6.174809418E0,4.733230384E1
1.687602458E0,-7.058871002E0,-2.728151779E1,-3.206781464E0,2.836181095E1
1.697525458E0,-6.346352692E0,-2.113125732E1,2.049987030E0,2.215871556E1
1.707448458E0,-4.856351166E0,-1.780083298E1,8.962911530E0,2.051310762E1
1.717371458E0,-5.465584259E0,-1.431009201E1,1.149983597E1,1.915457052E1
1.727294458E0,-5.724695435E0,-1.103759720E1,9.304052124E0,1.552952271E1
1.737218458E0,-4.160148926E0,-8.516988831E0,4.853656769E0,1.064912775E1
1.747141458E0,-1.218615875E0,-5.835165710E0,2.098336487E0,6.319588557E0
1.757064458E0,1.479523315E0,-3.531905365E0,2.014810181E0,4.326985650E0
1.766987458E0,2.907853088E0,-1.721869354E0,1.969903564E0,3.911644630E0
1.776910458E0,3.410058746E0,-5.330415344E-1,1.319206696E0,3.694988530E0
1.786833458E0,3.002156982E0,4.637356567E-1,5.571414185E-1,3.088430648E0
1.796756458E0,2.744842072E0,1.651665344E0,-3.721261597E-1,3.225001440E0
1.806680458E0,2.235002289E0,2.992726593E0,-1.176104279E0,3.915976119E0
1.816603458E0,9.412426758E-1,4.277953949E0,-1.710942078E0,4.702568506E0
1.826526458E0,-7.141648865E-1,4.882696381E0,-1.747316437E0,5.234870596E0
1.836449458E0,-1.646276550E0,4.537963257E0,-1.267264709E0,4.990921442E0
1.846372458E0,-1.858834534E0,3.528462524E0,-6.960525513E-1,4.048432137E0
1.856295458E0,-1.635049896E0,2.209555206E0,3.981719971E-2,2.749019422E0
1.866218458E0,-1.068178711E0,8.102650452E-1,4.881349182E-1,1.426818454E0
1.876142458E0,-4.120930481E-1,-4.966671753E-1,2.715353394E-1,7.001645548E-1
1.886065458E0,3.406915283E-1,-1.368903351E0,-6.200106812E-1,1.540902445E0
1.895988458E0,1.131646729E0,-1.542392578E0,-1.504970398E0,2.434036787E0
1.905911458E0,1.747017059E0,-1.337019653E0,-1.690434723E0,2.774393575E0
1.915834458E0,2.308649139E0,-1.117875366E0,-1.089284821E0,2.786762926E0
1.925757458E0,2.686463470E0,-6.441105652E-1,-5.745053101E-1,2.821705291E0
1.935680458E0,2.796933746E0,9.894424438E-2,-1.326242065E-1,2.801823964E0
1.945603458E0,2.622845764E0,1.034648438E0,4.746629333E-1,2.859217059E0
1.955527458E0,2.033521271E0,1.740430756E0,6.724017334E-1,2.759788409E0
1.965450458E0,1.215771790E0,1.853894806E0,3.079096985E-1,2.238266154E0
1.975373458E0,5.758525085E-1,1.444346466E0,1.832189941E-1,1.565666639E0
1.985296458E0,-1.913021851E-1,7.554789734E-1,7.030879211E-1,1.049608322E0
1.995219458E0,-1.895807648E0,-2.782713318E-1,1.514700165E0,2.442506532E0
2.005142458E0,-4.720882874E0,-2.046244812E0,2.359243927E0,5.660378507E0
2.015065458E0,-8.018226013E0,-4.629722443E0,3.541335754E0,9.912988309E0
2.024988958E0,-1.307980042E1,-9.685758362E0,2.575693817E0,1.647814591E1
2.034911958E0,-1.002600082E1,-3.126907562E1,4.890330505E-1,3.284075115E1
2.044834958E0,6.735992432E0,-7.454438416E1,9.093290405E0,7.539845312E1
2.054757958E0,-6.372997284E0,-7.774368118E1,9.483079834E0,7.857877488E1
2.064680958E0,-6.582112427E0,-5.362328979E1,-3.696862335E0,5.415208402E1
2.074603958E0,-4.602179718E0,-3.094544861E1,-8.585845642E0,3.244252754E1
2.084527958E0,-6.209237823E0,-2.420751022E1,-5.325774994E0,2.555233971E1
2.094450958E0,-5.009782104E0,-2.203612564E1,1.062191162E0,2.262337287E1
2.104373958E0,-4.344715118E0,-1.982911514E1,8.103997650E0,2.185738170E1
2.114296958E0,-5.315745850E0,-1.599947891E1,1.442131073E1,2.218591180E1
2.124219958E0,-6.830895081E0,-1.069001999E1,1.183858154E1,1.735193557E1
2.134142958E0,-6.529721375E0,-6.266119537E0,4.230802002E0,9.990055098E0
2.144065958E0,-5.108876038E0,-3.359314270E0,-7.821235657E-1,6.164196947E0
2.153988958E0,-3.963158569E0,-2.478096771E0,-2.082020416E0,5.116873896E0
2.163912958E0,-2.973716125E0,-2.278112640E0,-1.458716583E0,4.020029710E0
2.173835958E0,-2.161505127E0,-1.087189178E0,-4.601431274E-1,2.462887822E0
2.183758958E0,-1.863624573E0,8.258326721E-1,-3.168910217E-1,2.062890223E0
2.193681958E0,-1.920057220E0,2.722987518E0,-6.638694763E-1,3.397352416E0
2.203604958E0,-1.579964447E0,4.152065735E0,-1.194515991E-1,4.444120408E0
2.213527958E0,-9.463320923E-1,5.082979889E0,3.867956543E-1,5.184769991E0
2.223451958E0,-1.818717957E-1,5.309458923E0,5.111869812E-1,5.337110036E0
2.233374958E0,7.911048889E-1,4.555327148E0,5.269042969E-2,4.623811053E0
2.243297958E0,1.960024109E0,2.719694366E0,-4.159849548E-1,3.378087541E0
2.253220958E0,2.443219299E0,7.420069885E-1,-2.757266235E-1,2.568252341E0
2.263143958E0,2.460732880E0,-2.499801636E-2,2.095642090E-3,2.460860743E0
2.273066958E0,2.198777618E0,-4.685256958E-2,4.161346436E-2,2.199670398E0
2.282989958E0,1.917961578E0,5.403762817E-2,-2.848576355E-1,1.939752704E0
2.292912958E0,1.661694489E0,-1.496887207E-4,-8.072712708E-1,1.847407779E0
2.302836958E0,1.471739502E0,-2.938389587E-1,-1.298100586E0,1.984294239E0
2.312759958E0,1.454375610E0,-6.382727051E-1,-1.622176666E0,2.270254963E0
2.322682958E0,1.491648102E0,-7.418572998E-1,-1.687440948E0,2.371249305E0
2.332605958E0,1.443747711E0,-4.589456177E-1,-1.589694214E0,2.195943129E0
2.342528958E0,1.277144165E0,1.919009399E-1,-1.190773773E0,1.756663134E0
2.352451958E0,1.249302063E0,5.522016907E-1,-5.605842590E-1,1.476460993E0
2.362374958E0,1.518741760E0,2.366578674E-1,4.608915710E-1,1.604682062E0
2.372298958E0,1.727557526E0,-4.864883423E-1,1.342857513E0,2.241515606E0
2.382221958E0,1.109941864E0,-1.141077118E0,1.952240295E0,2.518981957E0
2.392144958E0,-1.107097778E0,-2.210752716E0,2.549647980E0,3.551590895E0
2.402067958E0,-3.968098297E0,-3.984114990E0,3.544479218E0,6.646977454E0
2.411990958E0,-7.157815247E0,-7.360194397E0,4.519102478E0,1.121735565E1
2.421913958E0,-1.036235138E1,-1.759845383E1,5.768105164E0,2.122156781E1
2.431836958E0,-4.631668396E0,-4.253360092E1,9.049281921E0,4.373155683E1
2.441760958E0,-2.398013306E-1,-7.458494980E1,1.151061356E1,7.546831432E1
2.451683958E0,-6.805897064E0,-6.467151489E1,3.182082825E0,6.510645686E1
2.461606958E0,-2.867437134E0,-4.474360519E1,-6.553072815E0,4.531175526E1
2.471529958E0,-6.276897125E0,-3.602782974E1,-7.004234619E0,3.723524212E1
2.481452958E0,-8.256680145E0,-3.241643967E1,-2.347717896E0,3.353371597E1
2.491375958E0,-7.420069885E0,-2.873619278E1,3.337759094E0,2.986581404E1
2.501299958E0,-7.350464630E0,-2.270972488E1,6.880741425E0,2.484160899E1
2.511222958E0,-7.500901794E0,-1.579171097E1,5.994434509E0,1.848174527E1
2.521145958E0,-6.220165100E0,-9.724677429E0,3.315006409E0,1.201037354E1
2.531068958E0,-3.482807465E0,-5.331762543E0,-1.371148682E-1,6.369963904E0
2.540991958E0,-1.563348999E0,-3.518583069E0,-2.936293945E0,4.842138891E0
2.550914958E0,-8.888516235E-1,-3.153192902E0,-2.960393829E0,4.415497062E0
2.560837958E0,-1.034199371E0,-2.697690125E0,-1.195264435E0,3.126620766E0
2.570761958E0,-7.379653931E-1,-1.411564636E0,1.278191986E0,2.042273830E0
2.580684958E0,3.511697388E-1,4.391867065E-1,3.034639435E0,3.086299021E0
2.590607958E0,1.563348999E0,2.691403198E0,4.474794617E0,5.450825454E0
2.600530958E0,1.805994415E0,5.153333588E0,4.853207703E0,7.305620295E0
2.610453958E0,8.765771484E-1,7.206164703E0,3.632945251E0,8.117603614E0
2.620376958E0,-2.028282166E-1,8.661588135E0,1.428629150E0,8.780958350E0
2.630299958E0,-4.635859680E-1,9.286688232E0,-1.035097504E0,9.355689024E0
2.640223958E0,2.540217590E-1,8.464897156E0,-3.327580261E0,9.099000017E0
2.650146958E0,2.865042114E-1,5.246889038E0,-3.759432220E0,6.461057178E0
2.660069958E0,-3.653901672E-1,1.961071930E0,-2.437531128E0,3.149741432E0
2.669992958E0,-1.839674377E-1,6.677613831E-1,-1.121617584E0,1.318247051E0
2.679915958E0,-2.260299683E-2,-3.761677551E-1,-2.356100464E-1,4.444380378E-1
2.689838958E0,1.305285645E-1,-1.277892609E0,1.302291870E-2,1.284607653E0
2.699761958E0,5.177732849E-1,-1.708996124E0,-1.128652954E-1,1.789272339E0
2.709685958E0,8.776249695E-1,-1.681902466E0,-1.832189941E-1,1.905935647E0
2.719608958E0,1.043480072E0,-1.607956238E0,-5.957611084E-2,1.917791239E0
2.729531958E0,1.225202179E0,-1.660047913E0,6.027964783E-1,2.149475063E0
2.739454958E0,1.611399078E0,-1.578018494E0,1.536405029E0,2.728972292E0
2.749377958E0,1.988015900E0,-1.779948578E0,2.260449371E0,3.497149628E0
2.759300958E0,1.698068848E0,-2.049987030E0,2.798131256E0,3.862049088E0
2.769223958E0,7.482939148E-1,-2.042203217E0,2.901117096E0,3.625881709E0
2.779147958E0,-7.158114624E-1,-1.995799713E0,2.400408325E0,3.202742992E0
2.789070958E0,-2.295626221E0,-2.807262268E0,2.496658173E0,4.402717708E0
2.798993958E0,-3.306773529E0,-4.277804260E0,3.437002716E0,6.406820439E0
2.808916958E0,-5.218597870E0,-6.384523315E0,4.564607849E0,9.425048886E0
2.818839958E0,-9.536369019E0,-1.073088501E1,5.439089355E0,1.535180511E1
2.828762958E0,-1.019649628E1,-2.352702530E1,5.823489990E0,2.629453349E1
2.838685958E0,-2.318378906E0,-6.214806244E1,7.540868683E0,6.264679757E1
2.848609958E0,-1.639989624E0,-7.974067841E1,9.619446259E0,8.033554073E1
2.858532958E0,-9.801916809E0,-6.236091980E1,6.664141846E-1,6.313007207E1
2.868455958E0,-8.845405884E0,-3.318883347E1,-7.804470520E0,3.522285667E1
2.878378958E0,-7.149732056E0,-2.135129974E1,-7.679181061E0,2.379005025E1
2.888301958E0,-4.318369904E0,-1.878518600E1,-2.863694916E0,1.948672062E1
2.898224958E0,-4.450994110E0,-1.784244644E1,3.658242645E0,1.874958620E1
2.908148958E0,-6.152356110E0,-1.564082474E1,8.766220551E0,1.895609419E1
2.918071958E0,-6.204447784E0,-1.217403397E1,8.851094055E0,1.628017633E1
2.927994958E0,-4.396058350E0,-8.900491333E0,3.947291565E0,1.068293900E1
2.937917958E0,-1.449884949E0,-6.613696747E0,-1.175804901E0,6.872093436E0
2.947840958E0,9.065148926E-1,-5.026547241E0,-2.665207672E0,5.761187235E0
2.957763958E0,1.512454834E0,-3.684887238E0,-2.360591125E0,4.630151622E0
2.967686958E0,8.111631775E-1,-2.143692169E0,-8.180488586E-1,2.433640432E0
2.977610958E0,1.025068359E0,-8.033793640E-1,1.107247467E0,1.709438650E0
2.987533958E0,1.638193359E0,3.483256531E-1,2.574346619E0,3.071199889E0
2.997456958E0,2.523003387E0,1.718875580E0,3.019969940E0,4.294216784E0
3.007379958E0,2.979553986E0,3.459306335E0,2.548600159E0,5.228757505E0
3.017302958E0,2.026785278E0,5.218747559E0,1.700014801E0,5.850917447E0
3.027225458E0,8.402027893E-1,6.469995575E0,6.355783081E-1,6.555207339E0
3.037148458E0,5.748046875E-2,6.785988464E0,-3.981719971E-1,6.797902940E0
3.047072458E0,-2.183958435E-1,5.863756256E0,-1.133293304E0,5.976260360E0
3.056995458E0,-8.472381592E-2,3.917054443E0,-1.698368225E0,4.270239837E0
3.066918458E0,-9.430389404E-3,1.445543976E0,-2.005679169E0,2.472333967E0
3.076841458E0,3.757186890E-1,9.729766846E-3,-2.180665283E0,2.212817272E0
3.086764458E0,4.077520752E-1,-3.167413330E-1,-1.954934692E0,2.021968466E0
3.096687458E0,-7.170089722E-2,-3.764671326E-1,-1.407523041E0,1.458763048E0
3.106610458E0,-2.541714478E-1,1.639091492E-1,-9.773176575E-1,1.023044055E0
3.116534458E0,-3.257226562E-1,8.934919739E-1,-3.011737061E-1,9.975614053E-1
3.126457458E0,-3.763174438E-1,1.416504364E0,7.307803345E-1,1.637723826E0
3.136380458E0,-3.603007507E-1,1.283880157E0,1.859582977E0,2.288277461E0
3.146303458E0,-2.806663513E-1,6.183641052E-1,3.026406555E0,3.101658331E0
3.156226458E0,-5.490582275E-1,-1.881587219E-1,4.571194153E0,4.607893730E0
3.166149458E0,-1.230141907E0,-1.669328613E0,5.593568115E0,5.965560442E0
3.176072458E0,-1.600322113E0,-4.008514252E0,5.448519745E0,6.950941287E0
3.185996458E0,-2.343227234E0,-7.025340729E0,4.509372711E0,8.670672896E0
3.195919458E0,-3.716321869E0,-1.255888367E1,3.271746368E0,1.349966413E1
3.205842458E0,-2.566862183E0,-2.750200928E1,2.670147400E0,2.775029699E1
3.215765458E0,-3.969744873E-1,-6.149212646E1,4.969815216E0,6.169390788E1
3.225688458E0,-1.279973282E1,-7.403753815E1,3.854035492E0,7.523459181E1
3.235611458E0,-7.717201996E0,-4.735208084E1,-4.826862488E0,4.821901459E1
3.245535458E0,2.523751831E-1,-2.998175262E1,-4.708159332E0,3.035022155E1
3.255458458E0,-4.467908936E0,-2.690684692E1,7.942483521E-1,2.728683661E1
3.265381458E0,-8.450077972E0,-2.757326111E1,5.326224060E0,2.932673198E1
3.275304458E0,-1.012644196E1,-2.634835831E1,7.035070496E0,2.909077223E1
3.285227458E0,-9.428144073E0,-2.173375443E1,5.888754272E0,2.441154254E1
3.295150458E0,-8.014633484E0,-1.566312836E1,1.317410431E0,1.764379523E1
3.305073458E0,-4.350552979E0,-1.047970734E1,-3.556604004E0,1.189121563E1
3.314997458E0,2.486329651E-1,-7.157066803E0,-5.293292542E0,8.905300079E0
3.324920458E0,3.232078857E0,-5.373076630E0,-4.080514526E0,7.481101858E0
3.334843458E0,4.423002319E0,-4.028871918E0,-1.694775696E0,6.218281363E0
3.344766458E0,6.346053314E0,-2.672093353E0,1.114282837E0,6.975249228E0
3.354689458E0,7.369175720E0,-1.306183777E0,3.757037201E0,8.374138486E0
3.364612458E0,6.394253082E0,2.165995789E-1,5.563031616E0,8.478249148E0
3.374535458E0,5.037324829E0,1.717678070E0,5.977968750E0,8.003822197E0
3.384459458E0,2.913541260E0,3.547922058E0,5.619913330E0,7.256714094E0
3.394382458E0,1.034947815E0,5.321883087E0,4.923411713E0,7.323492300E0
3.404305458E0,2.639012146E-1,6.690337372E0,3.987857208E0,7.793154888E0
3.414228458E0,2.302212524E-1,7.375163269E0,2.579585724E0,7.816667933E0
3.424151458E0,-1.302291870E-2,6.924300842E0,6.336323547E-1,6.953243970E0
3.434074458E0,-6.704557800E-1,5.253475342E0,-7.852670288E-1,5.353985284E0
3.443998458E0,-1.441502380E0,3.395389252E0,-1.422791290E0,3.953597392E0
3.453921458E0,-1.405277710E0,2.183209991E0,-1.659000092E0,3.081151183E0
3.463844458E0,-7.071295166E-1,1.107995911E0,-1.682201843E0,2.134827893E0
3.473767458E0,-1.203497314E-1,2.519261169E-1,-1.671124878E0,1.694287220E0
3.483690458E0,1.252894592E-1,-4.079017639E-1,-1.691632233E0,1.744620563E0
3.493613458E0,3.833528137E-1,-9.889933777E-1,-2.049238586E0,2.307476124E0
3.503536458E0,8.050259399E-1,-1.585353241E0,-2.612217865E0,3.159919910E0
3.513460458E0,1.037492523E0,-2.138902130E0,-2.855911102E0,3.715847317E0
3.523383458E0,1.419947205E0,-2.529140625E0,-2.326312408E0,3.718135526E0
3.533306458E0,1.787732391E0,-2.890938263E0,-5.740562439E-1,3.447180256E0
3.543229458E0,1.260678406E0,-3.028651886E0,1.309177551E0,3.532136485E0
3.553152458E0,4.864883423E-2,-2.779270477E0,2.811303864E0,3.953497250E0
3.563075458E0,-1.605860596E0,-2.559826813E0,3.715872803E0,4.789489769E0
3.572998458E0,-3.536994781E0,-2.990032196E0,4.279450836E0,6.305895977E0
3.582922458E0,-5.311404877E0,-4.655319214E0,4.015998688E0,8.124731639E0
3.592845458E0,-8.757239227E0,-9.189390564E0,2.823428650E0,1.300407195E1
3.602768458E0,-9.213490448E0,-2.210917374E1,6.039939880E-1,2.395973243E1
3.612691458E0,4.701872406E0,-5.684144760E1,1.716630249E0,5.706141068E1
3.622614458E0,4.939129028E0,-7.922440201E1,4.904251556E0,7.952957030E1
3.632537458E0,-2.313289490E0,-6.233128143E1,-3.266806641E0,6.245968283E1
3.642460458E0,9.282197571E-1,-3.807257767E1,-6.307134247E0,3.860262562E1
3.652384458E0,3.619473267E-1,-2.737297760E1,-2.144590302E0,2.745924573E1
3.662307458E0,-9.996212769E-1,-2.409479462E1,4.394112396E0,2.451258032E1
3.672230458E0,-5.428611145E0,-2.133034332E1,1.077444443E1,2.450595883E1
3.682153458E0,-1.008527756E1,-1.676693298E1,1.153007309E1,2.271091039E1
3.692076458E0,-1.206176743E1,-1.166090103E1,8.037535858E0,1.860281777E1
3.701999458E0,-1.196252380E1,-7.244934082E0,2.945424957E0,1.429218576E1
3.711923458E0,-9.069340210E0,-4.615202637E0,-8.216413879E-1,1.020921749E1
3.721846458E0,-6.472989349E0,-3.932322693E0,-2.159708862E0,7.875728236E0
3.731769458E0,-5.324577484E0,-3.664529572E0,-2.471809845E0,6.920241779E0
3.741692458E0,-3.772604828E0,-2.294428711E0,-2.006277924E0,4.849958907E0
3.751615458E0,-2.136357422E0,-3.978726196E-1,-1.171912994E0,2.468948303E0
3.761538458E0,-9.469308472E-1,1.637145538E0,-5.739065552E-1,1.976434233E0
3.771461458E0,-6.152206421E-2,3.440595245E0,2.948867798E-1,3.453757203E0
3.781385458E0,1.080453186E0,4.765939178E0,1.634900208E0,5.153101399E0
3.791308458E0,1.368154907E0,5.683531036E0,2.553539886E0,6.379258487E0
3.801231458E0,6.417155457E-1,6.283184052E0,2.446961517E0,6.773316864E0
3.811154458E0,2.926414490E-1,6.091283112E0,1.359622650E0,6.248035108E0
3.821077458E0,4.813989258E-1,4.721182251E0,3.614982605E-1,4.759410443E0
3.831000458E0,4.240681458E-1,2.817141724E0,4.070036316E-1,2.877807019E0
3.840923458E0,3.598516846E-1,1.657203827E0,7.153623962E-1,1.840532835E0
3.850847458E0,4.390370178E-1,1.038240967E0,6.270460510E-1,1.289916493E0
3.860770458E0,5.218148804E-1,3.806584167E-1,2.480342102E-1,6.918905759E-1
3.870693458E0,6.697073364E-1,-5.008584595E-1,-2.784210205E-2,8.367450601E-1
3.880616458E0,9.388476562E-1,-1.571132813E0,-2.880010986E-1,1.852791912E0
3.890539458E0,1.434467010E0,-2.538271637E0,-5.285508728E-1,2.963086994E0
3.900462458E0,2.082319794E0,-3.370091858E0,-5.415737915E-1,3.998359292E0
3.910385458E0,2.948119354E0,-3.666026459E0,-2.513273621E-1,4.711085137E0
3.920309458E0,3.231180725E0,-3.615581360E0,3.323089600E-2,4.849129998E0
3.930232458E0,2.634820862E0,-3.738625488E0,3.240760803E-1,4.585261914E0
3.940155458E0,2.322270813E0,-4.310137024E0,1.787882080E0,5.212172793E0
3.950078458E0,1.384321289E0,-5.187612305E0,4.012406158E0,6.702765850E0
3.960001458E0,-4.821473694E-1,-6.348298645E0,5.473667450E0,8.396094159E0
3.969924458E0,-4.325105896E0,-9.975106659E0,5.561684418E0,1.221235552E1
3.979848458E0,-9.270372162E0,-2.148272644E1,4.458478546E0,2.381859287E1
3.989771458E0,-8.679999847E0,-5.222579590E1,2.272125092E0,5.299093042E1
3.999694458E0,-1.085886887E1,-7.856637039E1,1.604064331E0,7.932945614E1
4.009617458E0,-1.906600204E1,-6.777291550E1,-2.149530029E0,7.043650324E1
4.019540708E0,-1.468461319E1,-3.746633835E1,-6.906637573E-1,4.024725320E1
4.029463708E0,-1.175834839E1,-2.257275970E1,2.360890503E0,2.556094759E1
4.039386708E0,-8.281079407E0,-1.742825775E1,5.273833008E0,2.000334370E1
4.049310708E0,-2.787203979E0,-1.549832108E1,7.263495483E0,1.734141946E1
4.059233708E0,1.479223938E0,-1.499042725E1,6.601422272E0,1.644626974E1
4.069156708E0,2.244881744E0,-1.381761612E1,1.688039703E0,1.410019458E1
4.079079708E0,1.113833771E0,-1.136361923E1,-3.088826752E0,1.182849603E1
4.089002708E0,3.849993896E-1,-8.012687531E0,-2.919379120E0,8.536636366E0
4.098925708E0,3.022215271E-1,-4.584516449E0,-6.511459351E-2,4.594928599E0
4.108849708E0,1.236129456E0,-1.817520447E0,1.699865112E0,2.778657591E0
4.118772708E0,2.923570404E0,3.601510620E-1,2.137704620E0,3.639609009E0
4.128695708E0,4.645290070E0,2.097138977E0,1.914818115E0,5.444560601E0
4.138618708E0,5.367238770E0,3.460952911E0,9.675878906E-1,6.459231641E0
4.148541708E0,4.735103302E0,4.722379761E0,1.348695374E-1,6.688816314E0
4.158464708E0,3.402424622E0,6.329437866E0,-8.367599487E-1,7.234531375E0
4.168387708E0,1.561103668E0,7.492668915E0,-8.370593262E-1,7.699207780E0
4.178311708E0,1.173559570E-1,7.823630676E0,-4.903802490E-1,7.839862382E0
4.188234708E0,-9.913883972E-1,6.935976563E0,-2.157014465E-1,7.009789508E0
4.198157708E0,-2.076182556E0,4.854854279E0,6.631210327E-2,5.280581537E0
4.208080708E0,-2.712658997E0,2.393522644E0,4.079017639E-1,3.640584202E0
4.218003708E0,-2.469265137E0,5.849835205E-1,2.974314880E-1,2.554983664E0
4.227926708E0,-1.864522705E0,-3.730242920E-1,-6.706054688E-2,1.902653189E0
4.237849708E0,-8.108638000E-1,-1.011596375E0,-2.209405518E-1,1.315158566E0
4.247773708E0,3.532653809E-1,-1.526824951E0,-7.768844604E-2,1.569084560E0
4.257696708E0,1.265468445E0,-2.011966095E0,2.896476746E-1,2.394433905E0
4.267619708E0,1.775308228E0,-2.486928406E0,6.465055847E-1,3.123219760E0
4.277542708E0,1.723216553E0,-2.647544403E0,7.216493225E-1,3.240330909E0
4.287465708E0,1.364113312E0,-2.473306732E0,4.769082642E-1,2.864523139E0
4.297388708E0,1.063837738E0,-2.409239960E0,3.158432007E-1,2.652535550E0
4.307311708E0,3.737727356E-1,-2.464475098E0,5.568420410E-1,2.554098006E0
4.317235708E0,-6.674620056E-1,-2.498304749E0,1.129551086E0,2.821864242E0
4.327158708E0,-1.377435608E0,-2.533930664E0,1.878743134E0,3.442064675E0
4.337081708E0,-3.005450134E0,-2.759810944E0,2.016157379E0,4.551283064E0
4.347004708E0,-5.399272156E0,-3.468437347E0,1.888772278E0,6.689518530E0
4.356927708E0,-9.544901276E0,-5.255720673E0,1.475332031E0,1.099565117E1
4.366850708E0,-1.627310989E1,-1.164742905E1,-7.274871826E-2,2.001204641E1
4.376773708E0,-1.753708145E1,-2.837080261E1,-9.128018188E-1,3.336592384E1
4.386697708E0,-4.134252777E0,-6.571140244E1,4.955744476E0,6.602756893E1
4.396620708E0,-8.059240723E-1,-7.956748856E1,7.106771393E0,7.988830295E1
4.406543708E0,-5.484445038E0,-6.204866913E1,-4.564607849E0,6.245760260E1
4.416466708E0,2.043251038E0,-3.316533234E1,-2.854713593E0,3.335061519E1
4.426389708E0,1.482816467E0,-2.032159103E1,4.107159119E0,2.078544113E1
4.436312708E0,-8.503816223E-1,-1.448088684E1,8.180189209E0,1.665336987E1
4.446236708E0,-3.014281769E0,-1.058344162E1,6.886878662E0,1.298168821E1
4.456159708E0,-4.115691376E0,-7.961194611E0,1.506317596E0,9.087823052E0
4.466082708E0,-3.802841949E0,-6.235732727E0,-3.417842560E0,8.063970319E0
4.476005708E0,-2.896925812E0,-5.337001648E0,-3.441044312E0,6.979724329E0
4.485928708E0,-8.370593262E-1,-4.411027222E0,2.698887634E-1,4.497851644E0
4.495851708E0,4.641847229E-1,-3.060236206E0,3.159330139E0,4.422881416E0
4.505774708E0,8.330177307E-1,-1.467248840E0,3.549868011E0,3.930432622E0
4.515698708E0,1.021326141E0,1.288819885E-1,2.700534210E0,2.890086967E0
4.525621708E0,9.780661011E-1,1.616189117E0,1.409468994E0,2.356964872E0
4.535544708E0,8.529263306E-1,3.025957489E0,1.246907043E-1,3.146339114E0
4.545467708E0,-2.754272461E-2,4.248016205E0,-4.936734009E-1,4.276694250E0
4.555390708E0,-1.151405640E0,5.299878845E0,-3.978726196E-1,5.438083609E0
4.565313708E0,-1.716929626E0,6.186634827E0,-2.323168945E-1,6.424661000E0
4.575237708E0,-1.863025818E0,6.481521606E0,-2.315684509E-1,6.747933868E0
4.585160708E0,-1.568139038E0,5.577551422E0,-6.336323547E-1,5.828347096E0
4.595083708E0,-9.461824036E-1,3.678450623E0,-1.098266144E0,3.953789150E0
4.605006708E0,-7.104226685E-1,2.203417969E0,-1.153501282E0,2.586564579E0
4.614929708E0,-6.282435608E-1,1.294957123E0,-4.948709106E-1,1.522005631E0
4.624852708E0,9.325607300E-2,6.219566345E-1,8.966354370E-2,6.352686845E-1
4.634775708E0,1.086141357E0,1.020877075E-1,-6.496490479E-2,1.092861102E0
4.644699708E0,1.714684296E0,-4.002676392E-1,-5.797444153E-1,1.853769134E0
4.654622708E0,2.092199249E0,-1.002465363E0,-7.631130981E-1,2.442248166E0
4.664545708E0,1.882934418E0,-1.938169556E0,-7.547305298E-1,2.805630307E0
4.674468708E0,1.795067139E0,-3.175646210E0,-5.355862427E-1,3.686983524E0
4.684391708E0,1.730551300E0,-4.234095154E0,3.772155762E-2,4.574253217E0
4.694314708E0,1.136287079E0,-5.004393311E0,3.131488037E-1,5.141319179E0
4.704237708E0,5.718109131E-2,-6.111940155E0,4.773573303E-1,6.130819860E0
4.714161708E0,-2.174827423E0,-7.586523743E0,1.587748260E0,8.050227410E0
4.724084708E0,-7.964487762E0,-1.060260178E1,2.757266235E0,1.354439909E1
4.734007708E0,-1.330133972E1,-2.269011566E1,2.954705658E0,2.646690901E1
4.743930708E0,-5.319188690E0,-4.881049805E1,5.983507233E0,4.946272179E1
4.753853708E0,-3.201692047E0,-7.469018097E1,6.901398468E0,7.507664927E1
4.763776708E0,-5.834267578E0,-6.068335831E1,-3.127895508E0,6.104336478E1
4.773700708E0,-2.832859039E0,-3.665607330E1,-1.109657455E1,3.840347337E1
4.783623708E0,-3.445834351E0,-2.647619247E1,-5.275180206E0,2.721562177E1
4.793546708E0,-2.162103882E0,-2.218940689E1,1.625619507E0,2.235368225E1
4.803469708E0,-1.611997833E0,-2.002131546E1,5.680836639E0,2.087399135E1
4.813392708E0,-2.521057434E0,-1.696796494E1,6.425388336E0,1.831811071E1
4.823315708E0,-3.342399445E0,-1.274255173E1,5.451214142E0,1.425692794E1
4.833238708E0,-3.286266174E0,-8.455766144E0,3.406316528E0,9.690331199E0
4.843162708E0,-2.855012970E0,-5.339696045E0,1.585951996E0,6.259288829E0
4.853085708E0,-2.120340729E0,-3.338507538E0,1.090781708E0,4.102594560E0
4.863008708E0,-1.041085052E0,-1.921853485E0,2.017205200E0,2.974305923E0
4.872931708E0,-1.347198486E-3,-7.560777283E-1,2.993175659E0,3.087192231E0
4.882854708E0,7.072792053E-1,3.502716064E-1,3.121159515E0,3.219405348E0
4.892777708E0,1.217418365E0,1.485959930E0,2.599194946E0,3.232027036E0
4.902701708E0,1.206341400E0,2.534679108E0,1.647474060E0,3.254846929E0
4.912624708E0,8.782237244E-1,3.692521362E0,9.505233765E-1,3.912733777E0
4.922547708E0,4.599934387E-1,4.937033386E0,6.902146912E-1,5.006225019E0
4.932470708E0,-9.654922485E-2,5.942043457E0,4.025129700E-1,5.956443477E0
4.942393708E0,-8.731343079E-1,6.480473785E0,-1.621128845E-1,6.541038495E0
4.952316708E0,-1.477427673E0,6.327641602E0,-1.027613068E0,6.578588708E0
4.962239708E0,-1.259929962E0,4.956193542E0,-1.679956512E0,5.382706738E0
4.972163708E0,-3.854484558E-1,2.744243317E0,-1.452429657E0,3.128736774E0
4.982086708E0,5.194198608E-1,8.675958252E-1,-6.089337158E-1,1.180389672E0
4.992009708E0,1.621278534E0,-4.736151123E-1,-1.347198486E-2,1.689093501E0
5.001932708E0,2.202519836E0,-1.439855804E0,-1.047821045E-2,2.631423220E0
5.011855708E0,2.107018433E0,-1.997745667E0,-3.237767029E-1,2.921531410E0
5.021779458E0,1.473236389E0,-2.376607819E0,-1.034199371E0,2.981318252E0
5.031702458E0,5.653742981E-1,-2.853516083E0,-1.692230988E0,3.365389702E0
5.041626458E0,-3.866459656E-1,-3.524271240E0,-1.977088623E0,4.059416498E0
5.051549458E0,-1.078956299E0,-4.202361145E0,-1.800755310E0,4.697521216E0
5.061472458E0,-2.005529480E0,-4.822820892E0,-1.310973816E0,5.385202150E0
5.071395458E0,-3.834426270E0,-5.534441071E0,-5.336402893E-1,6.754082820E0
5.081318458E0,-6.273603973E0,-6.608158264E0,1.590292969E0,9.249588866E0
5.091241458E0,-9.309291229E0,-1.165027313E1,2.825823669E0,1.517817666E1
5.101164458E0,-1.174577454E1,-3.052153015E1,1.928589478E0,3.276044077E1
5.111088458E0,-6.452781372E0,-6.334557220E1,3.462449799E0,6.376745615E1
5.121011458E0,-3.951033783E0,-6.719002762E1,1.428030396E0,6.732124293E1
5.130934458E0,1.709744568E0,-3.913881042E1,-2.706521759E0,3.926951703E1
5.140857458E0,7.923023987E-1,-2.416634583E1,-3.493435364E0,2.443039304E1
5.150780458E0,-2.208507385E0,-1.856170074E1,9.725276184E-1,1.871790718E1
5.160703458E0,-2.299218750E0,-1.730371674E1,7.805817719E0,1.912160584E1
5.170627458E0,-2.527044983E0,-1.813269287E1,1.190579178E1,2.183869009E1
5.180550458E0,-4.095184021E0,-1.772658737E1,1.074869797E1,2.113142068E1
5.190473458E0,-5.299429779E0,-1.521870255E1,5.244344330E0,1.694685843E1
5.200396458E0,-3.987108765E0,-1.201506454E1,-2.359543304E0,1.287735442E1
5.210319458E0,-2.136357422E0,-9.855056305E0,-5.557493134E0,1.151398661E1
5.220242458E0,-9.595046997E-1,-8.508007507E0,-4.878355408E0,9.854196695E0
5.230165458E0,4.670288086E-2,-7.133116608E0,-3.174149323E0,7.807608957E0
5.240089458E0,8.539741516E-1,-5.292244720E0,-1.134939880E0,5.479526856E0
5.250012458E0,1.404678955E0,-3.260220337E0,9.369017029E-1,3.671504380E0
5.259935458E0,2.154320068E0,-1.131347351E0,2.165995789E0,3.257695434E0
5.269858458E0,3.060834961E0,1.045725403E0,2.909200287E0,4.350367638E0
5.279781458E0,3.523672485E0,3.173849945E0,3.302432556E0,5.778897131E0
5.289704458E0,3.129991150E0,5.194497986E0,3.112028503E0,6.816478220E0
5.299628458E0,2.128723297E0,6.760840759E0,2.138752441E0,7.403694527E0
5.309551458E0,1.703307953E0,7.530839539E0,7.875123596E-1,7.761119626E0
5.319474458E0,1.789828033E0,7.080875244E0,-3.285667419E-1,7.310966743E0
5.329397458E0,1.438059540E0,4.948110352E0,-7.587721252E-1,5.208411123E0
5.339320458E0,2.044747925E-1,1.843266907E0,-3.260220337E-1,1.883011736E0
5.349243458E0,-3.035687256E-1,9.714797974E-2,-6.256988525E-2,3.248179362E-1
5.359166458E0,-2.788700867E-1,-7.155120850E-1,-1.857637024E-1,7.900849461E-1
5.369090458E0,-1.963916016E-1,-1.172960815E0,-4.950205994E-1,1.288197240E0
5.379013458E0,-3.891906738E-2,-1.068178711E0,-6.704557800E-1,1.261757269E0
5.388936458E0,2.278262329E-1,-6.842271423E-1,-3.194357300E-1,7.887399827E-1
5.398859458E0,6.721023560E-1,-3.914360046E-1,3.543132019E-1,8.546821442E-1
5.408782458E0,9.494755554E-1,-1.541793823E-1,9.710307312E-1,1.366812274E0
5.418705458E0,9.339079285E-1,-8.158035278E-2,1.376687164E0,1.665565046E0
5.428628458E0,8.554710388E-1,-1.889071655E-1,1.989662476E0,2.173999398E0
5.438552458E0,-1.736389160E-2,-5.848338318E-1,3.058140564E0,3.113608168E0
5.448475458E0,-1.990111542E0,-1.668580170E0,4.459526367E0,5.160627787E0
5.458398458E0,-4.491559753E0,-3.453318787E0,6.297254791E0,8.470828623E0
5.468321458E0,-1.020577698E1,-6.605164490E0,7.260501709E0,1.415983639E1
5.478244458E0,-1.697619781E1,-1.770293655E1,4.472698975E0,2.493171256E1
5.488167458E0,-7.465126190E0,-5.481571014E1,-1.027762756E0,5.533124329E1
5.498091458E0,7.637118530E-1,-7.993781845E1,3.978576508E0,8.004040945E1
5.508014458E0,-7.814649353E0,-6.537505188E1,-4.148323517E0,6.597101440E1
5.517937458E0,-2.978206787E0,-3.449277191E1,-1.127605133E1,3.641112966E1
5.527860458E0,-3.431913300E0,-2.085837479E1,-4.486320648E0,2.160964832E1
5.537783458E0,-3.498075714E0,-1.794662979E1,2.766546936E0,1.849248054E1
5.547706458E0,-3.935017090E0,-1.990425888E1,1.126018433E1,2.320464678E1
5.557629458E0,-7.310497742E0,-2.009720764E1,1.360116623E1,2.534428644E1
5.567553458E0,-9.276659088E0,-1.597268463E1,7.177873535E0,1.981678396E1
5.577476458E0,-5.873785400E0,-1.195593750E1,-1.296603699E0,1.338383269E1
5.587399458E0,-2.717898102E0,-9.246421967E0,-3.631448364E0,1.029906338E1
5.597322458E0,-1.646276550E0,-6.812034302E0,-2.343227234E0,7.389502803E0
5.607245458E0,-8.572673035E-1,-4.818030853E0,-3.222798157E-1,4.904303499E0
5.617168458E0,4.234693909E-1,-3.348087616E0,1.152453461E0,3.566113569E0
5.627091458E0,1.457070007E0,-1.972448273E0,2.247875519E0,3.326642383E0
5.637015458E0,1.934427338E0,-3.519181824E-1,2.791844330E0,3.414710865E0
5.646938458E0,1.868713989E0,1.511706390E0,2.669548645E0,3.592191274E0
5.656861458E0,1.588796082E0,3.597319336E0,2.128872986E0,4.471809431E0
5.666784458E0,5.195695496E-1,5.560037842E0,1.322350159E0,5.738691773E0
5.676707458E0,-1.215472412E0,7.294780426E0,2.140548706E-2,7.395380507E0
5.686630458E0,-2.297123108E0,8.207432556E0,-1.343905334E0,8.628140314E0
5.696554458E0,-2.748883667E0,7.700137482E0,-1.871857452E0,8.387629521E0
5.706477458E0,-3.131338348E0,5.473667450E0,-1.373094635E0,6.453813143E0
5.716400458E0,-2.740650787E0,3.139720917E0,-4.484674072E-1,4.191674747E0
5.726323458E0,-1.888173523E0,1.584604797E0,-9.879455566E-3,2.465008970E0
5.736246458E0,-1.175355835E0,5.089416504E-1,-7.694000244E-2,1.283122249E0
5.746169458E0,-2.656974792E-1,-2.532733154E-1,-4.138893127E-1,5.532150450E-1
5.756092458E0,7.574249268E-1,-7.866142273E-1,-8.216413879E-1,1.366582977E0
5.766016458E0,1.805994415E0,-1.079405365E0,-8.282276917E-1,2.261126462E0
5.775939458E0,2.730022888E0,-1.224304047E0,-3.041674805E-1,3.007401407E0
5.785862458E0,3.288511505E0,-1.158890076E0,4.885839844E-1,3.520802243E0
5.795785458E0,3.407813416E0,-1.131796417E0,1.002914429E0,3.728269405E0
5.805708458E0,2.870281219E0,-1.240021362E0,9.831555176E-1,3.277615296E0
5.815631458E0,2.085014191E0,-1.355880432E0,1.427731018E0,2.867771222E0
5.825555458E0,1.283580780E0,-1.599274292E0,2.500101013E0,3.233537220E0
5.835478458E0,2.736309814E-1,-2.183509369E0,3.497776337E0,4.132435889E0
5.845401458E0,-1.314566345E0,-3.146756287E0,3.948339386E0,5.217235255E0
5.855324458E0,-4.419709167E0,-4.660109253E0,5.176685028E0,8.249152396E0
5.865247458E0,-1.351629272E1,-7.570357361E0,4.854854279E0,1.623484184E1
5.875170458E0,-2.282139267E1,-2.079954712E1,-6.994953918E-1,3.088569924E1
5.885093458E0,-1.534533920E1,-5.129473206E1,6.228996735E0,5.390203495E1
5.895017458E0,4.994513855E0,-7.888550674E1,2.069611221E1,8.170800085E1
5.904940458E0,-2.702031097E0,-7.356227646E1,2.004331970E0,7.363916646E1
5.914863458E0,-5.656138000E0,-4.223392410E1,-1.333112778E1,4.464767866E1
5.924786458E0,-3.507206726E0,-2.255823990E1,-5.857768707E0,2.356879591E1
5.934709458E0,-4.560715942E0,-1.564935699E1,1.301393738E0,1.635225152E1
5.944632458E0,-6.985373840E0,-1.284478912E1,7.638016663E0,1.649616179E1
5.954556458E0,-1.167736679E1,-1.220097794E1,6.775210876E0,1.819692942E1
5.964479458E0,-1.302187088E1,-1.100736008E1,-1.221459961E-1,1.705127610E1
5.974402458E0,-8.413104858E0,-9.101523285E0,-5.596112823E0,1.359906387E1
5.984325458E0,-4.627776489E0,-7.474107513E0,-4.556973724E0,9.901747719E0
5.994248458E0,-3.437002716E0,-5.894292755E0,9.445358276E-2,6.823825630E0
6.004171458E0,-1.846709747E0,-4.037404175E0,4.067192230E0,6.021048248E0
6.014095458E0,6.295907593E-1,-1.944456482E0,5.252876587E0,5.636488976E0
6.024017708E0,2.985541534E0,1.648072815E-1,4.584366760E0,5.473302320E0
6.033940708E0,4.450395355E0,2.200124817E0,3.600313110E0,6.132603242E0
6.043863708E0,4.191433868E0,4.206851807E0,2.382295990E0,6.398519687E0
6.053786708E0,2.412982178E0,6.333329773E0,1.298549652E0,6.900708674E0
6.063709708E0,8.601113892E-1,8.399932251E0,1.188528442E-1,8.444689421E0
6.073632708E0,7.843688965E-2,9.489815826E0,-8.265811157E-1,9.526069132E0
6.083556708E0,-3.764671326E-1,9.630523224E0,-1.535207520E0,9.759383546E0
6.093479708E0,-6.165678406E-1,8.349337463E0,-2.015558624E0,8.611275663E0
6.103402708E0,-8.376580811E-1,5.714067535E0,-1.816173248E0,6.053984153E0
6.113325708E0,-1.022972717E0,3.779939575E0,-1.097218323E0,4.066731417E0
6.123248708E0,-5.950126648E-1,2.468067627E0,-5.336402893E-1,2.594257088E0
6.133171708E0,4.939727783E-2,1.235830078E0,-3.610491943E-1,1.288438044E0
6.143094708E0,6.400689697E-1,2.751278687E-1,-3.143463135E-1,7.643279629E-1
6.153018708E0,1.176852722E0,-4.878355408E-1,-5.284011841E-2,1.275052125E0
6.162941708E0,1.518292694E0,-1.357826385E0,2.583627319E-1,2.053206395E0
6.172864708E0,1.482966156E0,-2.496508484E0,2.116598511E-1,2.911450347E0
6.182787708E0,1.377136230E0,-3.813170471E0,-4.550537109E-2,4.054484428E0
6.192710708E0,1.422342224E0,-4.976251831E0,-3.754193115E-1,5.189130886E0
6.202633708E0,1.165925446E0,-5.621110840E0,-6.292913818E-1,5.775143017E0
6.212557708E0,9.657916260E-1,-5.748495941E0,1.559756470E-1,5.831148039E0
6.222480708E0,4.176315308E-1,-5.369633789E0,1.843566284E0,5.692637330E0
6.232403708E0,-1.074465637E0,-4.814438324E0,3.366798706E0,5.972321685E0
6.242326708E0,-3.388653259E0,-4.958588562E0,4.961432648E0,7.790146684E0
6.252249708E0,-7.365283813E0,-6.970255280E0,5.414690094E0,1.149568324E1
6.262172708E0,-1.121378082E1,-1.425365936E1,4.238885193E0,1.862481767E1
6.272095708E0,-3.923041992E0,-3.372142593E1,2.263143768E0,3.402420675E1
6.282019708E0,7.286248169E0,-7.270411102E1,6.279142456E0,7.333760837E1
6.291942708E0,5.575904846E-1,-7.861950989E1,9.520502014E0,7.919582186E1
6.301865708E0,-7.865244141E0,-5.731970306E1,7.673043823E0,5.836339629E1
6.311788708E0,-9.493857422E0,-3.129362457E1,7.474556580E0,3.354539109E1
6.321711708E0,-1.034349060E1,-2.081975510E1,7.182214508E0,2.433175303E1
6.331634708E0,-9.919572144E0,-1.640274033E1,3.274590454E0,1.944661267E1
6.341558708E0,-8.823551331E0,-1.435619614E1,-1.064137115E0,1.688454362E1
6.351481708E0,-5.647306366E0,-1.284927979E1,-1.676363983E0,1.413528409E1
6.361404708E0,-2.881956940E0,-1.073986633E1,-1.164727936E0,1.118065275E1
6.371327708E0,-2.337239685E0,-8.445737000E0,-5.466632080E-1,8.780205207E0
6.381250708E0,-1.723066864E0,-6.368955688E0,1.214873657E0,6.708835516E0
6.391173708E0,-3.595523071E-1,-4.482728119E0,3.042872314E0,5.429843568E0
6.401096708E0,6.979985046E-1,-2.505789185E0,3.859873352E0,4.654546556E0
6.411020708E0,1.635498962E0,-4.525090027E-1,3.400927734E0,3.800780276E0
6.420943708E0,2.209704895E0,1.618584137E0,2.866988068E0,3.965126847E0
6.430866708E0,1.883682861E0,3.669768677E0,2.730471954E0,4.946811130E0
6.440789708E0,6.107299805E-1,5.731132050E0,1.355730743E0,5.920884353E0
6.450712708E0,-1.290915527E0,7.392227783E0,2.062710571E-1,7.506932945E0
6.460635708E0,-2.675985260E0,8.405620422E0,-7.444020081E-1,8.852654187E0
6.470559708E0,-3.558400269E0,8.749156036E0,-2.047142944E0,9.664405727E0
6.480482708E0,-4.036805420E0,8.464747467E0,-2.729873199E0,9.767290073E0
6.490405708E0,-4.245172119E0,7.235803070E0,-2.347568207E0,8.711452742E0
6.500328708E0,-3.392545166E0,4.381987610E0,-9.394464111E-1,5.620830693E0
6.510251708E0,-2.048340454E0,1.475032654E0,9.563612366E-1,2.699267819E0
6.520174708E0,-6.108796692E-1,-2.088157654E-1,1.962568817E0,2.066023803E0
6.530097708E0,6.259982300E-1,-1.105750580E0,1.988914032E0,2.360156172E0
6.540021708E0,1.493144989E0,-1.782044220E0,1.773062897E0,2.923852868E0
6.549944708E0,2.256557465E0,-2.193538513E0,1.563947754E0,3.514199109E0
6.559867708E0,2.889291687E0,-2.504741364E0,1.230441284E0,4.016929363E0
6.569790708E0,3.079246674E0,-2.823428650E0,5.947132874E-1,4.219857025E0
6.579713708E0,2.849474487E0,-2.907104645E0,2.276765442E-1,4.077082153E0
6.589636708E0,2.435136108E0,-2.871778107E0,3.911366272E-1,3.785496694E0
6.599560708E0,1.810335388E0,-2.769690399E0,8.105644226E-1,3.406686632E0
6.609483708E0,8.264314270E-1,-2.654729462E0,1.143023071E0,3.006173508E0
6.619406708E0,-2.368075562E-1,-2.539618835E0,1.821861420E0,3.134472951E0
6.629329708E0,-1.862576752E0,-2.555934906E0,2.489922180E0,4.025134515E0
6.639252708E0,-3.596121826E0,-3.034190369E0,3.534899139E0,5.885058649E0
6.649175708E0,-5.736820221E0,-4.321363678E0,4.762646027E0,8.617893447E0
6.659099708E0,-1.145433060E1,-7.684869232E0,3.798800354E0,1.430698391E1
6.669022708E0,-1.548978882E1,-1.722213638E1,2.709365845E-1,2.316482130E1
6.678945708E0,-5.120701447E0,-4.645095474E1,-6.843768311E-1,4.673736355E1
6.688868708E0,8.134085083E-1,-7.888176453E1,5.394781494E0,7.907020979E1
6.698791708E0,-9.571994934E0,-7.700885925E1,7.490423584E-1,7.760508073E1
6.708714708E0,-5.396428070E0,-5.515819794E1,-2.455344086E0,5.547591324E1
6.718637708E0,-5.918242950E0,-3.207455063E1,2.812201996E0,3.273699555E1
6.728561708E0,-6.941964111E0,-2.222518250E1,7.771838379E0,2.454691578E1
6.738484708E0,-7.940687256E0,-1.621817413E1,7.203021240E0,1.944137859E1
6.748407708E0,-7.588918762E0,-1.176358749E1,1.603764954E0,1.409062599E1
6.758330708E0,-5.645809479E0,-9.221723328E0,-2.496658173E0,1.109723604E1
6.768253708E0,-2.276166687E0,-8.247698822E0,-3.410657501E0,9.210757582E0
6.778176708E0,3.043171692E-1,-7.283404083E0,-3.170257416E0,7.949283997E0
6.788100708E0,1.300046539E0,-5.949228516E0,-4.779560852E-1,6.108345353E0
6.798023708E0,2.279908905E0,-4.251608734E0,3.345243530E0,5.870674213E0
6.807946708E0,3.667822723E0,-1.966610413E0,5.464237061E0,6.868651010E0
6.817869708E0,4.991071014E0,6.086343384E-1,5.372627563E0,7.358420521E0
6.827792708E0,5.144801331E0,3.024759979E0,3.979474640E0,7.173170294E0
6.837715708E0,3.587739258E0,5.060077515E0,2.700683899E0,6.765349286E0
6.847638708E0,1.640438690E0,6.893464966E0,9.062155151E-1,7.143677267E0
6.857562708E0,-2.043251038E-1,8.474926300E0,-1.206640778E0,8.562832855E0
6.867485708E0,-1.875300293E0,9.205706635E0,-2.778222656E0,9.796953963E0
6.877408708E0,-3.335513763E0,8.809929657E0,-3.154540100E0,9.934366405E0
6.887331708E0,-4.656516724E0,6.439010010E0,-2.282603302E0,8.267664467E0
6.897254708E0,-4.156855774E0,2.443668365E0,-6.319857788E-1,4.863164713E0
6.907177708E0,-2.611319733E0,1.219963074E-1,2.935395813E-1,2.630596763E0
6.917101708E0,-1.382824402E0,-6.999444580E-1,5.034031677E-1,1.629582867E0
6.927024708E0,-5.785469055E-1,-9.587562561E-1,4.564009094E-1,1.209227799E0
6.936947708E0,2.622546387E-1,-1.102607117E0,8.375083923E-1,1.409233925E0
6.946870708E0,1.205742645E0,-1.157542877E0,1.458716583E0,2.218462285E0
6.956793708E0,1.913770294E0,-1.148411865E0,1.827998657E0,2.884951584E0
6.966716708E0,2.275118866E0,-1.021026764E0,1.729054413E0,3.034516546E0
6.976639708E0,2.315684509E0,-9.147477722E-1,1.275347900E0,2.797439990E0
6.986563708E0,2.280807037E0,-9.490264893E-1,9.165440369E-1,2.634916505E0
6.996486708E0,1.874701538E0,-9.973759460E-1,7.232958984E-1,2.243305951E0
7.006409708E0,1.012344818E0,-1.024170227E0,8.842112732E-1,1.689850958E0
7.016332708E0,-9.430389404E-3,-9.960287476E-1,1.825004883E0,2.079135643E0
7.026256250E0,-1.224154358E0,-1.055305481E0,3.322191467E0,3.694479624E0
7.036179250E0,-2.954555969E0,-1.548380127E0,4.415966949E0,5.534224977E0
7.046103250E0,-4.983736267E0,-2.715203705E0,5.464237061E0,7.878314857E0
7.056026250E0,-8.325686646E0,-4.118834839E0,6.081703033E0,1.110265600E1
7.065949250E0,-1.553798859E1,-8.487500153E0,3.136727142E0,1.798070647E1
7.075872250E0,-1.512290176E1,-2.487212814E1,-1.991907806E0,2.917691918E1
7.085795250E0,2.206411743E-1,-6.733986603E1,2.027833099E0,6.737075290E1
7.095718250E0,-8.125103760E0,-7.958724747E1,7.458090820E0,8.034780886E1
7.105642250E0,-9.468410339E0,-6.405255203E1,-6.954837341E0,6.512104098E1
7.115565250E0,-9.535171509E-1,-3.649934921E1,-7.313341827E0,3.723703340E1
7.125488250E0,-4.527934113E0,-2.485087234E1,1.312321014E0,2.529407500E1
7.135411250E0,-4.794829102E0,-2.119652161E1,6.489006042E0,2.268017006E1
7.145334250E0,-5.842201080E0,-1.906121201E1,8.352331238E0,2.161533145E1
7.155257250E0,-6.944957886E0,-1.537422913E1,4.936284943E0,1.757743640E1
7.165180250E0,-5.438640289E0,-1.119851257E1,8.008346558E-2,1.244957451E1
7.175104250E0,-2.858006744E0,-8.542435913E0,-8.051756287E-1,9.043767007E0
7.185027250E0,-7.887098694E-1,-6.921007690E0,-1.344204712E-1,6.967099796E0
7.194950250E0,4.945715332E-1,-5.488037567E0,5.912704468E-1,5.541909245E0
7.204873250E0,1.479822693E0,-3.929628296E0,1.135688324E0,4.349901345E0
7.214796250E0,2.942431183E0,-2.275268555E0,1.578617249E0,4.040641122E0
7.224719250E0,4.327500916E0,-5.276527405E-1,2.108515320E0,4.842676785E0
7.234643250E0,5.348677368E0,1.583556976E0,2.450554047E0,6.092718393E0
7.244566250E0,5.047204285E0,4.003724213E0,2.306403809E0,6.842775547E0
7.254489250E0,3.132685547E0,6.649921417E0,1.685494995E0,7.541622304E0
7.264412250E0,4.159849548E-1,8.928183746E0,2.318678284E-1,8.940876421E0
7.274335250E0,-1.438957672E0,1.012060410E1,-9.876461792E-1,1.026998887E1
7.284258250E0,-2.091301117E0,1.002435425E1,-1.891466675E0,1.041339832E1
7.294181250E0,-1.923350372E0,8.461154938E0,-2.468217316E0,9.021225873E0
7.304105250E0,-1.831591187E0,5.479355621E0,-1.911974030E0,6.085532761E0
7.314028250E0,-2.410736847E0,2.639311523E0,-8.030799866E-1,3.663680517E0
7.323951250E0,-2.261796570E0,9.111552429E-1,-2.155517578E-1,2.447935898E0
7.333874250E0,-1.484013977E0,-2.510279846E-1,-9.445358276E-2,1.508056369E0
7.343797250E0,-6.759942627E-1,-1.150357819E0,-5.643264771E-2,1.335468456E0
7.353720250E0,-3.622467041E-2,-1.935924225E0,5.942642212E-2,1.937174832E0
7.363644250E0,3.126997375E-1,-2.747686157E0,1.140628052E-1,2.767773594E0
7.373567250E0,8.238867188E-1,-3.387605438E0,1.859133911E-1,3.491306878E0
7.383490250E0,1.381327515E0,-3.792064362E0,4.013154602E-1,4.055720888E0
7.393413250E0,2.026186523E0,-3.982917480E0,8.346643066E-1,4.545957324E0
7.403336250E0,2.527643738E0,-4.011657715E0,1.475332031E0,4.965781418E0
7.413259250E0,2.550396423E0,-3.733236694E0,2.313289490E0,5.078669747E0
7.423182250E0,1.695524139E0,-2.906356201E0,3.720064087E0,5.016032823E0
7.433106250E0,-7.185058594E-1,-1.843416595E0,5.408253479E0,5.758788163E0
7.443029250E0,-3.805835724E0,-1.878892822E0,7.410190430E0,8.539645543E0
7.452952250E0,-6.588848419E0,-4.108656006E0,7.691156158E0,1.092922050E1
7.462875250E0,-1.243928238E1,-1.003632935E1,5.844296722E0,1.701820957E1
7.472798250E0,-1.215816696E1,-2.973461655E1,-5.233117676E-1,3.212852783E1
7.482721250E0,2.405198364E0,-7.267222733E1,2.984793091E-1,7.271263091E1
7.492645250E0,-8.255183258E0,-7.903100418E1,3.785478058E0,7.955110003E1
7.502568250E0,-1.031295410E1,-6.243860825E1,-4.053420868E0,6.341424952E1
7.512491250E0,-7.579787750E0,-3.750959839E1,-4.400698700E0,3.851998576E1
7.522414250E0,-9.649982758E0,-2.694037720E1,-7.569758606E-1,2.862654543E1
7.532337250E0,-9.667646027E0,-2.276376251E1,3.075504456E0,2.492209845E1
7.542260250E0,-1.001148102E1,-1.841410767E1,6.658453674E0,2.199191030E1
7.552184250E0,-9.310039673E0,-1.342632980E1,6.572232971E0,1.761071881E1
7.562107250E0,-6.296656036E0,-8.733289032E0,4.167333984E0,1.154490741E1
7.572030250E0,-2.378853149E0,-4.907844086E0,1.389859772E0,5.628284469E0
7.581953250E0,9.413923645E-1,-2.798730011E0,8.518785095E-1,3.073240351E0
7.591876250E0,3.031945038E0,-1.471589813E0,2.187251587E0,4.017752705E0
7.601799250E0,4.329446869E0,-3.959266663E-1,4.162543945E0,6.018940124E0
7.611722250E0,5.670208740E0,8.264314270E-1,5.687722321E0,8.073688207E0
7.621646250E0,5.953419800E0,2.328857117E0,5.668262787E0,8.543768829E0
7.631569250E0,5.144352264E0,3.876638489E0,4.164040833E0,7.670197015E0
7.641492250E0,4.050127716E0,5.220543823E0,2.119442596E0,6.938994830E0
7.651415250E0,2.678230591E0,6.539600830E0,5.580395508E-1,7.088773255E0
7.661338250E0,1.254092102E0,7.735164642E0,-6.619235229E-1,7.864074122E0
7.671261250E0,5.972579956E-2,8.376580811E0,-1.544637909E0,8.518014999E0
7.681185250E0,-8.693920898E-1,7.864196320E0,-1.990111542E0,8.158551974E0
7.691108250E0,-1.285676422E0,5.163662109E0,-1.638792114E0,5.567944849E0
7.701031250E0,-1.191971283E0,1.486558685E0,-8.190966797E-1,2.074023056E0
7.710954250E0,-7.226971436E-1,-8.475375366E-1,-3.052153015E-1,1.154888487E0
7.720877250E0,-4.074526978E-1,-2.379152527E0,-1.790277100E-1,2.420420494E0
7.730800250E0,-2.559677124E-1,-3.223097534E0,-3.387455750E-1,3.250942286E0
7.740723250E0,-3.740721130E-1,-3.230731659E0,-6.994953918E-1,3.326687662E0
7.750647250E0,-7.714956665E-1,-2.635718994E0,-1.204994202E0,2.999038380E0
7.760570250E0,-1.199455719E0,-1.774110718E0,-1.874102783E0,2.845773024E0
7.770493250E0,-1.397344208E0,-1.018482056E0,-2.384541321E0,2.945490425E0
7.780416250E0,-1.016236725E0,-5.972579956E-1,-2.531835022E0,2.792784054E0
7.790339250E0,-3.279679871E-1,-6.565347290E-1,-2.304008789E0,2.418068930E0
7.800262250E0,1.624122620E-1,-8.119116211E-1,-1.670975189E0,1.864868978E0
7.810186250E0,1.887574768E-1,-6.572831726E-1,-6.149212646E-1,9.196622835E-1
7.820109250E0,-2.179467773E-1,-4.596940613E-1,9.791139221E-1,1.103396348E0
7.830032250E0,-1.009051666E0,-3.537144470E-1,2.921923828E0,3.111420581E0
7.839955250E0,-2.325114899E0,-4.617897034E-1,4.645439758E0,5.215315865E0
7.849878250E0,-3.748954010E0,-1.278491364E0,6.002517700E0,7.191621172E0
7.859801250E0,-5.289999390E0,-3.340752869E0,7.366631012E0,9.664987105E0
7.869724250E0,-7.932005310E0,-6.219865723E0,8.030500488E0,1.288768311E1
7.879648250E0,-1.178843582E1,-1.399245255E1,7.436535645E0,1.974988632E1
7.889571250E0,-4.498445435E0,-5.486645462E1,4.835694122E0,5.526253515E1
7.899494250E0,-7.300318909E0,-8.013121628E1,8.136480103E0,8.087341211E1
7.909417250E0,-1.954171280E1,-7.379983246E1,4.845274200E0,7.649686590E1
7.919340250E0,-1.111513596E1,-4.837340698E1,1.182840271E0,4.964808014E1
7.929263250E0,-8.434210968E0,-2.885953629E1,2.092049561E0,3.013943298E1
7.939187250E0,-7.606432343E0,-2.058654007E1,3.913611603E0,2.229304378E1
7.949110250E0,-6.721622314E0,-1.548260376E1,6.397845612E0,1.805058598E1
7.959033250E0,-8.033045197E0,-1.106738525E1,7.686216431E0,1.568740751E1
7.968956250E0,-1.114432526E1,-7.522756348E0,3.094814301E0,1.379730858E1
7.978879250E0,-1.062176193E1,-5.338947601E0,-9.038204956E-1,1.192237726E1
7.988802250E0,-5.935008087E0,-3.831133118E0,-2.449655914E0,7.476811891E0
7.998726250E0,-3.863465881E-1,-3.808230743E0,-2.452350311E0,4.545977027E0
8.008649250E0,2.172582092E0,-4.001628571E0,-1.776356049E0,4.887595009E0
8.018572250E0,1.460961914E0,-3.512595520E0,-2.564616852E0,4.588027528E0
8.028494458E0,5.987548828E-2,-1.950294342E0,-2.928809509E0,3.519255353E0
8.038417458E0,-3.731739807E-1,-7.027885437E-1,-2.329306183E0,2.461470668E0
8.048340458E0,7.923023987E-1,3.194357300E-1,-2.900967407E-1,9.021853443E-1
8.058264458E0,2.161804504E0,1.645228729E0,2.708916779E0,3.836457533E0
8.068187458E0,2.776127014E0,3.453767853E0,4.676125946E0,6.442169467E0
8.078110458E0,2.832859039E0,5.401218109E0,4.598138123E0,7.638136003E0
8.088033458E0,2.663710785E0,6.948849792E0,3.526366882E0,8.235115784E0
8.097956458E0,3.108136597E0,7.751031647E0,1.623224487E0,8.507282905E0
8.107879458E0,4.372557220E0,7.162455597E0,1.200503540E-1,8.392522798E0
8.117802458E0,5.384452972E0,5.227878571E0,-4.923262024E-1,7.520999485E0
8.127726458E0,4.531376953E0,2.290087738E0,-4.201762390E-1,5.094548754E0
8.137649458E0,2.500400391E0,1.669029236E-1,-3.465293884E-1,2.529810530E0
8.147572458E0,1.380429382E0,-7.876620483E-1,-7.884104919E-1,1.774144269E0
8.157495458E0,6.580316162E-1,-1.497485962E0,-1.833686829E0,2.457209230E0
8.167418458E0,3.231779480E-1,-2.006277924E0,-2.982547760E0,3.609042288E0
8.177341458E0,2.716850281E-1,-2.272424469E0,-3.341052246E0,4.049735279E0
8.187265458E0,5.771997070E-1,-2.270328827E0,-3.303779755E0,4.050001624E0
8.197188458E0,9.807604980E-1,-1.876348114E0,-2.829416199E0,3.533860414E0
8.207111458E0,1.281335449E0,-1.629361725E0,-1.627565460E0,2.635452426E0
8.217034458E0,1.306782532E0,-1.985770569E0,9.175918579E-2,2.378946213E0
8.226957458E0,5.456153870E-1,-2.292482758E0,1.343306580E0,2.712498094E0
8.236880458E0,-7.156617737E-1,-2.331850891E0,2.413880310E0,3.431693242E0
8.246803458E0,-2.526146851E0,-2.263742523E0,4.158951416E0,5.366826344E0
8.256727458E0,-4.515809326E0,-2.494113464E0,6.007158051E0,7.918275298E0
8.266650458E0,-6.604266357E0,-3.515140228E0,6.646328888E0,1.000730896E1
8.276573458E0,-1.086829926E1,-6.315367126E0,4.515509949E0,1.335640748E1
8.286496458E0,-1.522918076E1,-1.670106995E1,2.842588806E-1,2.260386000E1
8.296419458E0,-5.036426697E0,-5.510146591E1,1.485211487E0,5.535108845E1
8.306342458E0,-3.829037476E-1,-7.993811783E1,9.330397339E0,8.048170980E1
8.316266458E0,-1.219813385E1,-7.491830658E1,2.290387115E0,7.593940350E1
8.326189458E0,-6.717880096E0,-4.971761169E1,-2.172282715E0,5.021642797E1
8.336112458E0,-4.949756927E0,-2.855357254E1,1.294208679E0,2.900830182E1
8.346035458E0,-5.427413635E0,-1.976938934E1,6.601721649E0,2.153760206E1
8.355958458E0,-6.494694214E0,-1.489402771E1,1.217448303E1,2.030347634E1
8.365881458E0,-7.381300507E0,-1.142948227E1,1.442729828E1,1.983087486E1
8.375805458E0,-9.967173157E0,-7.917635193E0,8.813073120E0,1.548236886E1
8.385728458E0,-7.980953522E0,-5.351671143E0,8.946894836E-1,9.650723932E0
8.395651458E0,-2.808160400E0,-4.475692749E0,-4.508923645E0,6.946076796E0
8.405574458E0,5.123844910E-1,-4.777315521E0,-8.243657227E0,9.541654255E0
8.415497458E0,-3.032693481E-1,-4.650978241E0,-9.219028931E0,1.033025001E1
8.425420458E0,-2.198627930E0,-3.863316193E0,-7.031028900E0,8.318325803E0
8.435344458E0,-2.943928070E0,-2.763403473E0,-2.965932312E0,5.009976618E0
8.445267458E0,-2.848276978E0,-8.678952026E-1,8.297245789E-1,3.091013863E0
8.455190458E0,-1.553619232E0,1.848056946E0,3.244053955E0,4.043876019E0
8.465113458E0,-1.896556091E-1,4.931195526E0,4.997058563E0,7.023051534E0
8.475036458E0,4.418811035E-1,7.487878876E0,5.939199371E0,9.567532500E0
8.484959458E0,-2.993774414E-4,9.060508575E0,6.028862915E0,1.088301446E1
8.494882458E0,-4.513114929E-1,9.606722717E0,5.180876312E0,1.092402320E1
8.504806458E0,-1.386117554E-1,9.052724762E0,3.280578003E0,9.629809493E0
8.514729458E0,5.123844910E-1,7.432494049E0,1.402733002E0,7.581039871E0
8.524652458E0,2.392025757E-1,4.387077026E0,2.074685669E-1,4.398489049E0
8.534575458E0,-4.593946838E-1,1.419947205E0,-4.888833618E-1,1.570445950E0
8.544498458E0,-2.667453003E-1,-5.119354248E-1,-1.479822693E0,1.588428826E0
8.554421458E0,3.962260437E-1,-2.086062012E0,-2.918630676E0,3.609301154E0
8.564345458E0,1.223854980E0,-3.274440765E0,-4.131558380E0,5.411982815E0
8.574268458E0,1.490300903E0,-3.921694794E0,-3.872746582E0,5.709540518E0
8.584191458E0,1.616937561E0,-3.863016815E0,-2.542911987E0,4.899366017E0
8.594114458E0,1.626517639E0,-3.279530182E0,-1.107546844E0,3.824596431E0
8.604037458E0,2.000440063E0,-2.767894135E0,-3.405418396E-1,3.432049990E0
8.613960458E0,2.476749573E0,-2.510728912E0,-9.175918579E-2,3.527955196E0
8.623884458E0,2.643203430E0,-2.569107513E0,1.678010559E-1,3.689850266E0
8.633807458E0,2.475402374E0,-2.681074677E0,9.199868774E-1,3.763263768E0
8.643730458E0,1.950593719E0,-2.496358795E0,1.970951385E0,3.731122144E0
8.653653458E0,1.039438477E0,-1.915566559E0,3.204386444E0,3.875296127E0
8.663576458E0,-9.400451660E-1,-1.315464478E0,4.194727020E0,4.495538508E0
8.673499458E0,-3.429368591E0,-1.462608490E0,5.177283783E0,6.379973346E0
8.683422458E0,-6.145021362E0,-3.029699707E0,5.960305481E0,9.081057718E0
8.693346458E0,-1.177765823E1,-6.689439240E0,4.283941498E0,1.420612493E1
8.703269458E0,-1.674612625E1,-2.001368134E1,6.387217712E-1,2.610341262E1
8.713192458E0,-6.521787872E0,-6.409356674E1,1.954934692E0,6.445417585E1
8.723115458E0,-9.333690491E0,-7.989710312E1,1.100825821E1,8.119018792E1
8.733038458E0,-1.431113983E1,-7.007183487E1,-7.951464844E-1,7.152274480E1
8.742961458E0,-2.582429810E0,-4.105302979E1,-7.366631012E0,4.178860432E1
8.752885458E0,-4.145030365E0,-2.506253220E1,1.147813110E0,2.542890622E1
8.762808458E0,-4.225562897E0,-1.930086365E1,8.837771759E0,2.164451268E1
8.772731458E0,-5.320685577E0,-1.599663483E1,1.313593369E1,2.137182198E1
8.782654458E0,-6.922055511E0,-1.252445526E1,1.176718002E1,1.852682806E1
8.792577458E0,-6.074218597E0,-8.762029266E0,5.866001587E0,1.216878232E1
8.802500458E0,-1.670526123E0,-5.825885010E0,-1.953737183E0,6.367784752E0
8.812424458E0,1.280736694E0,-4.657265167E0,-5.520669708E0,7.335407238E0
8.822347458E0,1.413211212E0,-4.112847290E0,-5.166206818E0,6.752952809E0
8.832270458E0,1.194066925E0,-2.597248993E0,-3.693569183E0,4.670540811E0
8.842193458E0,1.257385254E0,-6.900650024E-1,-1.384321289E0,1.993377239E0
8.852116458E0,1.592987366E0,9.550140381E-1,2.439926147E-2,1.857486443E0
8.862039458E0,1.525477753E0,2.912044373E0,1.187031555E0,3.495157896E0
8.871963458E0,4.601431274E-1,5.191504211E0,2.016456757E0,5.588340141E0
8.881886458E0,-9.795629883E-1,7.023694153E0,2.236199799E0,7.435886816E0
8.891809458E0,-1.829046478E0,8.326584778E0,1.492546234E0,8.654774367E0
8.901732458E0,-2.075583801E0,8.910071411E0,-1.237925720E-1,9.149466939E0
8.911655458E0,-1.726958771E0,8.810678101E0,-1.872456207E0,9.171506280E0
8.921578458E0,-7.734416199E-1,7.708669739E0,-2.547702026E0,8.155524918E0
8.931502458E0,8.652008057E-2,4.930896149E0,-1.397493896E0,5.125837663E0
8.941425458E0,-1.913021851E-1,1.668430481E0,5.484594727E-1,1.766653500E0
8.951348458E0,1.209484863E-1,-7.182064819E-1,1.304088135E0,1.493685024E0
8.961271458E0,9.315129089E-1,-2.522853699E0,9.422904968E-1,2.849634795E0
8.971194458E0,1.468745728E0,-3.671265564E0,2.763253784E-1,3.963806323E0
8.981117458E0,1.905088348E0,-4.370910645E0,-3.905378723E-1,4.784008916E0
8.991040458E0,2.367177429E0,-5.038971405E0,-8.126600647E-1,5.626293468E0
9.000964458E0,2.789598999E0,-5.684129791E0,-1.070873108E0,6.421679163E0
9.010887458E0,2.924917603E0,-5.951324158E0,-1.091081085E0,6.720406249E0
9.020810458E0,2.790048065E0,-5.573360138E0,-8.994795227E-1,6.297283132E0
9.030733875E0,2.070195007E0,-4.434678040E0,-4.969665527E-1,4.919253240E0
9.040656875E0,7.596702576E-1,-2.602338409E0,-6.541397095E-2,2.711741707E0
9.050579875E0,-8.532257080E-2,-1.071322174E0,3.791615295E-1,1.139637928E0
9.060503875E0,-1.128353577E0,-2.694396973E-3,9.157955933E-1,1.453227657E0
9.070426875E0,-2.443219299E0,7.714956665E-1,1.512155457E0,2.975086592E0
9.080349875E0,-4.318818970E0,8.788224792E-1,2.213447113E0,4.931924002E0
9.090272875E0,-6.799460449E0,-7.051835632E-1,2.820584564E0,7.394974208E0
9.100195875E0,-9.467212830E0,-3.069666595E0,3.809128876E0,1.065647383E1
9.110118875E0,-1.367900436E1,-7.506589966E0,3.752546539E0,1.604822915E1
9.120042875E0,-1.611129639E1,-1.701167404E1,-6.951544189E-1,2.344043866E1
9.129965875E0,-4.079317017E0,-4.034859467E1,-1.064586182E0,4.056825437E1
9.139888875E0,1.194426178E1,-7.704209015E1,1.015488281E1,7.862105754E1
9.149811875E0,-8.345295868E0,-7.781598083E1,1.215128128E1,7.919990198E1
9.159734875E0,-7.360942841E0,-5.779676102E1,-2.400707703E0,5.831305567E1
9.169657875E0,-6.499484253E-1,-3.486504776E1,3.863465881E-1,3.487324550E1
9.179581875E0,-2.512225800E0,-2.567131622E1,8.478518829E0,2.715166729E1
9.189504875E0,-6.247109070E0,-2.098486176E1,1.333501968E1,2.563617648E1
9.199427875E0,-1.214155151E1,-1.627131363E1,1.158231445E1,2.337355190E1
9.209350875E0,-1.298355057E1,-1.129087051E1,3.983965302E0,1.766149263E1
9.219273875E0,-8.682993622E0,-8.108338623E0,-1.867067413E0,1.202603319E1
9.229196875E0,-4.304897919E0,-7.312144318E0,-3.336262207E0,9.117578962E0
9.239120875E0,-1.416953430E0,-6.612948303E0,-3.300336914E0,7.525361522E0
9.249043875E0,-1.603914642E0,-5.314997406E0,-2.744692383E0,6.193147494E0
9.258966875E0,-4.129911804E0,-3.661086731E0,-1.410816193E0,5.696501548E0
9.268889875E0,-5.408103790E0,-2.164498901E0,4.852908325E-1,5.845352795E0
9.278812875E0,-5.216053162E0,-5.605842590E-1,2.517764282E0,5.818986362E0
9.288735875E0,-4.463717651E0,1.703307953E0,4.211941223E0,6.369182218E0
9.298659875E0,-3.222798157E0,4.379592590E0,4.879552917E0,7.305976724E0
9.308582875E0,-2.211351471E0,6.920558624E0,4.337530060E0,8.461582241E0
9.318505875E0,-1.755699005E0,8.656498718E0,3.005450134E0,9.330068572E0
9.328428875E0,-8.786727905E-1,9.574240265E0,9.093589783E-1,9.657384546E0
9.338351875E0,6.004014587E-1,9.445807343E0,-1.187330933E0,9.539051997E0
9.348274875E0,2.071841583E0,7.838898926E0,-2.564317474E0,8.503916041E0
9.358197875E0,3.171305237E0,4.404740295E0,-2.768642578E0,6.092971008E0
9.368121875E0,3.622616730E0,8.322692871E-1,-1.972148895E0,4.207777965E0
9.378044875E0,3.506757660E0,-1.147663422E0,-1.204245758E0,3.881325606E0
9.387967875E0,3.534749451E0,-2.452949066E0,-5.300477600E-1,4.335015966E0
9.397890875E0,3.527714081E0,-3.273093567E0,1.480421448E-1,4.814543032E0
9.407813875E0,3.229534149E0,-3.514391785E0,7.822732544E-1,4.836609544E0
9.417736875E0,3.103196869E0,-3.213068390E0,1.055754547E0,4.590017097E0
9.427660875E0,3.185974731E0,-2.550695801E0,3.384461975E-1,4.095244790E0
9.437583875E0,3.241359558E0,-2.025438080E0,-6.725514221E-1,3.880868023E0
9.447506875E0,3.188369751E0,-1.636846161E0,-1.278790741E0,3.805295361E0
9.457429875E0,2.981649628E0,-1.259630585E0,-1.250649261E0,3.470018341E0
9.467352875E0,2.672991486E0,-7.511380005E-1,-8.003855896E-1,2.889586280E0
9.477275875E0,2.011666718E0,-1.519340515E-1,-2.378553772E-1,2.031369518E0
9.487199875E0,1.242416382E0,2.944377136E-1,6.854246521E-1,1.449171828E0
9.497122875E0,5.710624695E-1,5.418731689E-1,1.595681763E0,1.779308619E0
9.507045875E0,-9.530680847E-1,5.831872559E-1,2.728226624E0,2.948163269E0
9.516968875E0,-3.468886414E0,-4.010160828E-1,4.823120270E0,5.954534070E0
9.526891875E0,-6.276298370E0,-2.026336212E0,7.248975677E0,9.800286121E0
9.536814875E0,-1.243299545E1,-4.956193542E0,7.289541321E0,1.524075599E1
9.546738875E0,-1.889221344E1,-1.824226501E1,3.552562408E0,2.650125773E1
9.556661875E0,-8.941356354E0,-6.745856918E1,9.316625977E-1,6.805493667E1
9.566584875E0,-1.387464752E1,-7.982270782E1,6.868167572E0,8.131016083E1
9.576507875E0,-1.781565216E1,-7.447462921E1,-3.765569458E0,7.666842487E1
9.586430875E0,1.070124664E0,-4.585474457E1,-7.176825714E0,4.642531199E1
9.596353875E0,6.605763245E-1,-2.310190933E1,1.581012268E0,2.316536587E1
9.606277875E0,-8.409512329E-1,-1.614078506E1,5.354215851E0,1.702644322E1
9.616200875E0,-3.296744385E0,-1.279569122E1,5.473667450E0,1.430242192E1
9.626123875E0,-6.427933044E0,-9.716893616E0,2.783461761E0,1.197848088E1
9.636046875E0,-5.502407684E0,-7.559280396E0,-1.247505798E0,9.432681546E0
9.645969875E0,-3.141816559E0,-6.790479126E0,-2.329904938E0,7.836458069E0
9.655892875E0,-1.450034637E0,-5.931116180E0,-1.485061798E0,6.283800454E0
9.665816875E0,4.819976807E-2,-4.243076477E0,6.155200195E-1,4.287760033E0
9.675739875E0,1.345551910E0,-1.870809631E0,3.815565491E0,4.457463251E0
9.685662875E0,2.600392456E0,1.322200470E0,5.754034424E0,6.451291898E0
9.695585875E0,2.760260010E0,4.910987549E0,6.522087250E0,8.618262941E0
9.705508875E0,1.281335449E0,8.232430573E0,6.298302612E0,1.044429746E1
9.715431875E0,-2.483335876E-1,1.082713486E1,4.225413208E0,1.162508648E1
9.725355875E0,-9.726773071E-1,1.201311859E1,1.209634552E0,1.211298209E1
9.735278875E0,-1.434916077E0,1.234003876E1,-2.079326019E0,1.259599688E1
9.745201875E0,-1.931882629E0,1.189725952E1,-4.655917969E0,1.292108845E1
9.755124875E0,-2.300565948E0,1.052431458E1,-5.730982361E0,1.220237517E1
9.765047875E0,-2.876867523E0,7.612719269E0,-5.029241638E0,9.566772333E0
9.774970875E0,-2.352657623E0,3.259771271E0,-3.289559326E0,5.194449652E0
9.784894875E0,-1.350192261E0,1.972897339E-1,-1.430425415E0,1.976881192E0
9.794817875E0,-6.351292419E-1,-1.509311371E0,2.962339783E-1,1.664080689E0
9.804740875E0,6.227050781E-2,-2.777174835E0,1.705553284E0,3.259676316E0
9.814663875E0,9.234297180E-1,-3.479664001E0,2.497406616E0,4.381532131E0
9.824586875E0,1.359622650E0,-3.702700195E0,2.207609253E0,4.520188171E0
9.834509875E0,1.380579071E0,-3.819158020E0,1.251248016E0,4.249422096E0
9.844433875E0,1.359023895E0,-3.838018799E0,3.025209045E-1,4.082750684E0
9.854356875E0,1.272653503E0,-3.465593262E0,-1.369651794E-1,3.694420530E0
9.864279875E0,1.008901978E0,-2.679577789E0,-9.699829102E-2,2.864861078E0
9.874202875E0,6.421646118E-1,-1.778152313E0,4.429289246E-1,1.941748457E0
9.884125875E0,2.835104370E-1,-1.106349335E0,1.531016235E0,1.910077939E0
9.894048875E0,-6.165678406E-1,-5.604345703E-1,2.283651123E0,2.430906263E0
9.903972875E0,-2.313588867E0,-8.437953186E-1,3.272494812E0,4.095595962E0
9.913895875E0,-3.808380432E0,-2.772235107E0,4.628375244E0,6.603855420E0
9.923818875E0,-5.459896088E0,-4.800367584E0,5.970184937E0,9.407289855E0
9.933741875E0,-8.687184906E0,-8.005502472E0,6.595734100E0,1.352992830E1
9.943664875E0,-1.166778671E1,-1.844344666E1,9.292077026E0,2.372004778E1
9.953587875E0,-7.433092804E0,-5.940741165E1,1.178005325E1,6.101853065E1
9.963511875E0,-1.628418686E1,-7.975040817E1,1.631816620E1,8.301557019E1
9.973434875E0,-1.762734375E1,-7.141529114E1,3.798650665E0,7.365661411E1
9.983357875E0,-3.916455688E0,-4.681918900E1,-6.489904175E0,4.742883026E1
9.993280875E0,-2.141446838E0,-3.019984909E1,-4.949307861E0,3.067755414E1
1.000320388E1,-2.182162170E0,-2.321911560E1,-4.302802277E0,2.371504308E1
1.001312688E1,-3.705993347E0,-1.938932968E1,-1.398242340E0,1.978978458E1
1.002305088E1,-4.992268524E0,-1.667786819E1,2.607876892E0,1.760326829E1
1.003297433E1,-4.724774780E0,-1.433329376E1,6.303841095E0,1.635558679E1
1.004289733E1,-3.388204193E0,-1.218795502E1,5.288951569E0,1.371127944E1
1.005282033E1,-2.081271973E0,-1.010383896E1,3.303630066E-1,1.032125934E1
1.006274333E1,-1.634600830E0,-8.244705048E0,-3.156785431E0,8.978439478E0
1.007266633E1,-1.824855194E0,-6.548282776E0,-3.655248871E0,7.718221822E0
1.008259033E1,-2.118843842E0,-4.420607300E0,-2.796035614E0,5.643499205E0
1.009251333E1,-2.401306458E0,-1.844015350E0,-1.355281677E0,3.317145420E0
1.010243633E1,-2.303859100E0,8.714877319E-1,2.661465454E-1,2.477517226E0
1.011235933E1,-1.550326080E0,3.648363190E0,2.011966095E0,4.445455262E0
1.012228233E1,-5.709127808E-1,6.368356934E0,3.282823334E0,7.187408467E0
1.013220533E1,2.210902405E-1,8.623866577E0,3.701352997E0,9.387223745E0
1.014212933E1,1.008303223E0,1.019005966E1,3.143612823E0,1.071150283E1
1.015205233E1,1.758842468E0,1.097847015E1,1.855691071E0,1.127226344E1
1.016197533E1,2.693349152E0,1.132754425E1,2.314187622E-1,1.164564052E1
1.017189833E1,4.016747131E0,1.045411057E1,-4.670288086E-1,1.120896075E1
1.018182133E1,5.933511200E0,7.598798218E0,-6.406677246E-2,9.641182192E0
1.019174433E1,7.753127289E0,3.410956879E0,9.160949707E-1,8.519673678E0
1.020166833E1,8.143814850E0,2.782713318E-1,1.641486511E0,8.312258009E0
1.021159133E1,6.667135620E0,-1.725162506E0,1.400038605E0,7.027587861E0
1.022151433E1,3.660338287E0,-2.964734802E0,5.152285767E-1,4.738479641E0
1.023143733E1,1.708547058E0,-3.711831207E0,-3.902384949E-1,4.104766747E0
1.024136033E1,7.920030212E-1,-3.989204407E0,-1.362167358E0,4.289116517E0
1.025128333E1,6.197113037E-2,-3.800297241E0,-2.049837341E0,4.318325216E0
1.026120733E1,-6.086343384E-1,-3.443139954E0,-2.278861084E0,4.173590341E0
1.027113033E1,-1.404678955E0,-3.248993683E0,-1.566043396E0,3.870603937E0
1.028105333E1,-2.645299072E0,-3.218157806E0,7.967930603E-1,4.241347195E0
1.029097633E1,-4.045038300E0,-3.045716400E0,4.487817535E0,6.766034989E0
1.030089933E1,-5.376070404E0,-2.982847137E0,7.576344910E0,9.757074983E0
1.031082233E1,-7.181316376E0,-3.371588745E0,9.334438934E0,1.225033329E1
1.032074633E1,-1.023810974E1,-4.611011353E0,8.879983978E0,1.431553115E1
1.033066933E1,-1.658401337E1,-1.236383926E1,1.030008087E0,2.071122733E1
1.034059233E1,-7.818391571E0,-3.693135086E1,-4.705914001E0,3.804204976E1
1.035051533E1,2.621199188E0,-7.505093079E1,1.417252808E0,7.511006259E1
1.036043833E1,-9.377698975E0,-7.798647629E1,3.992198181E-1,7.854929088E1
1.037036133E1,-3.269201660E0,-5.827531586E1,1.537602539E0,5.838719328E1
1.038028533E1,-1.166973267E0,-3.253798691E1,6.703210602E0,3.324177268E1
1.039020833E1,-7.376809845E0,-2.082514389E1,9.970166931E0,2.423856782E1
1.040013133E1,-9.779164124E0,-1.498473907E1,1.109358078E1,2.105331306E1
1.041005433E1,-9.301058350E0,-1.054122940E1,7.717201996E0,1.603690776E1
1.041997733E1,-6.560407562E0,-7.901319122E0,1.112785950E0,1.032996049E1
1.042990033E1,-3.168610840E0,-7.154222717E0,-2.253863068E0,8.142659029E0
1.043982433E1,-9.627978516E-1,-6.949448547E0,-2.878065033E0,7.583209950E0
1.044974733E1,2.881507874E-1,-6.455775146E0,-2.791994019E0,7.039552132E0
1.045967033E1,1.111588440E0,-5.487887878E0,-2.389930115E0,6.088046335E0
1.046959333E1,1.812880096E0,-4.292174377E0,-1.502874756E0,4.895705022E0
1.047951633E1,2.174078979E0,-2.832409973E0,-4.025129700E-1,3.593213375E0
1.048943933E1,2.557880859E0,-9.897418213E-1,9.062155151E-1,2.888523831E0
1.049936333E1,2.539618835E0,1.473386078E0,2.501148834E0,3.856977554E0
1.050928633E1,1.660496979E0,4.294120331E0,2.898422699E0,5.440365224E0
1.051920933E1,3.293151855E-3,7.381150818E0,1.743424530E0,7.584255226E0
1.052913233E1,-1.824705505E0,9.954299927E0,1.654060364E-1,1.012151157E1
1.053905533E1,-2.632575531E0,1.121572678E1,-1.414558411E0,1.160706494E1
1.054897833E1,-3.028651886E0,1.122710312E1,-2.409239960E0,1.187539531E1
1.055890233E1,-3.655697937E0,9.925709381E0,-2.173031158E0,1.079842111E1
1.056882533E1,-4.235292664E0,6.192173309E0,-9.656419373E-1,7.563939357E0
1.057874833E1,-3.613785095E0,2.297871552E0,1.188528442E-1,4.284131462E0
1.058867133E1,-1.940863953E0,-1.945953369E-2,-3.501219177E-1,1.972287229E0
1.059859433E1,-3.763174438E-1,-2.118843842E0,-2.681673431E0,3.438384277E0
1.060851733E1,4.941224670E-1,-3.646117859E0,-3.844305725E0,5.321373785E0
1.061844133E1,1.387315063E0,-3.924089813E0,-1.403331757E0,4.392318746E0
1.062836433E1,2.829416199E0,-3.897295532E0,9.394464111E-1,4.906838906E0
1.063828733E1,4.120930481E0,-3.859274597E0,1.859582977E0,5.944250777E0
1.064821033E1,4.786895599E0,-3.473077698E0,1.818717957E0,6.187436721E0
1.065813333E1,4.800666962E0,-2.850372620E0,1.811233521E0,5.869548042E0
1.066805633E1,4.159999237E0,-2.004631348E0,3.022364960E0,5.518951933E0
1.067798033E1,2.469863892E0,-1.140927429E0,5.465584259E0,6.105289046E0
1.068790333E1,-4.725672913E-1,-1.326391754E0,8.650062103E0,8.763915182E0
1.069782633E1,-3.949387207E0,-3.710484009E0,1.066068100E1,1.195890757E1
1.070774933E1,-1.009201355E1,-7.262148285E0,1.053748718E1,1.629804195E1
1.071767233E1,-1.619123016E1,-1.431697769E1,7.105274506E0,2.275119140E1
1.072759533E1,-1.089404572E1,-4.704551834E1,-2.652334442E0,4.836316683E1
1.073751933E1,-8.929530945E0,-7.915344955E1,2.774779816E0,7.970385500E1
1.074744233E1,-2.330204315E1,-7.773050858E1,4.672533417E0,8.128253039E1
1.075736533E1,-1.125793900E1,-5.971412384E1,-8.071964264E0,6.129987262E1
1.076728833E1,-2.760409698E0,-3.367592056E1,-1.058673477E1,3.540856451E1
1.077721133E1,-4.382586365E0,-2.349843475E1,-2.555934906E0,2.403988982E1
1.078713433E1,-5.435945892E0,-1.775622574E1,4.716841278E0,1.915937504E1
1.079705833E1,-6.499035187E0,-1.291634033E1,9.342821503E0,1.721504050E1
1.080698133E1,-6.687642975E0,-8.421936493E0,9.741292877E0,1.451021605E1
1.081690433E1,-3.444187775E0,-4.762646027E0,6.680906982E0,8.898300102E0
1.082682733E1,9.144483948E-1,-2.309846649E0,2.423759766E0,3.470766315E0
1.083675033E1,2.921923828E0,-7.270381165E-1,-1.419049072E-1,3.014359017E0
1.084667333E1,3.430715790E0,4.631369019E-1,1.501377869E-1,3.465089894E0
1.085659733E1,3.329526215E0,1.818268890E0,1.457968140E0,4.064174906E0
1.086652033E1,2.633623352E0,3.578907623E0,2.158810730E0,4.940143268E0
1.087644333E1,1.688638458E0,5.593717804E0,2.603535919E0,6.396841251E0
1.088636633E1,9.056167603E-1,7.537725220E0,2.568209381E0,8.014558168E0
1.089628933E1,5.463638306E-1,9.187594299E0,1.597328339E0,9.341405690E0
1.090621233E1,4.294569397E-1,1.018976028E1,-1.820214844E-1,1.020043037E1
1.091613633E1,6.264472961E-1,1.057251434E1,-1.957180023E0,1.077037833E1
1.092605933E1,9.301657104E-1,9.768985291E0,-2.507435760E0,1.012845082E1
1.093598233E1,5.246589661E-1,6.405928802E0,-1.609752502E0,6.625895711E0
1.094590533E1,-6.779402161E-1,2.180216217E0,-1.830693054E-1,2.290515239E0
1.095582833E1,-8.512797546E-1,-1.264869690E-1,7.595205688E-1,1.147844793E0
1.096575133E1,-9.428892517E-1,-1.855092316E0,9.500743103E-1,2.287585809E0
1.097567533E1,-1.244212646E0,-3.060834961E0,6.598278809E-1,3.369294971E0
1.098559833E1,-1.522334290E0,-3.684138794E0,5.493576050E-2,3.986652516E0
1.099552133E1,-1.846260681E0,-3.803141327E0,-6.691085815E-1,4.280218306E0
1.100544433E1,-2.164049835E0,-3.625011749E0,-1.234183502E0,4.398525979E0
1.101536733E1,-1.914069672E0,-3.480861511E0,-1.445843353E0,4.227354086E0
1.102529133E1,-1.094224548E0,-3.243604889E0,-1.290915527E0,3.658519227E0
1.103521396E1,-1.835183716E-1,-2.670446777E0,-9.369017029E-1,2.835974221E0
1.104513696E1,1.344204712E-1,-1.858834534E0,-5.553451538E-2,1.864515693E0
1.105505996E1,-4.323010254E-1,-1.063089294E0,1.641935577E0,2.003246232E0
1.106498296E1,-1.354682922E0,-8.837622070E-1,3.771107941E0,4.103346995E0
1.107490596E1,-2.344424744E0,-1.422491913E0,5.550757141E0,6.191180458E0
1.108482996E1,-4.321213989E0,-1.943708038E0,6.912325745E0,8.380402048E0
1.109475296E1,-8.517437897E0,-2.840044098E0,7.430548096E0,1.165442593E1
1.110467596E1,-1.652069504E1,-9.015601959E0,7.233108673E0,2.016264626E1
1.111459896E1,-1.455109085E1,-4.192930756E1,5.062622223E0,4.467024984E1
1.112452196E1,-1.281170792E1,-7.921407349E1,5.963448944E0,8.046472532E1
1.113444496E1,-1.950114716E1,-7.731706833E1,3.957470398E0,7.983661671E1
1.114436896E1,-4.110003204E0,-5.661212448E1,-5.194947052E0,5.699835295E1
1.115429196E1,-2.898572388E0,-3.098796021E1,-6.085594940E0,3.171261366E1
1.116421496E1,-4.140390015E0,-2.096600098E1,-3.086282043E0,2.159261826E1
1.117413796E1,-2.930007019E0,-1.592014389E1,2.013313293E-1,1.618877565E1
1.118406096E1,-2.961142273E0,-1.255798553E1,3.226989441E0,1.329980545E1
1.119398396E1,-4.172124023E0,-9.938432922E0,5.978417816E0,1.232560536E1
1.120390796E1,-4.942571869E0,-6.615942078E0,6.756200409E0,1.066986177E1
1.121383096E1,-1.750759277E0,-3.978875885E0,4.284091187E0,6.103281793E0
1.122375396E1,1.278641052E0,-2.349514160E0,1.621428223E0,3.127965666E0
1.123367696E1,1.801803131E0,-1.078507233E0,5.442681885E-1,2.169308700E0
1.124359996E1,9.398954773E-1,1.460961914E-1,4.715194702E-2,9.523502042E-1
1.125352296E1,-5.822891235E-2,1.524280243E0,-3.752696228E-1,1.570874965E0
1.126344696E1,-7.923023987E-1,3.186872864E0,-6.797364807E-1,3.353497193E0
1.127336996E1,-9.307644653E-1,5.135969696E0,-3.517684937E-1,5.231467125E0
1.128329296E1,-7.110214233E-1,7.132817230E0,3.335064697E-1,7.175922217E0
1.129321596E1,-3.851490784E-1,8.864865417E0,1.067879333E0,8.937256008E0
1.130313896E1,7.244934082E-2,9.717642059E0,1.320703583E0,9.807245997E0
1.131306196E1,9.262738037E-1,9.577234039E0,7.476951599E-1,9.650929647E0
1.132298596E1,2.275118866E0,8.655600586E0,-3.841012573E-1,8.957852484E0
1.133290896E1,3.915108490E0,6.205196228E0,-9.279203796E-1,7.395510188E0
1.134283196E1,5.026397552E0,2.203118591E0,-2.053729248E-1,5.491865068E0
1.135275496E1,5.210364990E0,-8.653504944E-1,6.242019653E-1,5.318492540E0
1.136267796E1,4.589755554E0,-2.652035065E0,1.002165985E0,5.394764378E0
1.137260096E1,3.169209595E0,-4.009861450E0,5.010081482E-1,5.135551331E0
1.138252496E1,1.817819824E0,-4.812642059E0,-4.598437500E-1,5.165021663E0
1.139244796E1,8.526269531E-1,-4.772974548E0,-8.672964478E-1,4.925491030E0
1.140237096E1,1.836680603E-1,-4.333039398E0,-8.149053955E-1,4.412826213E0
1.141229396E1,-1.026864624E-1,-3.757486267E0,-4.324507141E-1,3.783683546E0
1.142221696E1,-3.929328918E-1,-3.246448975E0,-1.299298096E-1,3.272721949E0
1.143213996E1,-5.691165161E-1,-2.744692383E0,1.196012878E-1,2.805625483E0
1.144206396E1,-9.482780457E-1,-1.990710297E0,8.319699097E-1,2.356763176E0
1.145198696E1,-1.708547058E0,-1.215322723E0,2.108515320E0,2.973546574E0
1.146190996E1,-3.527115326E0,-6.221063232E-1,3.417692871E0,4.950574044E0
1.147183296E1,-6.330934753E0,-8.915460205E-1,4.609364777E0,7.881740468E0
1.148175596E1,-9.092092896E0,-2.020498352E0,5.598507843E0,1.086700772E1
1.149167996E1,-1.262564484E1,-3.904630280E0,6.005062408E0,1.451598497E1
1.150160296E1,-1.999437149E1,-1.027568161E1,3.225642242E0,2.271055463E1
1.151152596E1,-1.815140396E1,-3.043680634E1,9.372010803E-1,3.545068394E1
1.152144896E1,-7.415279846E0,-7.322652466E1,7.350314941E0,7.396713742E1
1.153137196E1,-2.203971817E1,-7.917949539E1,8.533903656E0,8.263152654E1
1.154129496E1,-1.395997009E1,-6.655968842E1,4.733606415E0,6.817242783E1
1.155121896E1,-3.442990265E0,-3.738415924E1,3.529360657E0,3.770790276E1
1.156114196E1,-4.038901062E0,-2.210303650E1,3.294948120E0,2.270932908E1
1.157106496E1,-2.439776459E0,-1.442714859E1,3.137026520E0,1.496449334E1
1.158098796E1,-2.580034790E0,-9.219777374E0,3.755839691E0,1.028431846E1
1.159091096E1,-4.478237457E0,-6.222560120E0,5.842500458E0,9.638966582E0
1.160083396E1,-6.111940155E0,-4.714446259E0,7.438631287E0,1.071984381E1
1.161075796E1,-5.903872833E0,-3.173251190E0,7.206913147E0,9.841993429E0
1.162068096E1,-3.917054443E0,-2.171085205E0,5.150040436E0,6.824942708E0
1.163060396E1,-2.515069885E0,-1.485211487E0,2.574047241E0,3.893218320E0
1.164052696E1,-3.336411896E0,-6.602769470E-1,-1.350192261E-1,3.403797905E0
1.165044996E1,-3.557053070E0,3.077600098E-1,-1.392853546E0,3.832412265E0
1.166037296E1,-2.880759430E0,1.848655701E0,-1.593735809E0,3.775751134E0
1.167029696E1,-1.672621765E0,4.150568848E0,-1.321302338E0,4.665910972E0
1.168021996E1,-5.905220032E-1,6.753356323E0,-6.168672180E-1,6.807133246E0
1.169014296E1,4.936734009E-1,8.998537445E0,1.071771240E-1,9.012706392E0
1.170006596E1,1.587299194E0,1.036474640E1,8.804690552E-1,1.052248604E1
1.170998896E1,2.370919647E0,1.057161621E1,9.979747009E-1,1.088008652E1
1.171991196E1,3.294648743E0,9.937684479E0,-2.960842896E-1,1.047377435E1
1.172983596E1,4.698429565E0,8.584797821E0,-2.024989014E0,9.993726758E0
1.173975896E1,6.822811890E0,5.574407959E0,-2.141297150E0,9.066969706E0
1.174968196E1,8.360564117E0,1.694027252E0,-1.737886047E-1,8.532230844E0
1.175960496E1,7.719147949E0,-1.567689972E0,1.739233246E0,8.066463239E0
1.176952796E1,4.301604767E0,-4.011358337E0,2.217339020E0,6.285808747E0
1.177945096E1,4.607418823E-1,-6.165977783E0,9.497749329E-1,6.255688414E0
1.178937496E1,-1.821262665E0,-8.520880737E0,-1.114731903E0,8.784363008E0
1.179929796E1,-2.727178802E0,-1.032867142E1,-2.881208496E0,1.106437164E1
1.180922096E1,-2.496957550E0,-1.055649765E1,-3.537743225E0,1.141008619E1
1.181914396E1,-1.243314514E0,-9.100625153E0,-3.877386932E0,9.970021995E0
1.182906696E1,4.089495850E-1,-6.554120636E0,-3.383713531E0,7.387371274E0
1.183898996E1,1.246308289E0,-3.950435028E0,-1.966161346E0,4.585303883E0
1.184891396E1,2.110610962E-2,-2.488275604E0,-1.284628601E0,2.800398470E0
1.185883696E1,-2.431393890E0,-2.253264313E0,2.691403198E-1,3.325855202E0
1.186875996E1,-5.459297333E0,-3.700005798E0,2.079326019E0,6.915024727E0
1.187868296E1,-9.085207214E0,-6.443500671E0,3.860921173E0,1.178840122E1
1.188860596E1,-1.296693512E1,-1.097906891E1,4.616699524E0,1.760668268E1
1.189852996E1,-1.526570480E1,-2.497631149E1,5.478756866E0,2.978044083E1
1.190845296E1,-1.609797409E1,-5.599151505E1,7.150929565E0,5.869693621E1
1.191837596E1,-2.396411636E1,-7.106561829E1,9.736951904E0,7.562677573E1
1.192829896E1,-2.201217545E1,-6.024252502E1,1.184501816E1,6.522271187E1
1.193822196E1,-9.371412048E0,-3.890888855E1,9.625882874E0,4.116287882E1
1.194814496E1,-6.777605896E0,-2.600661896E1,6.044131165E0,2.754653686E1
1.195806896E1,-6.951693878E0,-1.852981705E1,4.038601685E0,2.019877400E1
1.196799196E1,-4.640200653E0,-1.412956741E1,2.391876068E0,1.506310753E1
1.197791496E1,-2.365231476E0,-1.213915649E1,1.443448334E0,1.245138480E1
1.198783796E1,-2.386187897E0,-1.026430527E1,3.327580261E-1,1.054327194E1
1.199776096E1,-2.678679657E0,-7.624245300E0,-8.259823608E-1,8.123219064E0
1.200768496E1,-1.593885498E0,-5.311704254E0,-1.404678955E0,5.720821272E0
1.201760796E1,-2.070195007E-1,-3.401077423E0,-1.630259857E0,3.777291611E0
1.202753096E1,1.619631958E-1,-1.793420563E0,-1.700014801E0,2.476416709E0
1.203745413E1,-6.677613831E-1,-2.860551453E-1,-1.740879822E0,1.886370951E0
1.204737713E1,-1.347797241E0,1.149609375E0,-1.772314453E0,2.505844696E0
1.205730013E1,-1.762584686E0,2.458637238E0,-1.756297760E0,3.498025681E0
1.206722412E1,-1.836680603E0,3.883973236E0,-1.460512848E0,4.537812415E0
1.207714713E1,-1.228944397E0,5.393733673E0,-3.511697388E-1,5.543102692E0
1.208707013E1,-1.196012878E-1,6.888824615E0,1.580563202E0,7.068832229E0
1.209699313E1,1.317709808E0,8.224646759E0,4.192032623E0,9.324929542E0
1.210691613E1,2.711012421E0,8.964109039E0,6.819369049E0,1.158484499E1
1.211683913E1,4.313430176E0,8.558602295E0,7.449857941E0,1.213901711E1
1.212676313E1,6.062991943E0,6.334377594E0,5.691015472E0,1.045331851E1
1.213668613E1,7.364235992E0,2.966231689E0,3.537144470E0,8.691483946E0
1.214660913E1,7.759713593E0,1.811233521E-1,2.145039368E0,8.052773100E0
1.215653213E1,6.934180298E0,-1.735041962E0,1.443148956E0,7.292181150E0
1.216645512E1,4.596641235E0,-2.872825928E0,8.461903381E-1,5.486189711E0
1.217637813E1,1.811383209E0,-3.484753418E0,4.540058899E-1,3.953572671E0
1.218630213E1,4.505630493E-2,-4.109105072E0,-4.101470947E-2,4.109556761E0
1.219622513E1,-3.800596619E-1,-4.546495514E0,-8.062234497E-1,4.633040368E0
1.220614813E1,-4.074526978E-1,-4.601880341E0,-1.594783630E0,4.887397589E0
1.221607113E1,-5.122348022E-1,-4.267775116E0,-2.323318634E0,4.886112812E0
1.222599413E1,-8.199948120E-1,-3.542832642E0,-2.574196930E0,4.455394983E0
1.223591713E1,-1.647024994E0,-2.691103821E0,-1.769170990E0,3.617277581E0
1.224584113E1,-2.915636902E0,-2.040257263E0,-3.281176758E-1,3.573688494E0
1.225576413E1,-4.483775940E0,-1.864073639E0,1.927092590E0,5.224241865E0
1.226568713E1,-6.768175507E0,-2.056423645E0,4.555177460E0,8.413484390E0
1.227561013E1,-1.006057892E1,-2.926713867E0,6.995552673E0,1.259835939E1
1.228553313E1,-1.498713409E1,-5.384303284E0,7.287146301E0,1.751306402E1
1.229545613E1,-2.136776550E1,-1.316212921E1,5.198090515E0,2.562895224E1
1.230538013E1,-1.651979691E1,-3.105831390E1,2.879561920E0,3.529609652E1
1.231530313E1,-5.578150177E0,-6.931620621E1,5.614674225E0,6.976658777E1
1.232522613E1,-1.001761826E1,-7.759504028E1,5.850284271E0,7.845743291E1
1.233514913E1,-9.485175476E0,-5.292229752E1,3.380719757E0,5.387176806E1
1.234507213E1,-3.933969269E0,-3.046285217E1,4.070036316E0,3.098429719E1
1.235499613E1,-2.788102112E0,-2.075538895E1,4.486470337E0,2.141700492E1
1.236491913E1,-1.155297546E0,-1.687695419E1,5.125341797E0,1.767584294E1
1.237484213E1,-2.361938324E0,-1.524849060E1,5.955665131E0,1.653980548E1
1.238476513E1,-7.421566772E0,-1.343501175E1,5.420228577E0,1.627753273E1
1.239468813E1,-9.332942047E0,-1.099373840E1,3.211421814E0,1.477427905E1
1.240461113E1,-6.272406464E0,-9.040450287E0,1.006656647E0,1.104926160E1
1.241453513E1,-3.200644226E0,-7.892786865E0,-1.378633118E-1,8.518169654E0
1.242445813E1,-2.164648590E0,-7.346572723E0,-9.069639587E-1,7.712354888E0
1.243438113E1,-2.582729187E0,-6.672674103E0,-2.173779602E0,7.477993547E0
1.244430413E1,-3.582949219E0,-5.634133759E0,-3.842659149E0,7.703701555E0
1.245422713E1,-3.668870544E0,-4.489015045E0,-3.577710114E0,6.812626278E0
1.246415013E1,-2.124681702E0,-3.167263641E0,-5.945635986E-1,3.859965956E0
1.247407412E1,-2.574645996E-2,-1.534459076E0,2.864293671E0,3.249523929E0
1.248399713E1,2.070045319E0,9.970765686E-1,4.515659637E0,5.066599576E0
1.249392013E1,3.185675354E0,4.619693298E0,4.283492432E0,7.059631792E0
1.250384313E1,3.416495361E0,8.119565277E0,3.535497894E0,9.492077023E0
1.251376613E1,2.964136047E0,1.041264679E1,2.303410034E0,1.106865003E1
1.252369013E1,2.584675140E0,1.111513596E1,9.595046997E-2,1.141209882E1
1.253361313E1,2.996618500E0,1.066502197E1,-2.408042450E0,1.133671401E1
1.254353613E1,3.487148438E0,9.108408966E0,-3.709436188E0,1.043471298E1
1.255345913E1,2.934797058E0,6.007457428E0,-3.571273499E0,7.580011406E0
1.256338213E1,6.306385803E-1,2.628384247E0,-2.065854034E0,3.402037869E0
1.257330512E1,3.308120728E-2,6.851252747E-1,-7.068301392E-1,9.849364720E-1
1.258322913E1,2.204914856E-1,-9.434880066E-1,-2.177970886E-1,9.930869477E-1
1.259315213E1,-2.127076721E-1,-2.348915405E0,-4.278103638E-1,2.397012691E0
1.260307513E1,-8.369096375E-1,-3.446882172E0,-8.921447754E-1,3.657504169E0
1.261299813E1,-1.129401398E0,-4.011657715E0,-4.531077576E-1,4.192165524E0
1.262292113E1,-3.897894287E-1,-4.167932739E0,1.120869141E0,4.333583592E0
1.263284413E1,5.415737915E-1,-4.413721619E0,2.071691895E0,4.905726043E0
1.264276813E1,9.057664490E-1,-4.573289795E0,3.121608582E0,5.610689133E0
1.265269113E1,3.745211792E-1,-4.494553528E0,5.029990082E0,6.755892077E0
1.266261413E1,-1.211879883E0,-4.424199829E0,7.268135834E0,8.594649235E0
1.267253713E1,-3.618126068E0,-5.316045227E0,8.570876770E0,1.071499425E1
1.268246013E1,-6.528523865E0,-8.306376801E0,9.134005737E0,1.396594358E1
1.269238313E1,-8.149353333E0,-1.947764603E1,8.542735291E0,2.277650062E1
1.270230713E1,-8.468489685E0,-5.415543320E1,8.960217133E0,5.554108167E1
1.271223013E1,-2.080748062E1,-7.800219360E1,9.830357666E0,8.132606832E1
1.272215313E1,-2.437351501E1,-6.357384750E1,6.516249390E0,6.839710394E1
1.273207613E1,-1.252984406E1,-3.726934799E1,8.692424011E-1,3.932883006E1
1.274199913E1,-9.782157898E0,-2.310056213E1,-1.353485413E0,2.512286820E1
1.275192313E1,-8.030051422E0,-1.639914780E1,-8.328680420E-1,1.827860617E1
1.276184613E1,-8.604556732E0,-1.306797501E1,1.351090393E0,1.570464303E1
1.277176913E1,-9.788295135E0,-1.167572021E1,3.731739807E0,1.568626935E1
1.278169213E1,-9.586814117E0,-1.079210770E1,5.534141693E0,1.545973214E1
1.279161513E1,-6.778953094E0,-9.816586304E0,5.411546631E0,1.309978659E1
1.280153813E1,-3.014281769E0,-8.687633972E0,3.786376190E0,9.944723388E0
1.281146213E1,5.366340637E-1,-7.215595093E0,-8.412506104E-2,7.236011725E0
1.282138513E1,2.094594269E0,-5.767805786E0,-3.333268433E0,6.983236154E0
1.283130813E1,1.722767487E0,-4.366270294E0,-4.348906403E0,6.398846067E0
1.284123112E1,8.457412720E-1,-2.773133240E0,-4.064497833E0,4.992563360E0
1.285115413E1,6.239025879E-1,-1.482367401E0,-2.191143494E0,2.718046608E0
1.286107713E1,1.310674438E0,-6.336323547E-1,-8.277786255E-2,1.458152811E0
1.287100113E1,1.965113525E0,4.879852295E-1,1.860032043E0,2.749458120E0
1.288092413E1,2.352358246E0,1.839674377E0,3.168161774E0,4.353761610E0
1.289084713E1,2.734363861E0,3.380570068E0,3.506308594E0,5.585624376E0
1.290077013E1,2.900668030E0,5.004692688E0,2.785258026E0,6.420162474E0
1.291069313E1,3.503165131E0,6.258784790E0,1.473984833E0,7.322375589E0
1.292061713E1,4.321064301E0,6.738986206E0,1.486408997E-1,8.006723793E0
1.293054013E1,4.803361359E0,6.311325531E0,-7.873626709E-1,7.970260364E0
1.294046313E1,4.617897034E0,4.994064789E0,-1.247056732E0,6.915258970E0
1.295038613E1,3.146157532E0,2.832859039E0,-9.717791748E-1,4.343702604E0
1.296030913E1,2.462080078E0,1.567989349E0,-3.070115662E-1,2.935078366E0
1.297023213E1,1.783541107E0,9.295669556E-1,2.450404358E-1,2.026119054E0
1.298015613E1,7.270381165E-1,5.704637146E-1,5.212161255E-1,1.060980453E0
1.299007913E1,-2.348616028E-1,3.784130859E-1,3.662882996E-1,5.766485537E-1
1.300000213E1,-1.069226532E0,1.713935852E-1,2.155517578E-2,1.083090838E0
1.300992513E1,-1.752705231E0,-2.228865051E-1,4.225712585E-1,1.816650899E0
1.301984813E1,-2.314936066E0,-9.223818970E-1,1.751058655E0,3.045640124E0
1.302977063E1,-3.096011810E0,-1.924847260E0,3.620670776E0,5.138052449E0
1.303969463E1,-4.520150299E0,-3.126398621E0,5.429808655E0,7.725862352E0
1.304961763E1,-6.551875305E0,-4.470303955E0,6.937473450E0,1.053751514E1
1.305954063E1,-8.768316193E0,-7.092251587E0,6.936425629E0,1.323999252E1
1.306946363E1,-1.077175003E1,-1.733335510E1,6.120921478E0,2.130590241E1
1.307938663E1,-1.201147202E1,-5.206667679E1,8.131989441E0,5.404945461E1
1.308931063E1,-2.444057556E1,-7.814544571E1,6.796316986E0,8.215985847E1
1.309923363E1,-2.343092514E1,-5.967221100E1,-2.685265961E0,6.416378785E1
1.310915663E1,-6.565646667E0,-3.720632904E1,-3.841761017E0,3.797601565E1
1.311907963E1,-2.371817780E0,-2.758388901E1,-1.434017944E0,2.772278593E1
1.312900263E1,-3.259471893E0,-2.368389908E1,1.638043671E0,2.396318885E1
1.313892563E1,-4.434228973E0,-2.148871399E1,4.902904358E0,2.248256406E1
1.314884963E1,-6.126160583E0,-1.940804077E1,9.256600800E0,2.235814278E1
1.315877262E1,-7.836204529E0,-1.605890533E1,1.233330276E1,2.171186079E1
1.316869563E1,-8.296497345E0,-1.138981476E1,9.235644379E0,1.684805257E1
1.317861863E1,-5.940396881E0,-7.373516693E0,3.587439880E0,1.012555127E1
1.318854163E1,-2.361788635E0,-4.632267151E0,-1.804647217E0,5.503880094E0
1.319846463E1,-4.492158508E-1,-3.461102600E0,-3.756438446E0,5.127558472E0
1.320838863E1,3.595523071E-1,-2.872975616E0,-3.769910431E0,4.753471512E0
1.321831163E1,1.203946381E0,-1.729503479E0,-3.331621857E0,3.942128025E0
1.322823463E1,2.243534546E0,-4.237687683E-1,-1.840871887E0,2.932888769E0
1.323815763E1,2.948269043E0,7.526348877E-1,-5.444178772E-1,3.091139021E0
1.324808063E1,3.275488586E0,1.942061462E0,2.499801636E-2,3.808024830E0
1.325800463E1,3.078647919E0,3.067271576E0,-5.448669434E-2,4.346170352E0
1.326792763E1,2.319127350E0,4.011358337E0,-3.882925415E-1,4.649743915E0
1.327785063E1,1.738335114E0,4.399650879E0,-6.703060913E-1,4.777870559E0
1.328777363E1,1.564546509E0,4.400099945E0,-9.490264893E-1,4.765431416E0
1.329769662E1,1.356479187E0,4.096830597E0,-1.408870239E0,4.539710572E0
1.330761963E1,1.012494507E0,3.639531555E0,-1.568438416E0,4.090395351E0
1.331754363E1,5.498066711E-1,3.229234772E0,-1.333876190E0,3.536872952E0
1.332746663E1,1.121168518E-1,2.407443695E0,-6.562353516E-1,2.497799065E0
1.333738963E1,-7.484436035E-3,1.079704742E0,1.965412903E-1,1.097472927E0
1.334731263E1,4.828958130E-1,1.890568542E-1,1.051413574E0,1.172348653E0
1.335723563E1,1.007405090E0,-2.550695801E-1,1.455573120E0,1.788468231E0
1.336715863E1,1.170416107E0,-5.285508728E-1,1.230441284E0,1.778545935E0
1.337708263E1,1.241518250E0,-8.036787415E-1,5.727090454E-1,1.585957986E0
1.338700563E1,1.500629425E0,-1.094224548E0,-2.029779053E-1,1.868265523E0
1.339692863E1,1.978136444E0,-1.418300629E0,-8.515791321E-1,2.578718186E0
1.340685163E1,2.666554871E0,-1.907183990E0,-1.236279144E0,3.503748246E0
1.341677463E1,2.893632660E0,-2.206411743E0,-1.047371979E0,3.786601486E0
1.342669763E1,2.052232361E0,-2.605481873E0,5.658233643E-2,3.317136568E0
1.343662163E1,-9.265731812E-2,-3.186423798E0,1.900447998E0,3.711278026E0
1.344654463E1,-3.336112518E0,-4.040098572E0,4.458179169E0,6.879491602E0
1.345646763E1,-7.109914856E0,-5.440735931E0,6.321654053E0,1.095973570E1
1.346639063E1,-1.531689835E1,-1.287936722E1,5.301226044E0,2.070237842E1
1.347631363E1,-1.666080368E1,-4.087564865E1,3.917952576E0,4.431423456E1
1.348623763E1,-1.503533386E1,-7.740673187E1,6.848558350E0,7.915027577E1
1.349616063E1,-1.798509979E1,-7.076534271E1,2.772684174E0,7.306767631E1
1.350608363E1,-6.092031555E0,-4.621070435E1,-3.360661469E0,4.673153208E1
1.351600663E1,-2.964734802E0,-3.261238220E1,-4.516108704E0,3.305680510E1
1.352592963E1,-6.364165649E0,-2.667303314E1,-2.596051483E0,2.754437846E1
1.353585363E1,-5.585035858E0,-2.394271088E1,-2.315684509E-1,2.458657466E1
1.354577663E1,-5.443879395E0,-2.105341919E1,4.002077637E0,2.211105850E1
1.355569963E1,-6.693031769E0,-1.634511017E1,7.484885101E0,1.918287793E1
1.356562262E1,-7.443421326E0,-1.062580353E1,6.854545898E0,1.467300314E1
1.357554563E1,-6.101911011E0,-5.434898071E0,3.969894562E0,9.084684797E0
1.358546863E1,-3.179987183E0,-1.868115234E0,1.127605133E0,3.856639255E0
1.359539263E1,-1.066532135E0,1.853146362E-1,-9.018745422E-1,1.408974804E0
1.360531563E1,-9.056167603E-2,1.153351593E0,-1.388362885E0,1.807200269E0
1.361523863E1,2.694396973E-1,1.646126862E0,-1.215023346E0,2.063640745E0
1.362516163E1,1.160087585E0,2.212548981E0,-5.888754272E-1,2.566700307E0
1.363508463E1,2.438878326E0,2.966231689E0,2.402503967E-1,3.847645797E0
1.364500763E1,3.593427429E0,3.956721954E0,1.295106812E0,5.499606437E0
1.365493163E1,4.121978302E0,4.871769104E0,2.410287781E0,6.821607326E0
1.366485463E1,3.666475525E0,5.634283447E0,2.863694916E0,7.306773659E0
1.367477763E1,2.973566437E0,6.180647278E0,2.541115723E0,7.314353508E0
1.368470063E1,2.617756348E0,6.188131714E0,2.060614929E0,7.027926884E0
1.369462363E1,2.568957825E0,4.866529999E0,1.065334625E0,5.605140176E0
1.370454663E1,1.468146973E0,2.156864777E0,-1.886077881E-1,2.615930828E0
1.371447063E1,6.436614990E-2,3.242257690E-1,-3.956272888E-1,5.155446656E-1
1.372439363E1,-8.719367981E-1,-5.587879944E-1,-2.874023438E-1,1.074764118E0
1.373431663E1,-1.209035797E0,-9.304650879E-1,-2.067201233E-1,1.539566838E0
1.374423963E1,-1.136137390E0,-9.327104187E-1,-2.013313293E-1,1.483674897E0
1.375416263E1,-9.701325989E-1,-8.821156311E-1,-3.373983765E-1,1.353928695E0
1.376408663E1,-8.273295593E-1,-9.345066833E-1,-5.986051941E-1,1.384234489E0
1.377400963E1,-8.470884705E-1,-1.008303223E0,-1.018931122E0,1.665069037E0
1.378393263E1,-9.280700684E-1,-1.165925446E0,-1.369801483E0,2.024117660E0
1.379385563E1,-7.821235657E-1,-1.234033813E0,-1.118923187E0,1.840256999E0
1.380377863E1,-5.530998230E-1,-1.327289886E0,-8.240364075E-1,1.657303188E0
1.381370163E1,-4.035607910E-1,-1.793570251E0,-3.248245239E-1,1.866886855E0
1.382362563E1,-2.770738220E-1,-2.262694702E0,1.023272095E0,2.498728276E0
1.383354862E1,-4.809498596E-1,-2.518063660E0,2.783012695E0,3.783796641E0
1.384347163E1,-1.845063171E0,-2.631378021E0,4.558171234E0,5.577215559E0
1.385339463E1,-4.034111023E0,-3.218457184E0,6.562353516E0,8.348473037E0
1.386331763E1,-7.076534271E0,-4.981041870E0,7.829468536E0,1.166999113E1
1.387324163E1,-1.130913254E1,-1.126048370E1,7.344477081E0,1.756804814E1
1.388316463E1,-9.392817535E0,-4.197750732E1,7.165748749E0,4.360830308E1
1.389308763E1,-1.143861328E1,-7.904881714E1,9.384285278E0,8.042152806E1
1.390301063E1,-1.986908203E1,-7.544910278E1,1.979633331E0,7.804656610E1
1.391293363E1,-9.160051575E0,-5.035423782E1,-3.094514923E0,5.127408541E1
1.392285663E1,-9.694589996E0,-2.909349976E1,-4.696932678E0,3.102382923E1
1.393278063E1,-9.517208862E0,-2.127855103E1,-2.759661255E0,2.347274438E1
1.394270363E1,-5.892646179E0,-1.814855988E1,1.667532349E0,1.915395961E1
1.395262663E1,-5.486091614E0,-1.520747589E1,5.735173645E0,1.715391328E1
1.396254963E1,-8.806337128E0,-1.175460617E1,1.014664993E1,1.785152220E1
1.397247262E1,-1.094434113E1,-7.736811218E0,9.566007385E0,1.646649167E1
1.398239663E1,-7.164102173E0,-4.653972015E0,3.903881836E0,9.392768966E0
1.399231963E1,-1.821861420E0,-2.468965759E0,-1.574725342E0,3.448873853E0
1.400224263E1,1.382824402E0,-1.114731903E0,-4.242777100E0,4.599563899E0
1.401216563E1,1.843865662E0,-4.493655396E-1,-3.903133392E0,4.340071456E0
1.402208863E1,1.093775482E0,1.606159973E-1,-2.298021240E0,2.550106650E0
1.403201233E1,1.051712952E0,1.357077942E0,2.510279846E-1,1.735158702E0
1.404193633E1,1.854194183E0,3.165317688E0,2.283800812E0,4.321228793E0
1.405185933E1,2.226470032E0,5.554050293E0,3.066373444E0,6.723636632E0
1.406178233E1,1.827848969E0,7.767198029E0,2.872825928E0,8.480773896E0
1.407170533E1,1.499282227E0,9.273665314E0,1.918560333E0,9.587991933E0
1.408162833E1,1.685045929E0,9.501790924E0,6.152206421E-2,9.650243288E0
1.409155133E1,2.309846649E0,7.057823181E0,-1.226549377E0,7.526797657E0
1.410147533E1,1.496887207E0,2.332299957E0,-1.259331207E0,3.044044923E0
1.411139833E1,7.807763672E-1,-3.619473267E-1,-7.759863281E-1,1.158780559E0
1.412132133E1,6.414161682E-1,-1.446142731E0,-4.815486145E-1,1.653672448E0
1.413124433E1,4.734654236E-1,-2.223625946E0,-1.743873596E-1,2.280151926E0
1.414116733E1,5.972579956E-1,-2.718047791E0,4.415817261E-2,2.783244662E0
1.415109133E1,6.744973755E-1,-2.999013519E0,1.131646729E-1,3.076009597E0
1.416101433E1,5.792953491E-1,-2.958447876E0,-1.386117554E-1,3.017815461E0
1.417093733E1,4.734654236E-1,-2.656226349E0,-5.249583435E-1,2.748688630E0
1.418086033E1,6.054908752E-1,-2.349663849E0,-7.625143433E-1,2.543416507E0
1.419078333E1,8.259823608E-1,-2.118544464E0,-1.108295288E0,2.529584146E0
1.420070633E1,1.223256226E0,-2.006128235E0,-1.132395172E0,2.608299276E0
1.421063033E1,1.552272034E0,-2.016157379E0,-4.682263184E-1,2.587213739E0
1.422055333E1,1.691183167E0,-2.108515320E0,1.048419800E0,2.899158746E0
1.423047633E1,7.655081177E-1,-2.204465790E0,2.361638947E0,3.320091958E0
1.424039933E1,-1.508862305E0,-2.406096497E0,3.432362366E0,4.455005860E0
1.425032233E1,-3.702400818E0,-3.019221497E0,5.004842377E0,6.918953496E0
1.426024633E1,-7.941136322E0,-6.167474670E0,5.525010681E0,1.147279970E1
1.427016933E1,-1.337229218E1,-1.851290222E1,4.215833130E0,2.322324257E1
1.428009233E1,-7.162455597E0,-5.912524841E1,6.074967041E0,5.986652650E1
1.429001533E1,-1.052341644E1,-7.991955643E1,1.011102402E1,8.124106474E1
1.429993833E1,-1.505823624E1,-6.629024872E1,2.311942291E0,6.801832570E1
1.430986133E1,-1.054287598E1,-3.958143997E1,-3.948489075E0,4.115134494E1
1.431978533E1,-1.205922272E1,-2.603895172E1,-1.654958496E0,2.874353400E1
1.432970833E1,-1.075184143E1,-2.124711639E1,1.394799500E0,2.385345918E1
1.433963133E1,-1.074525513E1,-1.806757828E1,3.294199677E0,2.127791447E1
1.434955433E1,-1.286724243E1,-1.406175842E1,5.771847382E0,1.991515001E1
1.435947733E1,-1.198303116E1,-9.581425323E0,3.893852692E0,1.582905037E1
1.436940133E1,-7.548053741E0,-5.843099213E0,-6.132746887E-1,9.565094330E0
1.437932433E1,-2.574346619E0,-3.489393768E0,-3.600762177E0,5.636365641E0
1.438924733E1,8.228388977E-1,-2.265239410E0,-4.443060608E0,5.054617790E0
1.439917033E1,1.611399078E0,-1.843865662E0,-3.805236969E0,4.525071928E0
1.440909333E1,4.269122314E-1,-1.159788208E0,-1.621877289E0,2.039080352E0
1.441901633E1,6.322851562E-1,-3.733236694E-1,1.623074799E0,1.781439553E0
1.442894033E1,2.053878937E0,9.981243896E-1,4.752467194E0,5.272628890E0
1.443886333E1,2.820285187E0,3.432362366E0,6.921157379E0,8.224204485E0
1.444878633E1,2.525099030E0,6.267167358E0,7.561825104E0,1.014074508E1
1.445870933E1,1.655557251E0,8.526269531E0,6.024222565E0,1.057021284E1
1.446863233E1,1.533560944E0,9.698332214E0,3.088527374E0,1.029312675E1
1.447855533E1,2.148931274E0,9.641300812E0,6.562353516E-1,9.899658166E0
1.448847933E1,2.578388214E0,8.315358124E0,-3.751199341E-1,8.714010642E0
1.449840233E1,2.570305023E0,5.733227692E0,-3.692820740E-1,6.293865023E0
1.450832533E1,1.338516541E0,2.118993530E0,-4.191284180E-3,2.506347477E0
1.451824833E1,7.442523193E-1,-5.038522339E-1,-5.014572144E-2,9.001628640E-1
1.452817133E1,9.145980835E-1,-2.156864777E0,-3.023712158E-1,2.362198906E0
1.453809533E1,1.169517975E0,-3.168610840E0,-4.754113770E-1,3.410847831E0
1.454801833E1,1.183888092E0,-3.706592102E0,-7.807763672E-1,3.968630464E0
1.455794133E1,8.164022827E-1,-3.847299500E0,-1.043629761E0,4.069077193E0
1.456786433E1,8.827143860E-1,-3.663032684E0,-9.327104187E-1,3.881615882E0
1.457778733E1,1.477876740E0,-3.298390961E0,-7.258406067E-1,3.686508806E0
1.458771033E1,1.935175781E0,-3.047213287E0,-4.710704041E-1,3.640373806E0
1.459763433E1,1.951940918E0,-3.062780914E0,2.140548706E-2,3.631963446E0
1.460755733E1,1.472787323E0,-3.039130096E0,6.866221619E-1,3.446282669E0
1.461748033E1,4.203259277E-1,-2.613864441E0,1.380279694E0,2.985654574E0
1.462740333E1,-9.901908875E-1,-2.075733490E0,2.145937500E0,3.145503977E0
1.463732633E1,-2.772235107E0,-2.119592285E0,3.005749512E0,4.605701800E0
1.464724933E1,-4.538112946E0,-2.795586548E0,3.942651215E0,6.629801796E0
1.465717333E1,-6.962920532E0,-4.321213989E0,4.140240326E0,9.181325756E0
1.466709633E1,-1.199246155E1,-9.595795441E0,2.314337311E0,1.553237204E1
1.467701933E1,-1.201790863E1,-3.052332642E1,1.196461945E0,3.282582984E1
1.468694233E1,-8.255931702E0,-7.427554321E1,6.772815857E0,7.503924148E1
1.469686533E1,-1.557630890E1,-7.874405090E1,6.687942352E0,8.054797033E1
1.470678933E1,-9.480385437E0,-6.200885193E1,-7.767347717E-1,6.273419118E1
1.471671233E1,-4.969216461E0,-3.803740082E1,-1.616638184E0,3.839466750E1
1.472663533E1,-7.113956451E0,-2.760739014E1,2.277663574E0,2.860007199E1
1.473655833E1,-8.592431946E0,-2.332898712E1,7.856711884E0,2.607296394E1
1.474648133E1,-1.128518234E1,-1.942136307E1,1.150118317E1,2.523533036E1
1.475640533E1,-1.317679871E1,-1.390698029E1,1.024963577E1,2.172756678E1
1.476632833E1,-9.760902100E0,-8.442743225E0,4.792134705E0,1.376661462E1
1.477625133E1,-3.975732422E0,-5.120851135E0,-6.074368286E-1,6.511416447E0
1.478617433E1,3.209326172E-1,-3.363804932E0,-3.999233551E0,5.235651856E0
1.479609733E1,1.135688324E0,-2.474803619E0,-5.090464325E0,5.772977392E0
1.480602033E1,-5.057981873E-1,-1.653760986E0,-3.970193939E0,4.330496175E0
1.481594433E1,-9.722282410E-1,-4.529580688E-1,-2.047741699E0,2.311632504E0
1.482586733E1,5.992039490E-1,7.294331360E-1,5.257067871E-1,1.080502521E0
1.483579033E1,2.241438904E0,2.220183105E0,3.300336914E0,4.565685614E0
1.484571333E1,3.715872803E0,3.974983978E0,5.662424927E0,7.853105396E0
1.485563633E1,4.132456512E0,5.779930573E0,7.193141785E0,1.011069152E1
1.486556033E1,2.875220947E0,7.553442535E0,6.634802856E0,1.045667244E1
1.487548333E1,2.051483917E0,8.941805420E0,3.619473267E0,9.862304860E0
1.488540633E1,1.969155121E0,9.746681671E0,-3.397933960E-1,9.949413804E0
1.489532933E1,1.801952820E0,9.504185944E0,-2.379302216E0,9.961810250E0
1.490525233E1,1.084195404E0,7.272626495E0,-2.668351135E0,7.822191099E0
1.491517533E1,-5.849835205E-1,3.906576233E0,-2.109563141E0,4.478146964E0
1.492509933E1,-1.562301178E0,2.025587769E0,-1.224004669E0,2.835838185E0
1.493502233E1,-1.955683136E0,5.535488892E-1,-5.836363220E-1,2.114649914E0
1.494494533E1,-1.686542816E0,-9.092092896E-1,-5.688171387E-1,1.998659836E0
1.495486833E1,-1.393452301E0,-1.928888855E0,-1.207389221E0,2.668353474E0
1.496479133E1,-7.096742249E-1,-2.347418518E0,-7.735913086E-1,2.571469369E0
1.497471533E1,6.188131714E-1,-2.628533936E0,6.855743408E-2,2.701262763E0
1.498463833E1,1.777403870E0,-3.095562744E0,6.661148071E-1,3.631168153E0
1.499456133E1,2.221230927E0,-3.395688629E0,1.126707001E0,4.211179972E0
1.500448433E1,2.404898987E0,-3.325634308E0,1.544787598E0,4.385174045E0
1.501440733E1,2.036365356E0,-3.212769012E0,1.722617798E0,4.175653323E0
1.502433033E1,6.935078430E-1,-3.138373718E0,1.679507446E0,3.626442883E0
1.503425446E1,-8.683442688E-1,-3.128344574E0,1.318907318E0,3.504294231E0
1.504417746E1,-1.871109009E0,-3.238964539E0,7.123686218E-1,3.807808984E0
1.505410046E1,-2.616409149E0,-3.296445007E0,-1.362167358E-2,4.208602152E0
1.506402346E1,-4.219575348E0,-3.625460815E0,1.736389160E-2,5.563190069E0
1.507394646E1,-6.510710907E0,-4.856800232E0,1.191971283E0,8.209668723E0
1.508386946E1,-9.690099335E0,-7.361242218E0,2.430196381E0,1.240934191E1
1.509379346E1,-1.399290161E1,-1.240994339E1,4.745282135E0,1.929574287E1
1.510371646E1,-1.186342987E1,-3.314856720E1,5.997727661E0,3.571471983E1
1.511363946E1,-9.982890472E0,-7.347560669E1,7.200027466E0,7.449941796E1
1.512356246E1,-1.603989487E1,-7.815248108E1,7.426955566E0,8.012645128E1
1.513348546E1,-8.302784271E0,-5.797638748E1,6.692433014E0,5.894901519E1
1.514340946E1,-4.766088867E0,-3.682252716E1,6.242169342E0,3.765074750E1
1.515333246E1,-8.635242920E0,-2.690415253E1,7.263046417E0,2.917452119E1
1.516325546E1,-9.816286926E0,-2.046005310E1,1.038225998E1,2.495525164E1
1.517317846E1,-1.063717987E1,-1.531749710E1,1.318518127E1,2.283909627E1
1.518310146E1,-1.190609116E1,-1.103954315E1,1.232327362E1,2.038356182E1
1.519302546E1,-1.119746475E1,-7.856562195E0,7.022945709E0,1.537629841E1
1.520294846E1,-7.366631012E0,-5.814508667E0,-1.142124939E-1,9.385563808E0
1.521287146E1,-3.338956604E0,-4.746329956E0,-5.434748383E0,7.950645838E0
1.522279446E1,-5.025050354E-1,-4.775219879E0,-7.934999084E0,9.274666931E0
1.523271746E1,5.183720398E-1,-5.038073273E0,-8.165070648E0,9.608291761E0
1.524264046E1,7.140151978E-2,-4.307292938E0,-5.309458923E0,6.837267341E0
1.525256446E1,-1.459465027E-1,-2.795736237E0,-2.543211365E-1,2.811071100E0
1.526248746E1,4.279600525E-1,-9.578581238E-1,3.760180664E0,3.903793106E0
1.527241046E1,1.739233246E0,1.198108521E0,5.241799622E0,5.651270617E0
1.528233346E1,2.951861572E0,3.406765594E0,5.146447906E0,6.841451937E0
1.529225646E1,2.698288879E0,5.406307526E0,4.026177521E0,7.260787104E0
1.530218046E1,1.580862579E0,6.956334229E0,2.520758057E0,7.565972084E0
1.531210346E1,6.354286194E-1,7.664661255E0,1.207389221E0,7.785151920E0
1.532202646E1,5.075944519E-1,7.355853424E0,-5.448669434E-2,7.373547350E0
1.533194946E1,5.278024292E-1,6.066285095E0,-1.453627167E0,6.260305280E0
1.534187246E1,2.577639771E-1,4.175866241E0,-2.488425293E0,4.867911418E0
1.535179546E1,-2.269281006E-1,2.414928131E0,-2.680176544E0,3.614791910E0
1.536171946E1,-4.881349182E-1,1.226848755E0,-2.118694153E0,2.496457185E0
1.537164246E1,9.535171509E-2,4.520599365E-1,-1.262474670E0,1.344355767E0
1.538156546E1,1.109642487E0,-1.383123779E-1,-5.047503662E-1,1.226869877E0
1.539148846E1,1.899400177E0,-6.189628601E-1,-2.329156494E-1,2.011239855E0
1.540141146E1,2.012265472E0,-1.013841705E0,-5.062472534E-1,2.309409798E0
1.541133446E1,1.882934418E0,-1.289418640E0,-8.033793640E-1,2.419392662E0
1.542125846E1,2.066303101E0,-1.636846161E0,-4.816983032E-1,2.679721462E0
1.543118146E1,2.088457031E0,-1.985171814E0,-6.137237549E-3,2.881422837E0
1.544110446E1,2.112107849E0,-2.384391632E0,7.035369873E-2,3.186106192E0
1.545102746E1,1.847907257E0,-2.992427216E0,3.496728516E-1,3.534353261E0
1.546095046E1,1.219813385E0,-3.458108826E0,1.139430542E0,3.839891054E0
1.547087446E1,-3.794609070E-1,-3.462150421E0,1.956281891E0,3.994685839E0
1.548079746E1,-3.557651825E0,-3.551664276E0,3.151845703E0,5.933408546E0
1.549072046E1,-7.677235107E0,-5.046904907E0,4.969964905E0,1.044565647E1
1.550064346E1,-1.348410965E1,-9.636361084E0,6.398294678E0,1.776566472E1
1.551056646E1,-1.555146057E1,-2.119292908E1,8.475674744E0,2.761929092E1
1.552049046E1,-1.150657196E1,-5.386758179E1,1.060754150E1,5.609489730E1
1.553041346E1,-1.845212860E1,-7.503745880E1,6.947502594E0,7.758459297E1
1.554033646E1,-1.713516724E1,-5.505521210E1,1.448687439E0,5.767832375E1
1.555025946E1,-5.133724365E0,-3.355122986E1,8.891510010E-1,3.395336125E1
1.556018246E1,-3.459755402E0,-2.733360947E1,2.193239136E0,2.763885692E1
1.557010546E1,-4.672234039E0,-2.648697006E1,6.171665955E0,2.759490559E1
1.558002946E1,-9.626032562E0,-2.535592209E1,1.138038437E1,2.941252176E1
1.558995246E1,-1.483295471E1,-2.174602890E1,1.328726898E1,2.948657042E1
1.559987546E1,-1.445933167E1,-1.638507706E1,8.634045410E0,2.349659044E1
1.560979846E1,-9.388326874E0,-1.059945831E1,1.642085266E-1,1.416037296E1
1.561972146E1,-3.957470398E0,-7.409292297E0,-4.653522949E0,9.602836047E0
1.562964546E1,3.805087280E-1,-6.402635651E0,-5.316943359E0,8.331171397E0
1.563956846E1,2.366578674E0,-5.286855927E0,-4.913382568E0,7.595582168E0
1.564949146E1,1.515448608E0,-3.917802887E0,-3.102448425E0,5.222159532E0
1.565941446E1,1.009051666E0,-2.668949890E0,-3.249742126E-1,2.871774194E0
1.566933746E1,1.674268341E0,-1.770368500E0,1.443448334E0,2.832123266E0
1.567926146E1,2.781515808E0,-8.541238403E-1,2.334395599E0,3.730383431E0
1.568918446E1,3.582799530E0,5.505551147E-1,2.854863281E0,4.614087966E0
1.569910746E1,3.376827850E0,2.352957001E0,2.918331299E0,5.045396966E0
1.570903046E1,2.379002838E0,4.253704376E0,2.643652496E0,5.544596824E0
1.571895346E1,1.597627716E0,6.092330933E0,2.417472839E0,6.746338669E0
1.572887646E1,1.127455444E0,7.462731171E0,2.084714813E0,7.830041389E0
1.573880046E1,1.064885559E0,8.108787689E0,1.076561279E0,8.248963767E0
1.574872346E1,1.318458252E0,7.676486664E0,-3.134481812E-1,7.795192712E0
1.575864646E1,1.065634003E0,5.601651306E0,-1.175655212E0,5.822047609E0
1.576856946E1,-4.079017639E-1,2.792592773E0,-9.202862549E-1,2.968481942E0
1.577849246E1,-6.233038330E-1,1.484463043E0,-4.947212219E-1,1.684306172E0
1.578841646E1,-9.355545044E-2,8.436456299E-1,-2.616558838E-1,8.882310356E-1
1.579833946E1,4.836442566E-1,5.087919617E-1,-4.511618042E-1,8.344627018E-1
1.580826246E1,7.774832153E-1,2.586621094E-1,-9.401948547E-1,1.247137764E0
1.581818546E1,7.295828247E-1,-1.151106262E-1,-1.346450043E0,1.535730859E0
1.582810846E1,5.459147644E-1,-6.087840271E-1,-1.414109344E0,1.633507319E0
1.583803146E1,8.056246948E-1,-1.263073425E0,-9.177415466E-1,1.756882231E0
1.584795546E1,1.294208679E0,-2.143392792E0,-1.046324158E-1,2.506004132E0
1.585787846E1,1.329684906E0,-3.080893250E0,5.584886169E-1,3.401745831E0
1.586780146E1,5.932164001E-1,-3.790567474E0,1.342558136E0,4.064821008E0
1.587772446E1,-4.998106384E-1,-3.956871643E0,2.692750397E0,4.812229065E0
1.588764746E1,-2.138902130E0,-3.655548248E0,4.015549622E0,5.836315112E0
1.589757046E1,-4.498744812E0,-3.573967896E0,5.004842377E0,7.619737438E0
1.590749446E1,-8.128396912E0,-4.314627686E0,5.246739349E0,1.059316394E1
1.591741746E1,-1.640857819E1,-7.916138306E0,4.552632751E0,1.877852893E1
1.592734046E1,-2.224673767E1,-2.203597595E1,2.979404297E0,3.145438639E1
1.593726346E1,-1.712184494E1,-5.670957184E1,2.435734863E0,5.928799134E1
1.594718646E1,-1.464734070E1,-7.920149963E1,5.691464539E0,8.074537078E1
1.595711046E1,-1.120015915E1,-6.382966553E1,2.325713654E0,6.484657825E1
1.596703346E1,-1.635498962E0,-4.013768326E1,-1.097218323E0,4.018597221E1
1.597695646E1,-3.708837433E0,-2.757595551E1,1.337468719E0,2.785637485E1
1.598687946E1,-4.737049255E0,-2.295012497E1,4.427043915E0,2.384840853E1
1.599680246E1,-4.780758362E0,-2.192909821E1,1.050874695E1,2.478254953E1
1.600672646E1,-5.560935974E0,-1.885808441E1,1.277608200E1,2.344737998E1
1.601664946E1,-5.825735321E0,-1.389216110E1,7.361840973E0,1.676687313E1
1.602657246E1,-3.774251404E0,-1.016116974E1,1.488804016E0,1.094124680E1
1.603649508E1,-7.604187012E-1,-7.434140625E0,-4.005071411E0,8.478518765E0
1.604641808E1,5.938151550E-1,-5.864055634E0,-5.482648773E0,8.049795183E0
1.605634108E1,3.650907898E-1,-4.706662445E0,-5.253475342E0,7.062928983E0
1.606626508E1,-1.839674377E-1,-3.494483185E0,-4.318669281E0,5.558431533E0
1.607618808E1,-4.460723877E-1,-2.121538239E0,-2.628084869E0,3.406865884E0
1.608611108E1,3.667373657E-1,-6.857240295E-1,-4.754113770E-1,9.114437544E-1
1.609603408E1,2.029629364E0,1.078207855E0,1.344354401E0,2.662558223E0
1.610595708E1,3.191513214E0,3.186124420E0,2.301913147E0,5.063195587E0
1.611588108E1,2.798730011E0,5.670508118E0,2.683170319E0,6.869276159E0
1.612580408E1,1.528022461E0,8.021369476E0,2.695744171E0,8.599084693E0
1.613572708E1,3.520678711E-1,9.744286652E0,1.983525238E0,9.950349064E0
1.614565008E1,-1.619631958E-1,1.047836014E1,5.146298218E-1,1.049224033E1
1.615557308E1,9.699829102E-2,9.465266876E0,-1.378034363E0,9.565545693E0
1.616549708E1,3.094065857E-1,6.397396545E0,-1.806443481E0,6.654746655E0
1.617542008E1,-1.875599670E-1,3.173849945E0,-7.670050049E-1,3.270596107E0
1.618534308E1,-1.338217163E-1,1.386416931E0,3.832031250E-2,1.393387457E0
1.619526608E1,3.128494263E-2,-8.307723999E-2,1.299298096E-1,1.573605124E-1
1.620518908E1,-6.571334839E-2,-1.412762146E0,-4.528083801E-1,1.485008604E0
1.621511208E1,-1.841171265E-2,-2.264640656E0,-1.293909302E0,2.608282494E0
1.622503608E1,2.558180237E-1,-2.536924438E0,-1.418150940E0,2.917632697E0
1.623495908E1,6.559359741E-1,-2.460283813E0,-9.292675781E-1,2.710495651E0
1.624488208E1,1.128802643E0,-2.372117157E0,-4.412823486E-1,2.663806548E0
1.625480508E1,1.694326630E0,-2.586770782E0,-6.017486572E-2,3.092854155E0
1.626472808E1,1.966161346E0,-2.842888184E0,6.203100586E-1,3.511778500E0
1.627465208E1,1.562301178E0,-3.158731384E0,2.242037659E0,4.176733388E0
1.628457508E1,9.232800293E-1,-3.667223969E0,4.694088593E0,6.027888964E0
1.629449808E1,-7.619155884E-2,-4.283193054E0,6.583908691E0,7.854896661E0
1.630442108E1,-1.948198700E0,-5.498216400E0,7.205266571E0,9.270476154E0
1.631434408E1,-5.006488953E0,-7.553592224E0,7.229665833E0,1.159265954E1
1.632426708E1,-1.004830444E1,-1.236129456E1,6.363566895E0,1.715415428E1
1.633419108E1,-1.083312241E1,-3.209251328E1,3.810027008E0,3.408522048E1
1.634411408E1,-1.021161484E1,-6.624818619E1,9.095086670E-1,6.703675452E1
1.635403708E1,-1.793420563E1,-6.854965027E1,2.752775574E0,7.091028174E1
1.636396008E1,-1.262130386E1,-4.633060501E1,-7.732919312E-1,4.802520434E1
1.637388308E1,-9.456584930E0,-3.121907959E1,1.839674377E-1,3.262041957E1
1.638380708E1,-1.008213409E1,-2.688648926E1,5.470224609E0,2.923108089E1
1.639373008E1,-1.105645798E1,-2.603416168E1,1.062715073E1,3.021521421E1
1.640365308E1,-1.214229996E1,-2.353211472E1,1.010084518E1,2.834118813E1
