"Time (s)","Acceleration x (m/s^2)","Acceleration y (m/s^2)","Acceleration z (m/s^2)","Absolute acceleration (m/s^2)"
-1.679416659E-3,1.038989410E0,-6.911277924E0,2.275268555E-1,6.992641132E0
8.243583346E-3,1.472637634E0,-5.802832947E0,1.766326904E-2,5.986805810E0
1.816658335E-2,1.842069397E0,-6.441554718E0,2.730322266E-1,6.705325752E0
2.808958336E-2,2.001936951E0,-7.919581146E0,9.759704590E-1,8.226787673E0
3.801258333E-2,1.771566010E0,-9.011410675E0,1.072819061E0,9.246345722E0
4.793658335E-2,9.657916260E-1,-8.741671600E0,8.210426331E-1,8.833101768E0
5.785958335E-2,6.427633667E-1,-8.042774963E0,7.289840698E-1,8.101283332E0
6.778258336E-2,7.378157043E-1,-6.741680603E0,7.191046143E-1,6.819951672E0
7.770558336E-2,1.289867706E0,-6.088738403E0,4.369413757E-1,6.239183585E0
8.762858334E-2,1.750759277E0,-6.365512848E0,3.902384949E-1,6.613410463E0
9.755158334E-2,1.577270050E0,-7.476951599E0,6.192622375E-1,7.666555403E0
1.074745833E-1,1.441203003E0,-8.784033508E0,9.571096802E-1,8.952785584E0
1.173975834E-1,1.739382935E0,-9.773176575E0,1.465602264E0,1.003436213E1
1.273205834E-1,1.966760101E0,-9.570198669E0,1.810485077E0,9.936533806E0
1.372445833E-1,2.551144867E0,-1.274120453E1,1.738185425E0,1.310984064E1
1.471675833E-1,3.635340271E0,-2.085163879E1,1.044078827E0,2.119190034E1
1.570905834E-1,3.963607635E0,-1.872935211E1,2.019749908E0,1.925040794E1
1.670135834E-1,3.654650116E0,-1.234423004E1,1.917961578E0,1.301595403E1
1.769365834E-1,3.353326721E0,-1.152169052E1,2.313289490E0,1.222069805E1
1.868595833E-1,3.355272675E0,-1.056323364E1,2.017953644E0,1.126551804E1
1.967825833E-1,4.106560364E0,-9.992470551E0,1.265767822E0,1.087729166E1
2.067055833E-1,4.769382019E0,-9.388775940E0,1.200054474E0,1.059887962E1
2.166295834E-1,4.329746246E0,-7.247029724E0,1.046174469E0,8.506504770E0
2.265525833E-1,3.959715729E0,-4.338428192E0,6.721023560E-1,5.912108711E0
2.364755833E-1,4.268523560E0,-1.771416321E0,5.863307190E-1,4.658539779E0
2.463985833E-1,4.634811859E0,-1.356628876E0,4.861889648E-1,4.853689585E0
2.563215834E-1,4.866080933E0,-1.223256226E0,5.430706787E-1,5.046783649E0
2.662445834E-1,5.683231659E0,-8.723858643E-1,1.209035797E0,5.875537996E0
2.761675834E-1,6.734345856E0,-2.312690735E0,2.016606445E0,7.400449587E0
2.860905833E-1,7.464826813E0,-6.533164215E0,2.168989563E0,1.015432862E1
2.960135833E-1,7.596702576E0,-1.355102051E1,1.364562378E0,1.559493755E1
3.059375834E-1,6.941215668E0,-1.741209137E1,1.989363098E-1,1.874569221E1
3.158605834E-1,6.557713165E0,-8.772806854E0,4.186793518E-1,1.096088657E1
3.257835833E-1,6.808292084E0,6.147715759E-1,1.313219147E0,6.960986260E0
3.357065833E-1,6.780599670E0,-4.724176025E-1,2.021396484E0,7.091244886E0
3.456295833E-1,7.323520660E0,-1.557211761E0,6.786886597E-1,7.517943976E0
3.555525834E-1,7.676935730E0,-2.359094238E0,-2.574645996E-1,8.035356610E0
3.654755834E-1,5.193300476E0,-1.158920013E1,-3.010240173E-1,1.270317067E1
3.753985833E-1,1.875749359E0,-2.600557114E1,-2.145638123E0,2.616126772E1
3.853215833E-1,-2.686014404E0,-2.750111115E1,-8.271798706E-1,2.764434868E1
3.952455833E-1,-4.882397003E0,-1.746627869E1,9.743238831E-1,1.816199325E1
4.051685834E-1,-8.601113892E-1,-1.418001251E1,2.707868958E0,1.446184984E1
4.150915834E-1,3.466641083E0,-1.209290268E1,1.841171265E0,1.271400044E1
4.250145833E-1,5.973029022E0,-8.048912201E0,-1.093775482E0,1.008257944E1
4.349375833E-1,8.054899750E0,-6.658603363E0,-3.711531830E0,1.109026047E1
4.448605833E-1,5.485043793E0,-5.774691467E0,-3.320993958E0,8.629123236E0
4.547835834E-1,3.157683563E0,-1.104104004E0,-3.616180115E0,4.926131318E0
4.647065834E-1,4.411027222E0,-1.130149841E0,5.284011841E-1,4.584060168E0
4.746305833E-1,5.459896088E0,-5.242398376E0,6.274202728E0,9.831522054E0
4.845535833E-1,5.935606842E0,-1.155117920E1,1.032986893E1,1.659419662E1
4.944765833E-1,2.826422424E0,-1.596879272E1,1.148576523E1,1.987243839E1
5.043995834E-1,7.578739929E-1,-1.402239029E1,7.605234833E0,1.597001563E1
5.143225834E-1,-4.719835052E0,-6.556515656E0,5.559588776E0,9.806822514E0
5.242455833E-1,-5.447621613E0,-5.170098724E0,5.191653900E0,9.130157297E0
5.341685833E-1,-2.612068176E0,-5.420527954E0,3.497626648E0,6.959771234E0
5.440915833E-1,2.098785553E0,-5.825435944E0,4.161346436E0,7.460389325E0
5.540145834E-1,4.245621185E0,-9.336085510E0,7.950566711E0,1.297687570E1
5.639385833E-1,5.432652740E0,-1.160536652E1,9.952653351E0,1.622509034E1
5.738615833E-1,8.443491669E0,-1.612716339E1,1.197464859E1,2.178922118E1
5.837845833E-1,1.327589264E1,-2.355262207E1,1.370879242E1,3.031346766E1
5.937075833E-1,2.050001999E1,-3.094634674E1,1.305614960E1,3.934959007E1
6.036305834E-1,2.152194489E1,-3.098167328E1,7.826774139E0,3.852682941E1
6.135535834E-1,1.641007507E1,-2.714844452E1,2.223176880E0,3.180048929E1
6.234765833E-1,1.266171982E1,-2.510369659E1,1.222956848E0,2.814267853E1
6.333995833E-1,1.074720108E1,-2.204346039E1,2.063758392E0,2.461047695E1
6.433235834E-1,1.151749924E1,-1.884566025E1,2.098785553E0,2.218595501E1
6.532465834E-1,1.146840134E1,-1.688219330E1,9.023236084E-1,2.042906918E1
6.631695833E-1,9.459878082E0,-1.519520142E1,1.249900818E0,1.794284513E1
6.730925833E-1,7.570357361E0,-1.356958191E1,1.978735199E0,1.566394767E1
6.830155833E-1,5.937552795E0,-1.158545792E1,1.925296326E0,1.315994431E1
6.929385834E-1,5.211113434E0,-8.789721680E0,3.594026184E-1,1.022467998E1
7.028615834E-1,5.211861877E0,-5.828429718E0,-1.175655212E0,7.906722607E0
7.127845834E-1,5.441484375E0,-3.513044586E0,-1.566193085E0,6.663647293E0
7.227075833E-1,5.068909149E0,-1.926793213E0,-6.923103333E-1,5.466778361E0
7.326315833E-1,4.238286438E0,-4.577481079E-1,4.064048767E-1,4.282262274E0
7.425545834E-1,2.616858215E0,1.224453735E0,1.500030670E0,3.255353419E0
7.524775834E-1,7.819738770E-1,2.905308380E0,2.149380341E0,3.697585128E0
7.624005833E-1,-9.794132996E-1,4.439019012E0,2.445464630E0,5.161825013E0
7.723235833E-1,-2.396516418E0,5.974376221E0,2.516566772E0,6.911553406E0
7.822465833E-1,-3.267854462E0,7.363038483E0,2.055824890E0,8.313821291E0
7.921695834E-1,-3.821553040E0,7.968679047E0,1.120719452E0,8.908430023E0
8.020925834E-1,-3.625161438E0,7.142996063E0,-1.061293030E-1,8.010958222E0
8.120155834E-1,-2.163002014E0,5.033133545E0,-1.239422607E0,5.616687582E0
8.219395833E-1,-1.097368011E0,3.441044312E0,-1.938468933E0,4.099105306E0
8.318625833E-1,-5.544470215E-1,2.391127625E0,-2.148482208E0,3.262035962E0
8.417855834E-1,1.567240906E-1,1.344354401E0,-1.966460724E0,2.387219926E0
8.517085834E-1,8.012837219E-1,1.995350647E-1,-1.455872498E0,1.673748659E0
8.616315833E-1,1.267564087E0,-9.511221313E-1,-4.514611816E-1,1.647777055E0
8.715545833E-1,1.488654327E0,-1.919159088E0,5.209167480E-1,2.484072779E0
8.814775833E-1,1.311572571E0,-2.690205688E0,1.149160309E0,3.205931794E0
8.914005834E-1,1.068178711E0,-3.248394928E0,1.376687164E0,3.686236959E0
9.013235834E-1,8.671467590E-1,-3.522474976E0,1.228944397E0,3.830153755E0
9.112472083E-1,6.309379578E-1,-3.512296143E0,1.034498749E0,3.715440023E0
9.211702083E-1,1.523831177E-1,-3.615431671E0,1.006806335E0,3.756091823E0
9.310932083E-1,-8.741821289E-2,-3.723357239E0,9.264234924E-1,3.837875918E0
9.410162084E-1,-8.217910767E-2,-3.589385834E0,9.593550110E-1,3.716289293E0
9.509392084E-1,-2.281256104E-1,-3.373983765E0,1.316063232E0,3.628750497E0
9.608622083E-1,-1.969903564E-1,-3.333118744E0,1.654210052E0,3.726244310E0
9.707852083E-1,1.029858398E-1,-3.791615295E0,1.841470642E0,4.216392624E0
9.807082083E-1,1.033450928E0,-5.097200317E0,2.188748474E0,5.642702524E0
9.906312083E-1,2.570604401E0,-7.807763672E0,2.511028290E0,8.595024352E0
1.000555208E0,4.067790985E0,-1.153501282E1,3.425326996E0,1.270182307E1
1.010478208E0,4.362378387E0,-1.609048965E1,5.239853668E0,1.747541899E1
1.020401208E0,5.608087921E0,-2.100282440E1,5.634882202E0,2.245709644E1
1.030324208E0,7.766748962E0,-2.868874146E1,6.896159363E0,3.051103554E1
1.040247208E0,1.061427750E1,-4.031536377E1,1.197494797E1,4.337500226E1
1.050170208E0,1.654120239E1,-5.102110107E1,1.693039307E1,5.624413161E1
1.060093208E0,2.562596054E1,-5.437906815E1,1.524669434E1,6.201801830E1
1.070016208E0,2.881762344E1,-4.539654739E1,5.656437378E0,5.406752463E1
1.079940208E0,2.532538559E1,-3.144690582E1,-2.981050873E0,4.048666083E1
1.089863208E0,2.286195831E1,-2.280956726E1,-6.924899597E0,3.302877126E1
1.099786208E0,1.588661362E1,-1.805859695E1,-7.270081787E0,2.512670900E1
1.109709208E0,8.898545380E0,-1.379965347E1,-5.711373138E0,1.738488795E1
1.119632208E0,3.337759094E0,-1.006087830E1,-4.080065460E0,1.135820593E1
1.129555208E0,6.161187744E-1,-6.818620605E0,-2.320624237E0,7.229003123E0
1.139478208E0,-1.469943237E-1,-4.405937805E0,-3.700305176E-1,4.423891710E0
1.149401208E0,-8.607101440E-2,-2.306254120E0,1.775457916E0,2.911780743E0
1.159324208E0,2.311193848E-1,-5.418731689E-2,3.087778931E0,3.096890563E0
1.169248208E0,2.909948730E-1,2.021396484E0,3.891158295E0,4.394523255E0
1.179171208E0,1.586700439E-2,4.007017365E0,4.742887115E0,6.208978830E0
1.189094208E0,-7.548802185E-1,6.097420349E0,3.898942108E0,7.276683903E0
1.199017208E0,-1.455423431E0,7.651189270E0,2.253264313E0,8.107783586E0
1.208940208E0,-1.501677246E0,8.059839478E0,4.352947998E-1,8.210086998E0
1.218863208E0,-1.219364319E0,7.398365021E0,-1.031504974E0,7.568794939E0
1.228786208E0,-1.151854706E0,5.777086487E0,-9.291178894E-1,5.963619504E0
1.238709208E0,-2.483335876E-1,3.615880737E0,-2.188449097E-1,3.630999335E0
1.248632208E0,-5.837860107E-2,2.057321777E0,-4.685256958E-2,2.058683103E0
1.258556208E0,-1.290316772E-1,1.048120422E0,-1.763333130E-1,1.070653553E0
1.268479208E0,-4.093986511E-1,3.897894287E-1,-2.418969727E-1,6.148635618E-1
1.278402208E0,-1.089434509E0,-2.047741699E-1,-2.023791504E-1,1.126835095E0
1.288325208E0,-1.576072540E0,-6.469546509E-1,-4.885839844E-1,1.772362627E0
1.298248208E0,-1.950444031E0,-1.061592407E0,-7.520361328E-1,2.344518863E0
1.308171208E0,-2.461930389E0,-1.610051880E0,-4.628375244E-1,2.977849370E0
1.318094208E0,-3.187022552E0,-2.275717621E0,2.787203979E-1,3.926027063E0
1.328017208E0,-3.427123260E0,-2.783012695E0,6.182144165E-1,4.457860762E0
1.337940208E0,-3.246748352E0,-2.968327332E0,9.482780457E-1,4.500174803E0
1.347864208E0,-2.567760315E0,-2.611619110E0,1.489103394E0,3.953653542E0
1.357787208E0,-1.212478638E0,-1.737586670E0,2.251917114E0,3.091996535E0
1.367710208E0,7.490423584E-1,-9.716294861E-1,2.692600708E0,2.958923265E0
1.377633208E0,2.692600708E0,-9.422904968E-1,2.286345520E0,3.655870046E0
1.387556208E0,5.401667175E0,-1.364712067E0,2.606080627E0,6.150780726E0
1.397479208E0,1.066936295E1,-2.741698608E0,2.366428986E0,1.126730682E1
1.407402208E0,2.181608322E1,-9.822873230E0,4.981640625E-1,2.393070189E1
1.417325208E0,2.531894897E1,-3.562875961E1,-1.173409882E0,4.372453064E1
1.427249208E0,2.353555756E1,-6.504289261E1,4.267924805E0,6.930162719E1
1.437172208E0,2.370635239E1,-5.857619019E1,6.926845551E0,6.356998025E1
1.447095208E0,1.894146103E1,-3.660353256E1,1.905986481E0,4.125809407E1
1.457018208E0,1.284942947E1,-2.702584946E1,5.816903687E0,3.048509054E1
1.466941208E0,1.098326019E1,-2.496119293E1,1.124776016E1,2.949924178E1
1.476864208E0,1.011341904E1,-2.419942703E1,1.287113434E1,2.921574255E1
1.486787208E0,9.440119171E0,-1.996024246E1,9.585766296E0,2.407102085E1
1.496710208E0,7.503296814E0,-1.401819901E1,2.380799103E0,1.607723766E1
1.506633208E0,4.922214203E0,-9.776918793E0,-2.618804169E0,1.125497530E1
1.516557208E0,3.422033844E0,-7.281158752E0,-3.076552277E0,8.613405965E0
1.526480208E0,2.032473450E0,-5.860313416E0,-2.618055725E0,6.732639708E0
1.536403208E0,8.903485107E-1,-4.703668671E0,-2.143392792E0,5.245126509E0
1.546326208E0,2.327659607E-1,-3.431464233E0,-1.759141846E0,3.863121382E0
1.556249208E0,-7.485932922E-1,-2.118394775E0,-8.502319336E-1,2.402266156E0
1.566172208E0,-1.845362549E0,-7.906558228E-1,3.685336304E-1,2.041155703E0
1.576095208E0,-2.483335876E0,5.231620789E-1,1.384920044E0,2.891134581E0
1.586018208E0,-3.316203918E0,1.622775421E0,1.791025543E0,4.103459637E0
1.595941208E0,-3.329077148E0,2.949616241E0,1.891466675E0,4.833284268E0
1.605865208E0,-2.441572723E0,4.462370453E0,1.959575043E0,5.451051437E0
1.615788208E0,-1.161883850E0,5.562732239E0,1.612147522E0,5.907028329E0
1.625711208E0,7.896080017E-1,5.631289673E0,2.351609802E-1,5.691239308E0
1.635634208E0,2.337988129E0,4.361480255E0,-1.496288452E0,5.169872110E0
1.645557208E0,2.755919037E0,2.684667206E0,-2.244133301E0,4.454061295E0
1.655480208E0,2.473007355E0,1.430126038E0,-2.195933533E0,3.603213835E0
1.665403208E0,1.745370483E0,4.834945679E-1,-1.820364532E0,2.567841925E0
1.675326208E0,8.821156311E-1,-1.914518738E-1,-1.592987366E0,1.830953455E0
1.685249208E0,-1.046324158E-1,-7.101232910E-1,-1.626817017E0,1.778132907E0
1.695173208E0,-9.002279663E-1,-1.153351593E0,-1.497935028E0,2.093905355E0
1.705096208E0,-1.337019653E0,-1.357527008E0,-1.216220856E0,2.260463293E0
1.715019208E0,-1.250798950E0,-1.386566620E0,-7.292834473E-1,2.004724258E0
1.724942208E0,-1.051862640E0,-1.503473511E0,5.403762817E-2,1.835692697E0
1.734865208E0,-7.164102173E-1,-1.573527832E0,8.743318176E-1,1.937444080E0
1.744788208E0,-1.264869690E-1,-1.605112152E0,1.825603638E0,2.434175962E0
1.754711208E0,1.269510040E0,-1.427731018E0,3.253634033E0,3.773089719E0
1.764634208E0,3.692072296E0,-1.227297821E0,5.441334686E0,6.689228726E0
1.774557208E0,6.564299469E0,-1.856589203E0,7.474706268E0,1.011969292E1
1.784481208E0,1.349309097E1,-3.207679596E0,5.774990845E0,1.502342277E1
1.794404208E0,1.958467346E1,-1.526839920E1,1.245410156E0,2.486432173E1
1.804327208E0,1.589529556E1,-4.687487320E1,6.384223938E-1,4.950072466E1
1.814250208E0,2.212414261E1,-6.990298599E1,4.638404388E0,7.346713505E1
1.824173208E0,2.119248001E1,-4.738321609E1,3.248245239E-1,5.190757062E1
1.834096208E0,1.529594193E1,-2.523826675E1,5.267546082E-1,2.951632461E1
1.844019208E0,1.106439148E1,-1.941851898E1,5.446873169E0,2.300365331E1
1.853942208E0,8.567882996E0,-1.908306656E1,7.278614044E0,2.214836948E1
1.863865208E0,9.063801727E0,-2.001233414E1,2.911146240E0,2.216124527E1
1.873789208E0,8.649762726E0,-1.924742477E1,-2.099384308E0,2.120587584E1
1.883712208E0,6.686445465E0,-1.588646393E1,-2.217788086E0,1.737834495E1
1.893635208E0,4.242926788E0,-1.209140579E1,-5.807922363E-1,1.282738638E1
1.903558208E0,1.982178040E0,-1.014171021E1,1.466350708E0,1.043712125E1
1.913481875E0,6.454577637E-1,-9.068292389E0,2.722089386E0,9.490011233E0
1.923404875E0,4.834945679E-2,-7.867489471E0,3.107537842E0,8.459108682E0
1.933327875E0,-3.414399719E-1,-6.446644135E0,3.018622742E0,7.126561942E0
1.943250875E0,-5.221142578E-1,-4.779411163E0,2.473456421E0,5.406788421E0
1.953173875E0,-3.737727356E-1,-2.754122772E0,1.696272583E0,3.256107949E0
1.963097875E0,1.549278259E-1,-4.510121155E-1,8.024812317E-1,9.334830940E-1
1.973020875E0,7.420069885E-1,1.947899323E0,-3.212319946E-1,2.109046262E0
1.982943875E0,1.091530151E0,4.081562347E0,-1.275497589E0,4.413330190E0
1.992866875E0,1.212927704E0,5.997727661E0,-1.530716858E0,6.307695682E0
2.002789875E0,1.266815643E0,7.641758881E0,-1.184337158E0,7.836067583E0
2.012712875E0,1.433269501E0,8.515192566E0,-1.001417542E0,8.692847807E0
2.022635875E0,1.575024719E0,8.222700806E0,-1.013093262E0,8.433259712E0
2.032558875E0,1.617835693E0,6.286776581E0,-8.238867188E-1,6.543679503E0
2.042481875E0,1.381626892E0,3.529809723E0,-3.927832031E-1,3.810869742E0
2.052404875E0,9.279203796E-1,1.612297211E0,-3.481759644E-1,1.892555159E0
2.062328875E0,1.058299255E-1,2.814147949E-1,-7.542814636E-1,8.119943265E-1
2.072251875E0,-8.599617004E-1,-9.901908875E-1,-1.181044006E0,1.764901432E0
2.082174875E0,-1.894310760E0,-1.901495819E0,-1.223256226E0,2.949653437E0
2.092097875E0,-2.863245850E0,-2.502645721E0,-8.671467590E-1,3.900430220E0
2.102020875E0,-3.558549957E0,-3.049907684E0,-6.665638733E-1,4.733869673E0
2.111943875E0,-3.302731934E0,-3.366199951E0,-4.793032837E-1,4.740155269E0
2.121866875E0,-2.468067627E0,-3.627406769E0,2.409988403E-1,4.394032103E0
2.131789875E0,-1.011596375E0,-3.881129150E0,1.251098328E0,4.201397117E0
2.141713875E0,1.807790680E0,-4.191284180E0,2.478845215E0,5.194193279E0
2.151636875E0,6.228397980E0,-4.975054321E0,5.303770752E0,9.574658797E0
2.161559875E0,1.535027893E1,-8.966204681E0,6.021677856E0,1.876924329E1
2.171482875E0,2.298395462E1,-3.045237396E1,5.284161530E0,3.851664073E1
2.181405875E0,2.660223038E1,-6.937069290E1,5.531896362E0,7.450217159E1
2.191328875E0,1.969304810E1,-7.342246719E1,4.220473480E0,7.613466509E1
2.201251875E0,1.715657272E1,-4.034155930E1,-5.726641388E0,4.421067536E1
2.211174875E0,1.230695755E1,-2.604883118E1,1.987866211E-1,2.881045515E1
2.221097875E0,7.943231964E0,-2.240361145E1,8.222700806E0,2.515212811E1
2.231021875E0,9.480086060E0,-1.902603516E1,9.249864807E0,2.318236494E1
2.240944875E0,1.074854828E1,-1.578407684E1,6.196963348E0,2.007662139E1
2.250867875E0,9.099727020E0,-1.306797501E1,-2.085163879E-1,1.592546645E1
2.260790875E0,5.992338867E0,-1.075603271E1,-2.102827148E0,1.249088655E1
2.270713875E0,4.224515076E0,-8.265212402E0,1.202299805E0,9.359796392E0
2.280636875E0,2.627486115E0,-5.854774933E0,2.584974518E0,6.918393315E0
2.290559875E0,6.969506836E-1,-3.689078522E0,3.327729950E0,5.016854315E0
2.300482875E0,-1.157393188E0,-1.592238922E0,3.249891815E0,3.799550051E0
2.310405875E0,-2.197879486E0,4.436773682E-1,2.533930664E0,3.383537860E0
2.320328875E0,-1.999392242E0,2.217488708E0,1.773961029E0,3.473004930E0
2.330252875E0,-5.131329346E-1,4.155658264E0,1.196761322E0,4.354886758E0
2.340175875E0,1.433718567E0,6.519991608E0,6.478527832E-1,6.707127010E0
2.350098875E0,2.944826202E0,9.111552429E0,-1.137634277E-2,9.575621048E0
2.360021875E0,3.939058685E0,1.112456635E1,-1.071771240E0,1.184993052E1
2.369944875E0,4.594545593E0,1.174846893E1,-2.182311859E0,1.280229888E1
2.379867875E0,4.852309570E0,1.042701691E1,-2.366129608E0,1.174164209E1
2.389790875E0,3.881877594E0,6.987170105E0,-1.437760162E0,8.121371437E0
2.399713875E0,2.246378632E0,3.443589020E0,-3.547622681E-1,4.126787923E0
2.409636875E0,5.486091614E-1,9.765692139E-1,4.141886902E-1,1.194241061E0
2.419559875E0,-9.078620911E-1,-1.290316772E0,8.023315430E-1,1.769990637E0
2.429483875E0,-1.978585510E0,-3.463347931E0,-5.284011841E-2,3.989031410E0
2.439406875E0,-2.793341217E0,-5.097200317E0,-2.672991486E0,6.397584678E0
2.449329875E0,-3.043022003E0,-5.830225983E0,-3.317102051E0,7.365777891E0
2.459252875E0,-2.272574158E0,-6.008505249E0,-2.089205475E0,6.755109780E0
2.469175875E0,-1.189127197E0,-5.835165710E0,-1.543739777E0,6.151935863E0
2.479098875E0,-4.712200928E-1,-5.682483215E0,-8.976832581E-1,5.772217867E0
2.489021875E0,3.399430847E-1,-5.080285492E0,6.900650024E-2,5.092113891E0
2.498944875E0,1.017284546E0,-3.704795837E0,8.722361755E-1,3.939692373E0
2.508867875E0,1.134640503E0,-2.090852051E0,1.269510040E0,2.696428585E0
2.518791875E0,1.152303772E0,-8.610095215E-1,1.377435608E0,1.991599918E0
2.528714875E0,1.600022736E0,-3.508703613E-1,1.644779663E0,2.321310601E0
2.538637875E0,3.383713531E0,-5.173242188E-1,2.312990112E0,4.131230431E0
2.548560875E0,5.446274414E0,-1.374441833E0,3.401676178E0,6.566764513E0
2.558483875E0,8.627309418E0,-2.424508209E0,4.440515900E0,1.000134437E1
2.568406875E0,1.611952927E1,-8.128247223E0,5.780828705E0,1.895588582E1
2.578329875E0,3.272898972E1,-4.192870880E1,7.931705933E0,5.377839109E1
2.588252875E0,5.253071182E1,-7.917515442E1,1.753738083E1,9.662163571E1
2.598175875E0,3.737068726E1,-7.285469788E1,1.947225723E1,8.416379311E1
2.608099875E0,2.097273697E1,-4.018064392E1,9.144034882E0,4.623800618E1
2.618022875E0,1.494596970E1,-1.984752686E1,5.180576935E0,2.538000610E1
2.627945875E0,7.311246185E0,-1.270228546E1,8.198451233E-1,1.467905047E1
2.637868875E0,1.367556152E0,-1.127141098E1,-4.092339935E0,1.206905802E1
2.647791875E0,-2.377056885E0,-1.275811935E1,-4.290378113E0,1.366848028E1
2.657714875E0,-3.511248322E0,-1.261127472E1,-1.718576202E0,1.320328061E1
2.667637875E0,-3.198997650E0,-1.041728714E1,5.113366699E-1,1.090939607E1
2.677560875E0,-1.979184265E0,-7.856262817E0,2.083666992E0,8.365387256E0
2.687483875E0,-1.254690857E0,-5.316793671E0,3.838916931E0,6.676812659E0
2.697406875E0,-9.618997192E-1,-2.561473389E0,5.259013824E0,5.928205749E0
2.707330875E0,-1.144070892E0,3.543132019E-1,5.853577423E0,5.974847672E0
2.717253875E0,-1.583257599E0,3.083437958E0,5.231770477E0,6.275804059E0
2.727176875E0,-1.829046478E0,5.583688660E0,3.480412445E0,6.829074671E0
2.737099875E0,-1.420096893E0,7.970625000E0,1.296154633E0,8.199241118E0
2.747022875E0,-6.601272583E-1,1.004650818E1,-4.457730103E-1,1.007803593E1
2.756945875E0,1.570234680E-1,1.135718262E1,-1.134640503E0,1.141480015E1
2.766868875E0,8.348139954E-1,1.089105194E1,-1.335223389E0,1.100430590E1
2.776791875E0,1.841620331E0,7.524402924E0,-1.168619843E0,7.834148144E0
2.786714875E0,2.580932922E0,4.237238617E0,-7.610174561E-1,5.019417637E0
2.796638875E0,2.530936890E0,2.476150818E0,-6.327342224E-1,3.596848205E0
2.806561875E0,2.340682526E0,8.020321655E-1,-4.839436340E-1,2.521160788E0
2.816484875E0,2.045945435E0,-7.794291687E-1,-8.940907288E-1,2.364910312E0
2.826407875E0,1.897154846E0,-2.343825989E0,-1.239422607E0,3.260197107E0
2.836330875E0,2.045795746E0,-3.821553040E0,-1.138682098E0,4.481756886E0
2.846253875E0,2.031275940E0,-4.584815826E0,-6.021977234E-1,5.050669283E0
2.856176875E0,1.325044556E0,-4.346960449E0,-4.921765137E-1,4.571000541E0
2.866099875E0,8.451425171E-1,-3.426524506E0,-1.030457153E0,3.676571502E0
2.876022875E0,6.117778015E-1,-2.885699158E0,-1.078656921E0,3.140864922E0
2.885945875E0,6.460565186E-1,-2.339185638E0,-7.390132141E-1,2.536793056E0
2.895869875E0,1.129401398E0,-1.604513397E0,-3.124003601E-1,1.986858008E0
2.905792875E0,1.629810791E0,-7.514373779E-1,3.814068604E-1,1.834778608E0
2.915716083E0,2.105222168E0,2.320175171E-1,1.701960754E0,2.717068809E0
2.925639083E0,2.432591400E0,1.036893768E0,3.113525391E0,4.084934512E0
2.935562083E0,3.318000183E0,1.244811401E0,4.221820679E0,5.512027801E0
2.945485083E0,5.353617096E0,1.014889526E-1,5.352718964E0,7.571203096E0
2.955408083E0,9.197922821E0,-1.727707214E0,5.718408508E0,1.096754085E1
2.965331083E0,1.717962479E1,-7.591762848E0,5.402116241E0,1.954372612E1
2.975254083E0,2.298275711E1,-2.768597672E1,6.578519897E0,3.657864616E1
2.985178083E0,3.524660431E1,-7.086608322E1,1.207703568E1,8.006359758E1
2.995101083E0,3.833902359E1,-7.807209824E1,1.696392334E1,8.861663471E1
3.005024083E0,2.312765579E1,-5.163617203E1,1.194680649E1,5.782654157E1
3.014947083E0,1.579904572E1,-2.815674774E1,5.544320526E0,3.275899539E1
3.024870083E0,8.689729614E0,-1.830019455E1,2.306104431E0,2.038937564E1
3.034793083E0,4.511917419E0,-1.259555740E1,-5.960604858E-1,1.339256335E1
3.044716083E0,3.480262756E0,-9.263486481E0,-2.155816956E0,1.012778146E1
3.054639083E0,4.089795227E0,-7.545808411E0,-8.147557068E-1,8.621454427E0
3.064562083E0,4.550986176E0,-7.311246185E0,6.548881531E-1,8.636820853E0
3.074485083E0,4.618196411E0,-6.904691620E0,7.575746155E-1,8.341248333E0
3.084409083E0,4.602329407E0,-5.639372864E0,2.285746765E-1,7.282596285E0
3.094332083E0,4.300556946E0,-3.861669617E0,-3.394940186E-1,5.789865151E0
3.104255083E0,3.584895172E0,-2.021546173E0,-3.215313721E-1,4.128135747E0
3.114178083E0,2.746039581E0,-7.469467163E-1,2.305206299E-2,2.845908322E0
3.124101083E0,1.653910675E0,1.308279419E-1,-6.780899048E-2,1.660462144E0
3.134024083E0,3.040177917E-1,1.048569489E0,-2.389031982E-1,1.117586475E0
3.143947083E0,-6.994953918E-1,2.518063660E0,5.433700562E-2,2.613979898E0
3.153870083E0,-1.462608490E0,4.428989868E0,4.466711426E-1,4.685583203E0
3.163793083E0,-2.113604736E0,6.460565186E0,4.266128540E-1,6.810890252E0
3.173716083E0,-2.444566498E0,7.961943054E0,9.086105347E-2,8.329267572E0
3.183640083E0,-2.380499725E0,7.951165466E0,-5.879772949E-1,8.320668754E0
3.193563083E0,-1.112336884E0,6.169270935E0,-9.379495239E-1,6.338528735E0
3.203486083E0,-5.388793945E-2,4.333039398E0,-1.002914429E0,4.447917680E0
3.213409083E0,-2.860551453E-1,2.815794525E0,-1.044228516E0,3.016776350E0
3.223332083E0,-2.306703186E-1,1.255738678E0,-1.047222290E0,1.651291297E0
3.233255083E0,-7.768844604E-2,-1.419049072E-1,-9.587562561E-1,9.723096502E-1
3.243178083E0,-2.390528870E-1,-1.278491364E0,-4.739144897E-1,1.384298159E0
3.253101083E0,-5.971083069E-1,-2.083217926E0,4.394860840E-1,2.211217600E0
3.263024083E0,-8.075706482E-1,-2.455194397E0,1.402882690E0,2.940787262E0
3.272947083E0,-9.934840393E-1,-2.488425293E0,1.607956238E0,3.124867075E0
3.282871083E0,-1.130000153E0,-2.287842407E0,1.323547668E0,2.874526336E0
3.292794083E0,-1.181193695E0,-2.171983337E0,1.461860046E0,2.872240407E0
3.302717083E0,-7.548802185E-1,-2.222428436E0,1.629810791E0,2.857501621E0
3.312640083E0,1.004411316E-1,-2.420167236E0,2.287992096E0,3.331997254E0
3.322563083E0,1.494641876E0,-2.816992035E0,3.081042938E0,4.434210646E0
3.332486083E0,4.096830597E0,-3.646866302E0,3.561543732E0,6.539743766E0
3.342409083E0,9.271719360E0,-4.892725525E0,3.547622681E0,1.106748253E1
3.352332083E0,1.611458954E1,-1.087159241E1,3.109184418E0,1.968599871E1
3.362255083E0,2.114892059E1,-2.687376572E1,5.679190063E0,3.466596783E1
3.372179083E0,2.623459488E1,-5.203209869E1,9.759554901E0,5.908334939E1
3.382102083E0,3.092658783E1,-7.086398758E1,9.769434357E0,7.793330750E1
3.392025083E0,2.413131866E1,-4.969800247E1,5.291346588E0,5.549964269E1
3.401948083E0,1.545416290E1,-2.857333145E1,4.928052063E0,3.285653844E1
3.411871083E0,1.053374496E1,-2.185485260E1,6.606062622E0,2.514427228E1
3.421794083E0,8.305179291E0,-1.845916397E1,6.015091553E0,2.111629854E1
3.431717083E0,8.024063873E0,-1.614303040E1,4.475243683E0,1.857446735E1
3.441640083E0,7.510182495E0,-1.316527267E1,2.373763733E0,1.534151231E1
3.451563083E0,6.350843353E0,-1.006806335E1,5.769003296E-1,1.191771476E1
3.461486083E0,5.139562225E0,-7.530689850E0,-3.835025024E-1,9.125429505E0
3.471410083E0,4.364174652E0,-5.434149628E0,-5.526507568E-1,6.991525258E0
3.481333083E0,3.977528687E0,-3.596421204E0,7.813751221E-2,5.362936266E0
3.491256083E0,3.234473877E0,-1.921105042E0,1.234333191E0,3.959298456E0
3.501179083E0,1.757944336E0,-3.707789612E-1,2.492466888E0,3.072496789E0
3.511102083E0,3.388952637E-1,1.185983734E0,2.948119354E0,3.195749543E0
3.521025083E0,-1.057700500E0,2.681673431E0,2.410736847E0,3.757892346E0
3.530948083E0,-2.077829132E0,4.274062042E0,1.444196777E0,4.966959289E0
3.540871083E0,-2.224224701E0,6.037844238E0,5.469625854E-1,6.457701343E0
3.550794083E0,-2.144440613E0,7.594008179E0,-3.921844482E-1,7.900721132E0
3.560717083E0,-1.782493286E0,8.677455139E0,-1.558259583E0,8.994647460E0
3.570641083E0,-1.053060150E0,8.648565216E0,-2.922522583E0,9.189545920E0
3.580564083E0,-1.019380188E-1,6.690187683E0,-3.602708130E0,7.599243940E0
3.590487083E0,6.283932495E-1,4.225862274E0,-2.752476196E0,5.082215585E0
3.600410083E0,3.236270142E-1,2.722538452E0,-1.388961639E0,3.073461323E0
3.610333083E0,1.377136230E-2,1.371448059E0,-9.969268799E-2,1.375135652E0
3.620256083E0,9.639953613E-2,-1.151106262E-1,7.186555481E-1,7.341724073E-1
3.630179083E0,2.618055725E-1,-1.438209229E0,4.349954224E-1,1.525191450E0
3.640102083E0,2.847079468E-1,-2.377505951E0,-4.126918030E-1,2.429795812E0
3.650025083E0,2.374063110E-1,-3.055146790E0,-8.475375366E-1,3.179403016E0
3.659948083E0,3.348536682E-1,-3.461701355E0,-9.201365662E-1,3.597520612E0
3.669872083E0,2.558180237E-1,-3.604354706E0,-9.148974609E-1,3.727445918E0
3.679795083E0,-1.233435059E-1,-3.769461365E0,-7.698490906E-1,3.849249306E0
3.689718083E0,-3.442840576E-1,-3.977378998E0,-2.106120300E-1,3.997803476E0
3.699641083E0,-5.493576050E-2,-4.141737213E0,8.942404175E-1,4.237531239E0
3.709564083E0,9.413923645E-1,-4.222569122E0,1.768123169E0,4.673603440E0
3.719487083E0,3.151696014E0,-4.293970642E0,2.770438843E0,6.003890657E0
3.729410083E0,6.976392517E0,-4.929998016E0,3.724704437E0,9.319246544E0
3.739333083E0,1.344608871E1,-8.662935333E0,5.395529938E0,1.688062480E1
3.749256083E0,1.966116440E1,-2.173989166E1,8.410410461E0,3.049457786E1
3.759179083E0,2.613744690E1,-4.624004333E1,1.259121643E1,5.458797000E1
3.769103083E0,3.439652206E1,-6.626614883E1,1.498758316E1,7.615084281E1
3.779026083E0,2.914963303E1,-4.856530792E1,7.206164703E0,5.709832790E1
3.788949083E0,2.213297424E1,-2.756472885E1,3.009791107E0,3.547874953E1
3.798872083E0,1.841066483E1,-2.125460083E1,6.573430481E0,2.887768384E1
3.808795083E0,1.698757416E1,-1.863564697E1,8.309370575E0,2.655015354E1
3.818718083E0,1.612566650E1,-1.647908157E1,7.516170044E0,2.425056828E1
3.828641083E0,1.252819748E1,-1.439526489E1,4.950655060E0,1.971518118E1
3.838564083E0,7.406597900E0,-1.210233307E1,2.062261505E0,1.433795943E1
3.848487083E0,3.269351349E0,-9.967771912E0,-4.381388855E-1,1.049938573E1
3.858410083E0,1.615290985E0,-8.106093292E0,-1.231788483E0,8.356746753E0
3.868334083E0,1.369352417E0,-6.272556152E0,-1.038240967E0,6.503693645E0
3.878257083E0,9.541159058E-1,-4.476291504E0,-5.957611084E-1,4.615458167E0
3.888180083E0,-6.122268677E-2,-2.942431183E0,1.767823792E-1,2.948372686E0
3.898103083E0,-1.243763580E0,-1.462907867E0,1.340163116E0,2.341598696E0
3.908026083E0,-2.561323700E0,2.282752991E-1,1.784289551E0,3.129884648E0
3.917948708E0,-4.126468964E0,2.071242828E0,1.275796967E0,4.790141006E0
3.927871708E0,-5.273533630E0,3.939956818E0,3.486250305E-1,6.592037324E0
3.937794708E0,-5.097499695E0,6.077811127E0,-1.683998108E-1,7.934270586E0
3.947717708E0,-4.606520691E0,7.789801025E0,3.760180664E-1,9.057727225E0
3.957640708E0,-3.615880737E0,8.459208984E0,4.692741394E-1,9.211570353E0
3.967564708E0,-2.025587769E0,7.635771332E0,-6.188131714E-1,7.924073408E0
3.977487708E0,-4.176315308E-1,5.639522552E0,-2.605182495E0,6.226203221E0
3.987410708E0,1.072968750E0,3.457210693E0,-3.293151855E0,4.893711971E0
3.997333708E0,2.057621155E0,1.925595703E0,-2.535128174E0,3.790593421E0
4.007256708E0,2.559228058E0,6.701564026E-1,-9.523196411E-1,2.811702430E0
4.017179708E0,2.774929504E0,-5.068460083E-1,4.466711426E-1,2.855983498E0
4.027102708E0,2.409090271E0,-1.581461334E0,5.608836365E-1,2.935868924E0
4.037025708E0,1.656156006E0,-2.536475372E0,4.812492371E-1,3.067272544E0
4.046948708E0,1.001417542E0,-3.244952087E0,8.629554749E-1,3.503889738E0
4.056871708E0,9.002279663E-1,-3.179538116E0,9.523196411E-1,3.439009410E0
4.066795708E0,7.707472229E-1,-2.646945648E0,3.306623840E-1,2.776636483E0
4.076718708E0,7.300318909E-1,-2.287543030E0,-4.745132446E-2,2.401676769E0
4.086641708E0,1.038240967E0,-1.711391144E0,-2.769241333E-2,2.001891811E0
4.096564708E0,1.650916901E0,-9.472302246E-1,7.737409973E-1,2.054615984E0
4.106487708E0,2.745141449E0,-1.898052979E-1,2.048939209E0,3.430740373E0
4.116410708E0,5.076992340E0,-7.334747314E-2,3.616180115E0,6.233617705E0
4.126333708E0,7.657326508E0,-1.715881805E0,4.348906403E0,8.971727064E0
4.136256708E0,1.419812485E1,-4.346511383E0,4.492457886E0,1.551325524E1
4.146179708E0,2.207175156E1,-1.847083969E1,5.888454895E0,2.937699843E1
4.156102708E0,2.942565903E1,-5.455300644E1,1.147543671E1,6.303638289E1
4.166026708E0,3.760824326E1,-7.920209839E1,1.708412338E1,8.932647772E1
4.175949708E0,2.103680374E1,-5.586053741E1,5.792205048E0,5.997079615E1
4.185872708E0,1.305180862E1,-3.016601944E1,1.170565796E0,3.288933963E1
4.195795708E0,1.122440872E1,-2.037772430E1,4.474345551E0,2.369090051E1
4.205718708E0,9.786947937E0,-1.567300781E1,5.661975861E0,1.932577280E1
4.215641708E0,9.032367096E0,-1.387838974E1,4.492158508E0,1.715729714E1
4.225564708E0,6.981032867E0,-1.215322723E1,1.181193695E0,1.406523980E1
4.235487708E0,4.352947998E0,-1.016311569E1,-8.738827515E-1,1.109057022E1
4.245410708E0,2.619851990E0,-8.978778534E0,-1.203497314E-1,9.353960256E0
4.255333708E0,1.999841309E0,-7.740553436E0,5.861810303E-1,8.016179948E0
4.265257708E0,1.972448273E0,-6.015839996E0,5.879772949E-1,6.358191594E0
4.275180708E0,1.487756195E0,-4.129612427E0,9.434880066E-1,4.489686727E0
4.285103708E0,6.843768311E-1,-2.133663025E0,1.363514557E0,2.622987133E0
4.295026708E0,1.392105103E-1,-1.257385254E-2,1.175804901E0,1.184083964E0
4.304949708E0,-6.333329773E-1,1.899549866E0,9.484277344E-1,2.215607258E0
4.314872708E0,-1.797162781E0,3.787723389E0,1.171912994E0,4.353162367E0
4.324795708E0,-2.149829407E0,6.087241516E0,1.738035736E0,6.685584789E0
4.334718708E0,-1.593586121E0,8.450077972E0,2.374512177E0,8.920854362E0
4.344641708E0,-4.677772522E-1,1.013692017E1,2.313588867E0,1.040810547E1
4.354564708E0,1.425485687E0,1.043644730E1,9.400451660E-2,1.053376848E1
4.364487708E0,2.855312347E0,8.747210083E0,-3.002007294E0,9.678767516E0
4.374411708E0,3.259022827E0,5.271437988E0,-3.704945526E0,7.220520037E0
4.384334708E0,2.855012970E0,2.626587982E0,-3.030897217E0,4.923047981E0
4.394257708E0,2.258802795E0,7.411088562E-1,-1.617686005E0,2.875472207E0
4.404180708E0,1.447639618E0,-1.160836029E0,-3.233276367E-2,1.855868033E0
4.414103708E0,6.010002136E-1,-2.593057709E0,5.043013000E-1,2.709145500E0
4.424026708E0,1.469943237E-1,-3.648812256E0,5.089416504E-3,3.651775474E0
4.433949708E0,-3.592529297E-1,-4.420307922E0,-8.517288208E-1,4.515930334E0
4.443872708E0,-8.821156311E-1,-4.801415405E0,-1.650617523E0,5.153276248E0
4.453795708E0,-7.702981567E-1,-4.274211731E0,-1.529669037E0,4.604577346E0
4.463718708E0,-7.149133301E-1,-3.722459106E0,-1.055455170E0,3.934690392E0
4.473642708E0,-1.063688049E0,-3.303929443E0,-7.894583130E-1,3.559582344E0
4.483565708E0,-1.207987976E0,-2.963537292E0,1.210981750E-1,3.202569750E0
4.493488708E0,-3.647914124E-1,-2.840493164E0,1.246607666E0,3.123380358E0
4.503411708E0,1.862427063E0,-2.984942780E0,2.396217041E0,4.256803269E0
4.513334708E0,7.372917938E0,-4.120780792E0,2.940634918E0,8.943605927E0
4.523257708E0,1.716256027E1,-1.388108414E1,1.798360291E0,2.214660407E1
4.533180708E0,2.599838608E1,-4.412628891E1,9.059161377E0,5.201070906E1
4.543103708E0,4.122771652E1,-7.752378845E1,1.425919785E1,8.895497237E1
4.553026708E0,2.599389542E1,-6.138824249E1,4.877906342E0,6.684304665E1
4.562949708E0,1.372166565E1,-3.133419022E1,-1.387764130E0,3.423509127E1
4.572873708E0,1.072055649E1,-2.045346680E1,1.181343384E0,2.312293683E1
4.582796708E0,6.857539673E0,-1.519475235E1,3.403322754E0,1.701437495E1
4.592719708E0,6.078110504E0,-1.342947327E1,3.985761566E0,1.527024803E1
4.602642708E0,5.733227692E0,-1.160761185E1,3.213367767E0,1.333912609E1
4.612565708E0,4.617747345E0,-8.858129425E0,1.530118103E0,1.010600360E1
4.622488708E0,3.183130646E0,-6.796766052E0,6.098318481E-1,7.529956465E0
4.632411708E0,2.614463196E0,-5.137466583E0,6.650669861E-1,5.802697200E0
4.642334708E0,2.490970001E0,-3.470083923E0,1.534758453E0,4.538931316E0
4.652257708E0,2.271975403E0,-1.722318420E0,2.421215057E0,3.740392403E0
4.662180708E0,1.666484528E0,-1.577719116E-1,2.861449585E0,3.315110313E0
4.672103708E0,1.032403107E0,1.308578796E0,2.963088226E0,3.399724471E0
4.682027708E0,5.310955811E-1,2.711760864E0,2.915487213E0,4.016936045E0
4.691950708E0,2.809657288E-1,4.359534302E0,2.547402649E0,5.057048677E0
4.701873708E0,5.072950745E-1,6.398144989E0,2.060016174E0,6.740717635E0
4.711796708E0,8.655001831E-1,8.418194275E0,1.500030670E0,8.594485292E0
4.721719708E0,1.310674438E0,9.845775604E0,6.354286194E-1,9.952935962E0
4.731642708E0,2.317480774E0,9.787846069E0,-8.690927124E-1,1.009593829E1
4.741565708E0,3.130140839E0,7.441625061E0,-2.138153687E0,8.351482887E0
4.751488708E0,3.484004974E0,4.327650604E0,-2.366728363E0,6.038895061E0
4.761411708E0,3.340154114E0,2.068997498E0,-2.183659058E0,4.495080314E0
4.771334708E0,2.559377747E0,2.888992310E-1,-1.024020538E0,2.771731459E0
4.781257708E0,1.107696533E0,-1.327140198E0,3.333567810E-1,1.760516815E0
4.791181708E0,-5.291496277E-1,-2.706671448E0,7.803273010E-1,2.866178702E0
4.801104708E0,-1.618733826E0,-3.786974945E0,5.224136353E-2,4.118762872E0
4.811027708E0,-2.227966919E0,-4.482428741E0,-9.741741943E-1,5.099511680E0
4.820950708E0,-2.576442261E0,-4.962181091E0,-1.314865723E0,5.743706797E0
4.830873708E0,-3.030597839E0,-5.312303009E0,-1.088985443E0,6.212163538E0
4.840796708E0,-3.434158630E0,-5.615123291E0,-6.457571411E-1,6.613626642E0
4.850719708E0,-3.372636566E0,-5.926026764E0,4.691244507E-1,6.834657882E0
4.860642708E0,-1.469194794E0,-5.898933105E0,1.892813873E0,6.367000038E0
4.870565708E0,3.228785706E0,-6.575975189E0,3.109633484E0,7.958538008E0
4.880488708E0,1.339669144E1,-1.351299957E1,3.308719482E0,1.931372889E1
4.890412708E0,2.739453278E1,-3.428590210E1,7.385791168E0,4.450318438E1
4.900335708E0,3.693329681E1,-5.980977493E1,1.424138489E1,7.172234404E1
4.910258625E0,2.931967941E1,-5.400858856E1,1.117471207E1,6.246155161E1
4.920181625E0,2.258174103E1,-3.010898804E1,6.370751953E-1,3.764162660E1
4.930104625E0,2.066527634E1,-2.076931000E1,-1.651964722E0,2.934530408E1
4.940027625E0,1.556298660E1,-1.997431320E1,3.977977753E0,2.563209018E1
4.949950625E0,1.266890488E1,-2.052247330E1,6.839427338E0,2.506892154E1
4.959873625E0,9.412426758E0,-1.849209549E1,5.784421234E0,2.154091229E1
4.969796625E0,6.218518524E0,-1.497306335E1,3.893253937E0,1.667393250E1
4.979719625E0,2.847378845E0,-1.160416901E1,1.798659668E0,1.208302451E1
4.989642625E0,3.106040955E-1,-8.958720245E0,7.899073792E-1,8.998838648E0
4.999566625E0,-2.514770508E-1,-6.583010559E0,-1.017883301E-2,6.587819999E0
5.009489625E0,-2.522254944E-1,-4.429738312E0,-9.551637268E-1,4.538561111E0
5.019412625E0,-4.120930481E-1,-2.512225800E0,-1.830842743E0,3.135774912E0
5.029335625E0,-2.559677124E-1,-8.186476135E-1,-2.304906921E0,2.459329035E0
5.039258625E0,-3.888912964E-1,6.074368286E-1,-2.022144928E0,2.146924789E0
5.049181625E0,-9.951306152E-1,2.012864227E0,-1.447040863E0,2.671298298E0
5.059104625E0,-2.223476257E0,3.560495911E0,-2.871029663E-1,4.207541552E0
5.069027625E0,-3.565585327E0,5.143603821E0,1.121318207E0,6.358255540E0
5.078950625E0,-4.353546753E0,6.946005707E0,2.517315216E0,8.575385735E0
5.088873625E0,-4.623884583E0,8.810079346E0,3.606899414E0,1.058336100E1
5.098796625E0,-4.279600525E0,9.490564270E0,2.981499939E0,1.082936437E1
5.108720625E0,-2.797382812E0,7.955955505E0,1.562750244E-1,8.434868137E0
5.118643625E0,-1.659149780E0,4.877457275E0,-1.767973480E0,5.446842911E0
5.128566625E0,-5.803431702E-1,2.338287506E0,-2.150278473E0,3.229254429E0
5.138489625E0,7.373666382E-1,6.391708374E-1,-2.068997498E0,2.287575040E0
5.148412625E0,2.027683411E0,-6.439608765E-1,-1.902094574E0,2.853795612E0
5.158335625E0,3.019221497E0,-1.573527832E0,-1.847907257E0,3.873815885E0
5.168258625E0,3.155887299E0,-2.202669525E0,-1.684147797E0,4.200920313E0
5.178181625E0,2.704426117E0,-2.728975067E0,-1.366508331E0,4.077814434E0
5.188104625E0,2.456691284E0,-3.173400879E0,-1.123264160E0,4.167436572E0
5.198027625E0,2.248773651E0,-3.459605713E0,-6.737489319E-1,4.180884146E0
5.207950625E0,2.175875244E0,-3.722608795E0,7.289840698E-2,4.312489246E0
5.217874625E0,2.206262054E0,-3.724105682E0,8.211923218E-1,4.405781680E0
5.227797625E0,2.937491455E0,-3.343746643E0,1.696571960E0,4.763176889E0
5.237720625E0,4.246669006E0,-3.244353333E0,2.631976776E0,5.957124134E0
5.247643625E0,7.056326294E0,-4.195475464E0,3.194656677E0,8.809062744E0
5.257566625E0,1.405262741E1,-8.555159454E0,2.927761688E0,1.671044221E1
5.267489625E0,2.394061523E1,-2.656001816E1,2.856659546E0,3.587127160E1
5.277412625E0,3.245461029E1,-6.057947433E1,9.336684265E0,6.935667317E1
5.287335625E0,3.147280197E1,-7.377094254E1,1.461425949E1,8.152463313E1
5.297258625E0,1.200323914E1,-4.433555374E1,7.866890717E0,4.660050477E1
5.307181625E0,9.460027771E0,-2.589270584E1,2.477647705E0,2.767784456E1
5.317105625E0,9.909842377E0,-1.848595825E1,1.043929138E0,2.100060515E1
5.327028625E0,8.632847900E0,-1.671933197E1,2.707868958E-1,1.881848692E1
5.336951625E0,8.326135712E0,-1.555220901E1,9.897418213E-1,1.766848409E1
5.346874625E0,6.563251648E0,-1.173963730E1,2.185455322E0,1.362613559E1
5.356797625E0,2.704725494E0,-7.662565613E0,3.624263306E0,8.897512927E0
5.366720625E0,-8.422984314E-1,-4.628375244E0,4.745132446E0,6.681886409E0
5.376643625E0,-2.107317810E0,-3.199446716E0,5.024002533E0,6.318057383E0
5.386566625E0,-1.591340790E0,-2.766696625E0,4.858297119E0,5.812918942E0
5.396489625E0,-9.425898743E-1,-2.102827148E0,3.382366333E0,4.092769197E0
5.406412625E0,-2.736309814E-1,-1.012793884E0,2.105521545E0,2.352412877E0
5.416335625E0,4.567002869E-1,2.971321106E-1,9.571096802E-1,1.101327192E0
5.426259625E0,1.067130890E0,1.490450592E0,-2.008822632E-1,1.844062089E0
5.436182625E0,7.650590515E-1,2.141297150E0,-3.679348755E-1,2.303441970E0
5.446105625E0,2.525248718E-1,2.860701141E0,7.641609192E-1,2.971753984E0
5.456028625E0,1.841171265E-2,4.080215149E0,2.553090820E0,4.813186823E0
5.465951625E0,-4.131408691E-2,5.370980988E0,3.808380432E0,6.584292304E0
5.475874625E0,-1.463955688E-1,6.273753662E0,3.935765533E0,7.407541226E0
5.485797625E0,4.242178345E-1,6.272107086E0,2.728376312E0,6.852979306E0
5.495720625E0,2.316582642E0,4.828359375E0,6.581813049E-1,5.395628974E0
5.505643625E0,3.828588409E0,2.907104645E0,-1.087787933E0,4.928755341E0
5.515566625E0,3.681743774E0,1.354233856E0,-1.795815582E0,4.314410755E0
5.525489625E0,2.918930054E0,-5.239105225E-3,-1.785636749E0,3.421794662E0
5.535413625E0,2.067350922E0,-1.097068634E0,-1.858834534E0,2.988773201E0
5.545336625E0,1.048719177E0,-2.028731232E0,-1.838476868E0,2.931818466E0
5.555259625E0,7.918533325E-2,-2.799628143E0,-1.469344482E0,3.162777461E0
5.565182625E0,-5.864804077E-1,-3.464096375E0,-9.638456726E-1,3.643202086E0
5.575105625E0,-1.957928467E-1,-3.787424011E0,-5.635780334E-1,3.834127760E0
5.585028625E0,6.719526672E-1,-3.800147552E0,1.281335449E-1,3.861225196E0
5.594951625E0,1.127904510E0,-3.975433044E0,1.227447510E0,4.310784600E0
5.604874625E0,2.768642578E0,-4.160597992E0,2.364632721E0,5.528783345E0
5.614797625E0,7.655230865E0,-5.617069244E0,2.622396698E0,9.850431003E0
5.624720625E0,1.785262527E1,-1.622431137E1,6.233038330E-1,2.413157716E1
5.634643625E0,2.360531250E1,-4.324177826E1,6.603817291E0,4.970586050E1
5.644567625E0,2.536250839E1,-6.651418304E1,1.457563980E1,7.266252579E1
5.654490625E0,1.593181961E1,-5.349800034E1,1.085333038E1,5.686522396E1
5.664413625E0,1.486962845E1,-3.093616791E1,2.182910614E0,3.439356675E1
5.674336625E0,1.691557388E1,-2.326881226E1,3.174299011E0,2.894219131E1
5.684259625E0,1.587029755E1,-2.181967575E1,5.252726898E0,2.748737408E1
5.694182625E0,1.605680969E1,-2.047472260E1,4.580774231E0,2.642004723E1
5.704105625E0,1.451890778E1,-1.738305176E1,3.457959137E0,2.291127785E1
5.714028625E0,9.089847565E0,-1.374097549E1,3.797453156E0,1.690740627E1
5.723951625E0,4.092040558E0,-9.733059998E0,5.146447906E0,1.174577281E1
5.733874625E0,8.048762512E-1,-6.689888306E0,6.161038055E0,9.130214742E0
5.743797625E0,-6.346801758E-1,-4.961432648E0,6.077062683E0,7.870789268E0
5.753721625E0,-2.948867798E-1,-3.803440704E0,4.168681183E0,5.650754127E0
5.763644625E0,2.917433167E-1,-2.810405731E0,7.508386230E-1,2.923568568E0
5.773567625E0,8.689430237E-1,-1.681752777E0,-1.858984222E0,2.653144685E0
5.783490625E0,1.068777466E0,-4.664300537E-1,-3.166365509E0,3.374272189E0
5.793413625E0,1.078507233E0,8.934919739E-1,-4.051325226E0,4.286576938E0
5.803336625E0,1.229842529E0,2.639012146E0,-4.386777649E0,5.265046618E0
5.813259625E0,4.637356567E-1,4.546345825E0,-3.578308868E0,5.804188615E0
5.823182625E0,-4.326004028E-1,6.243815918E0,-1.501377869E0,6.436343359E0
5.833105625E0,-8.735833740E-1,7.552095337E0,7.625143433E-1,7.640596836E0
5.843028625E0,-1.564696198E0,8.307873688E0,3.085982666E0,8.999573791E0
5.852951625E0,-1.742227020E0,8.170908508E0,4.362827454E0,9.425145316E0
5.862875625E0,-1.350940704E0,6.697372742E0,3.883973236E0,7.859076951E0
5.872798625E0,-5.581892395E-1,3.958069153E0,1.901645508E0,4.426527113E0
5.882721625E0,-1.140628052E-1,1.829645233E0,-4.207749939E-1,1.880867778E0
5.892644625E0,5.092410278E-1,2.498304749E-1,-1.732796631E0,1.823273390E0
5.902567625E0,1.428629150E0,-8.334667969E-1,-1.935475159E0,2.545920706E0
5.912491458E0,1.919159088E0,-1.567540283E0,-1.857038269E0,3.096602215E0
5.922414458E0,1.973196716E0,-2.059567108E0,-1.499880981E0,3.222571165E0
5.932337458E0,1.709894257E0,-2.482288055E0,-6.256988525E-1,3.078472253E0
5.942260458E0,1.430575104E0,-2.737207947E0,1.187031555E-1,3.090783543E0
5.952183458E0,1.394949188E0,-2.711461487E0,3.731739807E-1,3.071996981E0
5.962106458E0,1.538949738E0,-2.719245300E0,6.589297485E-1,3.193250650E0
5.972030458E0,1.697769470E0,-2.823129272E0,1.110690308E0,3.476508740E0
5.981953458E0,1.805844727E0,-2.747686157E0,1.676962738E0,3.690942755E0
5.991876458E0,2.494412842E0,-2.731370087E0,2.219883728E0,4.313972849E0
6.001799458E0,3.977528687E0,-3.361709290E0,2.415676575E0,5.740846376E0
6.011722458E0,6.539451141E0,-5.106031952E0,2.424208832E0,8.643655013E0
6.021645458E0,1.270153702E1,-1.279269745E1,1.928439789E0,1.813011392E1
6.031568458E0,1.905911636E1,-3.594849472E1,5.926026764E0,4.111766023E1
6.041491458E0,2.742297363E1,-6.997289062E1,1.396610733E1,7.644133083E1
6.051414458E0,2.558539490E1,-7.028588974E1,1.404140076E1,7.610439977E1
6.061337458E0,1.847907257E1,-4.046565125E1,5.610333252E0,4.483771730E1
6.071260458E0,2.048011139E1,-2.661779800E1,2.913541260E0,3.371099013E1
6.081184458E0,1.868699020E1,-2.270807831E1,2.884801025E0,2.954966159E1
6.091107458E0,1.651485718E1,-2.064147583E1,3.118016052E0,2.661828424E1
6.101030458E0,1.294373337E1,-1.668550232E1,2.633473663E0,2.128101042E1
6.110953458E0,8.050708466E0,-1.214604218E1,1.795815582E0,1.468213884E1
6.120876458E0,3.789819031E0,-7.963439941E0,1.558409271E0,8.955877592E0
6.130799458E0,1.243314514E0,-5.167104950E0,8.610095215E-1,5.383877965E0
6.140722458E0,8.334667969E-1,-3.722608795E0,-1.234931946E-1,3.816770063E0
6.150645458E0,1.138382721E0,-2.483934631E0,-8.897497559E-1,2.873586801E0
6.160568458E0,1.244362335E0,-1.354533234E0,-1.502874756E0,2.375253762E0
6.170491458E0,1.265318756E0,-1.740879822E-1,-7.942483521E-1,1.504050739E0
6.180414458E0,1.974394226E-1,1.165626068E0,1.202299805E0,1.686176526E0
6.190337458E0,-1.709445190E0,2.590513000E0,2.996768188E0,4.314345842E0
6.200261458E0,-3.430266724E0,4.032913513E0,4.177812195E0,6.744274308E0
6.210184458E0,-4.451742554E0,5.465584259E0,4.469405823E0,8.346628749E0
6.220107458E0,-3.872746582E0,7.051985321E0,3.276087341E0,8.686852786E0
6.230030458E0,-2.937940521E0,7.956404572E0,5.816903687E-1,8.501425286E0
6.239953458E0,-1.869761810E0,7.186555481E0,-2.342329102E0,7.786468682E0
6.249876458E0,-6.698570251E-1,4.849315796E0,-4.061953125E0,6.361134750E0
6.259799458E0,9.687854004E-1,2.537672882E0,-4.176165619E0,4.981835815E0
6.269722458E0,2.090402985E0,1.174757080E0,-3.254532166E0,4.042501509E0
6.279645458E0,2.444716187E0,3.787124634E-2,-1.528621216E0,2.883531565E0
6.289568458E0,2.257754974E0,-9.267228699E-1,7.125183105E-2,2.441587522E0
6.299491458E0,1.450783081E0,-1.714684296E0,9.084608459E-1,2.422852635E0
6.309415458E0,4.451742554E-1,-2.302811279E0,8.882528687E-1,2.508009782E0
6.319338458E0,-5.152285767E-1,-2.589914246E0,4.189787292E-1,2.673697713E0
6.329261458E0,-1.348246307E0,-2.744093628E0,2.694396973E-2,3.057538867E0
6.339184458E0,-1.600322113E0,-2.732567596E0,-3.540138245E-1,3.186421554E0
6.349107458E0,-1.546134796E0,-2.690205688E0,-3.785627747E-1,3.125867756E0
6.359030458E0,-1.162033539E0,-2.747237091E0,-3.688330078E-1,3.005606655E0
6.368953458E0,-3.134481812E-1,-2.668500824E0,-6.494993591E-1,2.764235125E0
6.378876458E0,6.364764404E-1,-2.325414276E0,-5.228627014E-1,2.466989911E0
6.388799458E0,1.541195068E0,-1.678010559E0,3.300636292E-1,2.302160653E0
6.398722458E0,3.179987183E0,-9.852511597E-1,1.603465576E0,3.695150901E0
6.408645458E0,6.036497040E0,-1.023571472E0,3.286565552E0,6.948993322E0
6.418568458E0,1.193722641E1,-2.092049561E0,4.016298065E0,1.276732924E1
6.428492458E0,2.253458908E1,-1.343695770E1,4.211342468E0,2.657244706E1
6.438415458E0,3.225417709E1,-4.628539902E1,8.588540039E0,5.706516558E1
6.448338458E0,4.017645264E1,-7.759025024E1,1.335358109E1,8.838954920E1
6.458261458E0,2.186997116E1,-5.928661285E1,8.039631500E0,6.370112854E1
6.468184458E0,1.103669907E1,-3.563504654E1,9.880952454E-1,3.731811357E1
6.478107458E0,1.087443649E1,-2.643727341E1,3.912563782E0,2.885291926E1
6.488030458E0,1.054601944E1,-2.247710861E1,4.470303955E0,2.522741673E1
6.497953458E0,1.122545654E1,-2.075913116E1,4.463717651E0,2.401826756E1
6.507876458E0,8.553213501E0,-1.760444138E1,3.915707245E0,1.996012476E1
6.517799458E0,4.988376617E0,-1.383812347E1,3.109483795E0,1.503484127E1
6.527722458E0,2.225571899E0,-1.085228256E1,2.117646332E0,1.127872480E1
6.537646458E0,8.993298340E-1,-8.578061829E0,7.914042664E-1,8.661308192E0
6.547569458E0,3.677851868E-1,-6.697073364E0,4.400848389E-2,6.707309023E0
6.557492458E0,4.123924255E-1,-4.901856537E0,-4.701722717E-1,4.941591544E0
6.567415458E0,5.034031677E-1,-3.071462860E0,-7.008425903E-1,3.190372891E0
6.577338458E0,3.067121887E-1,-1.062191162E0,-3.706292725E-1,1.166056812E0
6.587261458E0,-6.107299805E-2,1.183888092E0,1.243913269E-1,1.191970691E0
6.597184458E0,-9.175918579E-1,3.295097809E0,4.909790039E-1,3.455532487E0
6.607107458E0,-2.242486725E0,5.379662933E0,1.315614166E0,5.974977876E0
6.617030458E0,-2.700683899E0,7.836054840E0,2.734663239E0,8.727876718E0
6.626953458E0,-1.897454224E0,1.036699173E1,4.074227600E0,1.129930000E1
6.636876458E0,-2.008822632E-1,1.215382599E1,3.376229095E0,1.261565546E1
6.646799458E0,2.018253021E0,1.163380737E1,-7.955955505E-1,1.183434796E1
6.656723458E0,3.938459930E0,7.604037323E0,-3.817511444E0,9.375832969E0
6.666646458E0,5.015769653E0,3.203937378E0,-4.095483398E0,7.224689904E0
6.676569458E0,5.615722046E0,7.699987793E-1,-3.642525330E0,6.737746136E0
6.686492458E0,5.609584808E0,-8.720864868E-1,-1.979783020E0,6.012280546E0
6.696415458E0,4.842879181E0,-2.308499451E0,1.945953369E-1,5.368474254E0
6.706338458E0,3.147355042E0,-3.321742401E0,2.102378082E0,5.035852454E0
6.716261458E0,1.119521942E0,-3.845652924E0,3.346441040E0,5.219295299E0
6.726184458E0,-9.011260986E-1,-3.899690552E0,3.038231964E0,5.024984389E0
6.736107458E0,-2.182461548E0,-3.553310852E0,1.869462433E0,4.569906586E0
6.746030458E0,-2.590063934E0,-3.131937103E0,8.086184692E-1,4.143829754E0
6.755953458E0,-2.848576355E0,-2.603236542E0,2.935395813E-1,3.870063724E0
6.765876458E0,-2.833158417E0,-1.860780487E0,2.007325745E-1,3.395524142E0
6.775800458E0,-2.529589691E0,-1.058149567E0,4.945715332E-1,2.786235007E0
6.785723458E0,-1.720372467E0,4.565505981E-2,1.599573669E0,2.349553518E0
6.795646458E0,-2.927911377E-1,1.067579956E0,3.405418396E0,3.580827846E0
6.805569458E0,1.811832275E0,3.781137085E-1,4.518803101E0,4.883163691E0
6.815492458E0,5.220094757E0,-5.754034424E-1,5.275180206E0,7.443655325E0
6.825415458E0,1.339968521E1,-4.050277405E0,5.899681549E0,1.519087072E1
6.835338458E0,2.324022171E1,-2.596740051E1,1.189501419E1,3.682261747E1
6.845261458E0,4.281202194E1,-6.971737198E1,1.941073517E1,8.408423050E1
6.855184458E0,3.753145294E1,-7.747229553E1,1.303923477E1,8.706657326E1
6.865107458E0,1.454495361E1,-4.972524582E1,-4.162843323E0,5.197581180E1
6.875030458E0,1.594139969E1,-2.715278549E1,-3.221301270E0,3.165088886E1
6.884954458E0,1.317470306E1,-1.912318314E1,8.539741516E-1,2.323786147E1
6.894877458E0,1.119626724E1,-1.666529434E1,2.555186462E0,2.023900723E1
6.904800458E0,1.014350647E1,-1.470272552E1,3.467090149E0,1.819564716E1
6.914722833E0,6.755302277E0,-1.103310654E1,2.456391907E0,1.316804503E1
6.924645833E0,2.186203766E0,-7.725434875E0,-1.317260742E-2,8.028823353E0
6.934568833E0,-4.555027771E-1,-6.000122681E0,-2.371518402E0,6.467847748E0
6.944491833E0,-3.382965088E-1,-4.926106110E0,-1.297202454E0,5.105262005E0
6.954414833E0,2.067201233E-1,-3.911665649E0,4.068539429E-1,3.938196477E0
6.964337833E0,5.197192383E-1,-2.709515533E0,9.258247375E-1,2.910108925E0
6.974260833E0,4.863386536E-1,-1.427880707E0,1.156345367E0,1.900658625E0
6.984183833E0,3.393443298E-1,-2.056723022E-1,1.187330933E0,1.251882748E0
6.994106833E0,-1.971400452E-1,1.077010345E0,9.081614685E-1,1.422523369E0
7.004030833E0,-9.460327148E-1,2.604434052E0,1.008602600E0,2.948785145E0
7.013953833E0,-1.423390045E0,4.452940063E0,1.746118927E0,4.990355272E0
7.023876833E0,-1.448837128E0,6.374194794E0,2.359692993E0,6.949650301E0
7.033799833E0,-1.277144165E0,7.739655304E0,2.150278473E0,8.133698971E0
7.043722833E0,-6.963519287E-1,7.824079742E0,2.636018372E-1,7.859428462E0
7.053645833E0,1.456471252E-1,5.962700500E0,-2.603835297E0,6.508069498E0
7.063568833E0,8.689430237E-1,2.989882507E0,-4.255949707E0,5.273288091E0
7.073491833E0,1.136137390E0,9.604028320E-1,-3.793710938E0,4.074975392E0
7.083414833E0,1.184337158E0,2.186952209E-1,-2.517165527E0,2.790448780E0
7.093337833E0,1.162332916E0,-5.822891235E-2,-9.315129089E-1,1.490679279E0
7.103260833E0,6.171665955E-1,-2.269281006E-1,-7.125183105E-2,6.614134810E-1
7.113183833E0,-2.918930054E-2,-2.624043274E-1,3.372486877E-1,4.283044754E-1
7.123107833E0,-4.819976807E-1,-9.295669556E-2,8.184979248E-1,9.544116325E-1
7.133030833E0,-7.015910339E-1,1.636097717E-1,1.320104828E0,1.503886596E0
7.142953833E0,-8.244854736E-1,1.026864624E-1,1.970801697E0,2.138780057E0
7.152876833E0,-7.855664063E-1,-3.761677551E-1,2.535128174E0,2.680576732E0
7.162799833E0,-2.787203979E-1,-1.080153809E0,2.579136658E0,2.810046834E0
7.172722833E0,9.862989807E-1,-1.695374451E0,2.562970276E0,3.227366859E0
7.182645833E0,2.870879974E0,-2.517015839E0,3.078348541E0,4.904441895E0
7.192568833E0,5.238805847E0,-3.511248322E0,4.153113556E0,7.551311389E0
7.202491833E0,1.079570023E1,-6.790928192E0,5.560337219E0,1.391334608E1
7.212414833E0,2.148003204E1,-2.386502243E1,8.943901062E0,3.333053313E1
7.222337833E0,3.105921204E1,-6.073185745E1,1.103116058E1,6.909934635E1
7.232261833E0,2.747162247E1,-7.207856186E1,8.436456299E0,7.759628158E1
7.242184833E0,1.370295456E1,-4.176884125E1,3.601061554E0,4.410640211E1
7.252107833E0,1.513876877E1,-2.645358948E1,3.292553101E0,3.065641241E1
7.262030833E0,1.443807587E1,-2.058040283E1,6.962321777E0,2.608610626E1
7.271953833E0,1.516122208E1,-1.921524170E1,7.062164154E0,2.547473908E1
7.281876833E0,1.677786026E1,-1.847697693E1,5.149142303E0,2.548350325E1
7.291799833E0,1.348889969E1,-1.607117981E1,2.601739655E0,2.114242854E1
7.301722833E0,8.206684113E0,-1.243823456E1,-3.936813354E-2,1.490170772E1
7.311645833E0,4.531376953E0,-9.898016968E0,-1.042282562E0,1.093574277E1
7.321568833E0,2.314786377E0,-8.284971313E0,-7.972421265E-1,8.639130781E0
7.331491833E0,1.415157166E0,-6.310128021E0,-0.000000000E0,6.466868287E0
7.341414833E0,2.000440063E0,-3.875590668E0,1.065783691E0,4.489750366E0
7.351338833E0,2.218686218E0,-1.830393677E0,2.231709137E0,3.640526778E0
7.361261833E0,1.520238647E0,-5.969586182E-1,2.994373169E0,3.410829197E0
7.371184833E0,4.641847229E-1,2.520758057E-1,3.102448425E0,3.147093246E0
7.381107833E0,-6.978488159E-1,1.190324707E0,2.405797119E0,2.773396051E0
7.391030833E0,-1.832639008E0,2.317630463E0,1.264270935E0,3.213776235E0
7.400953833E0,-2.433788910E0,3.680246887E0,4.496649170E-1,4.435058528E0
7.410876833E0,-2.318378906E0,5.215304718E0,-9.550140381E-2,5.708187503E0
7.420799833E0,-1.932631073E0,6.555916901E0,-8.321195984E-1,6.885312796E0
7.430722833E0,-1.354233856E0,7.184310150E0,-1.721120911E0,7.510693634E0
7.440645833E0,-8.039781189E-1,6.705306244E0,-2.229314117E0,7.111775733E0
7.450568833E0,-3.838018799E-1,5.222938843E0,-1.727407837E0,5.514556362E0
7.460491833E0,-3.025209045E-1,3.714226227E0,-8.023315430E-1,3.811919630E0
7.470415833E0,-6.129753113E-1,2.336491241E0,-1.537303162E-1,2.420446873E0
7.480338833E0,-7.439529419E-1,1.032253418E0,1.121168518E-1,1.277334446E0
7.490261833E0,-7.421566772E-1,-8.666976929E-2,3.158432007E-2,7.478674694E-1
7.500184833E0,-6.827302551E-1,-9.940827942E-1,-2.377056885E-1,1.229156295E0
7.510107833E0,-5.881269836E-1,-1.720222778E0,-5.361849976E-1,1.895403416E0
7.520030833E0,-2.903961182E-1,-2.388582916E0,-9.135502625E-1,2.573758407E0
7.529953833E0,9.909393311E-2,-2.936293945E0,-1.105900269E0,3.139212822E0
7.539876833E0,2.642005920E-1,-3.251239014E0,-6.915618896E-1,3.334458715E0
7.549799833E0,3.582051086E-1,-3.814218292E0,5.269042969E-2,3.831363773E0
7.559722833E0,4.781057739E-1,-4.822970581E0,9.241781616E-1,4.933937133E0
7.569645833E0,1.413360901E0,-5.895041199E0,1.544937286E0,6.255871721E0
7.579568833E0,3.570824432E0,-6.837182007E0,2.374512177E0,8.070697182E0
7.589492833E0,7.530091095E0,-8.937464447E0,3.394491119E0,1.216976222E1
7.599415833E0,1.631756744E1,-1.777987656E1,6.396797791E0,2.496609781E1
7.609338833E0,2.414853287E1,-3.720782593E1,1.246712448E1,4.607605824E1
7.619261833E0,2.296703979E1,-6.110188797E1,1.622251511E1,6.726139775E1
7.629184833E0,1.787537796E1,-5.329008270E1,1.119896164E1,5.731298974E1
7.639107833E0,2.109563141E1,-3.364912628E1,5.176984406E0,4.005109901E1
7.649030833E0,2.460702942E1,-2.510639099E1,3.864663391E0,3.536626060E1
7.658953833E0,2.481539612E1,-2.155233170E1,5.253475342E0,3.328522028E1
7.668876833E0,2.405392960E1,-1.828357910E1,4.975653076E0,3.062087388E1
7.678799833E0,2.059537170E1,-1.427850769E1,3.766916656E0,2.534235148E1
7.688722833E0,1.538141418E1,-1.121887024E1,3.104394379E0,1.928958829E1
7.698645833E0,9.066196747E0,-9.294621735E0,2.289938049E0,1.318445042E1
7.708569833E0,2.858006744E0,-8.284821625E0,1.121168518E0,8.835354591E0
7.718492833E0,-1.972897339E-1,-7.217990112E0,-1.200503540E0,7.319802815E0
7.728415833E0,-1.981878662E-1,-5.538782043E0,-2.643053741E0,6.140286478E0
7.738338833E0,8.003855896E-1,-3.660787354E0,-2.515369263E0,4.513209907E0
7.748261833E0,9.797126770E-1,-2.101030884E0,-1.456171875E0,2.737627483E0
7.758184833E0,7.704478455E-1,-3.945794678E-1,-1.721420288E-2,8.657824021E-1
7.768107833E0,-1.227447510E-1,1.659748535E0,1.317410431E0,2.122593159E0
7.778030833E0,-1.391955414E0,3.751199341E0,2.368824005E0,4.649770267E0
7.787953833E0,-2.100881195E0,5.747148743E0,3.537144470E0,7.067871778E0
7.797876833E0,-2.671644287E0,7.422913971E0,4.187691650E0,8.931634586E0
7.807799833E0,-3.430566101E0,8.325237579E0,3.786525879E0,9.768118691E0
7.817722833E0,-3.907025299E0,8.305029602E0,2.877765656E0,9.618726451E0
7.827645833E0,-3.308270416E0,6.926995239E0,1.105750580E0,7.755681823E0
7.837569833E0,-1.501826935E0,4.229604492E0,-7.658074951E-1,4.553185634E0
7.847492833E0,-6.950047302E-1,2.083666992E0,-1.969155121E0,2.949961288E0
7.857415833E0,-4.225712585E-1,8.268804932E-1,-2.353705444E0,2.530262266E0
7.867338833E0,-2.697390747E-1,-7.499404907E-2,-2.039359131E0,2.058487051E0
7.877261833E0,-2.504292297E-1,-7.668553162E-1,-1.541494446E0,1.739823842E0
7.887184833E0,-3.847000122E-2,-1.183888092E0,-1.103505249E0,1.618886898E0
7.897107833E0,2.547702026E-1,-1.451980591E0,-7.168592834E-1,1.639220157E0
7.907030833E0,2.698887634E-1,-1.824256439E0,6.242019653E-2,1.845168768E0
7.916954125E0,1.646575928E-2,-2.229314117E0,1.028660889E0,2.455250655E0
7.926877125E0,-5.343887329E-2,-2.549348602E0,1.650767212E0,3.037608664E0
7.936800125E0,4.480183411E-1,-2.939138031E0,1.598226471E0,3.375437846E0
7.946723125E0,1.192719727E0,-3.429518280E0,1.384321289E0,3.885938936E0
7.956647125E0,1.801204376E0,-3.790717163E0,1.722019043E0,4.536432894E0
7.966570125E0,2.618953857E0,-3.598217468E0,2.362387390E0,5.038547652E0
7.976493125E0,4.333039398E0,-2.768343201E0,3.307372284E0,6.113727662E0
7.986416125E0,6.627468109E0,-2.593207397E0,4.245770874E0,8.287015655E0
7.996339125E0,9.459279327E0,-3.536695404E0,4.300107880E0,1.097620643E1
8.006262125E0,1.522903107E1,-7.917784882E0,4.306694183E0,1.769639284E1
8.016185125E0,2.305775116E1,-2.367222336E1,7.706873474E0,3.393272677E1
8.026108125E0,3.496593796E1,-6.023474121E1,1.295016998E1,7.084170924E1
8.036031125E0,3.330903351E1,-7.600998642E1,1.518202881E1,8.436529943E1
8.045954125E0,1.941058548E1,-4.702590912E1,3.121758270E0,5.097011214E1
8.055877125E0,1.594903381E1,-2.905847260E1,-6.331832886E-2,3.314770759E1
8.065800125E0,1.236309082E1,-2.305475739E1,3.596720581E0,2.640651911E1
8.075724125E0,1.255319550E1,-2.033940399E1,5.398823090E0,2.450349695E1
8.085647125E0,1.199425781E1,-1.781939438E1,5.235961761E0,2.210901020E1
8.095570125E0,8.483608246E0,-1.428195053E1,3.560046844E0,1.698880965E1
8.105493125E0,4.713847504E0,-1.053898407E1,2.071242828E0,1.172947528E1
8.115416125E0,2.284399567E0,-7.502997437E0,2.254312134E-1,7.846290279E0
8.125339125E0,1.296454010E0,-5.525010681E0,-5.620811462E-1,5.702847643E0
8.135262125E0,1.187630310E0,-4.105811920E0,-1.505868530E-1,4.276778423E0
8.145185125E0,1.791175232E0,-2.731370087E0,9.460327148E-2,3.267665993E0
8.155108125E0,2.307751007E0,-1.390608215E0,3.999682617E-1,2.723872341E0
8.165031125E0,1.801653442E0,1.916015625E-2,1.527872772E0,2.362354217E0
8.174954125E0,-1.261875916E-1,1.485061798E0,3.134631500E0,3.470914360E0
8.184877125E0,-2.242337036E0,3.036735077E0,3.808230743E0,5.362131731E0
8.194800125E0,-3.423979797E0,4.719385986E0,3.755240936E0,6.935277661E0
8.204724125E0,-3.392694855E0,6.445746002E0,3.070265350E0,7.904716897E0
8.214647125E0,-2.723137207E0,7.719297638E0,1.295406189E0,8.287406679E0
8.224570125E0,-2.069446564E0,7.885003052E0,-1.246308289E0,8.246767037E0
8.234493125E0,-1.326242065E0,6.627019043E0,-3.710484009E0,7.709992931E0
8.244416125E0,1.372645569E-1,4.263733521E0,-4.699327698E0,6.346805961E0
8.254339125E0,1.494192810E0,2.580184479E0,-4.046535187E0,5.026371566E0
8.264262125E0,1.856140137E0,1.930385742E0,-2.663112030E0,3.776746087E0
8.274185125E0,1.718725891E0,1.257534943E0,-9.702822876E-1,2.340269330E0
8.284108125E0,1.319206696E0,4.131408691E-1,4.802014160E-1,1.463415554E0
8.294031125E0,8.376580811E-1,-4.260140991E-1,1.017434235E0,1.385038445E0
8.303954125E0,3.070115662E-1,-1.126108246E0,7.556286621E-1,1.390449768E0
8.313877125E0,-1.681004333E-1,-1.886826324E0,4.050576782E-1,1.937122365E0
8.323801125E0,-4.155358887E-1,-2.671494598E0,3.004252625E-1,2.720258959E0
8.333724125E0,-3.038681030E-1,-3.184926910E0,4.173321533E-1,3.226493666E0
8.343647125E0,1.585203552E-1,-3.422782288E0,4.658312988E-1,3.457971384E0
8.353570125E0,7.421566772E-1,-3.412902832E0,4.508624268E-1,3.521644389E0
8.363493125E0,1.349294128E0,-3.154689789E0,5.132826233E-1,3.469311367E0
8.373416125E0,1.882036285E0,-2.617007904E0,1.064735870E0,3.394768537E0
8.383339125E0,2.778671722E0,-2.054477692E0,2.092498627E0,4.039857130E0
8.393262125E0,4.349355469E0,-2.184856567E0,3.077450409E0,5.758575539E0
8.403185125E0,6.749015350E0,-3.344195709E0,3.532953186E0,8.319531919E0
8.413108125E0,1.400442764E1,-7.868387604E0,3.819158020E0,1.651125329E1
8.423031125E0,2.499307663E1,-2.645239197E1,7.960446167E0,3.725253848E1
8.432954125E0,3.224564484E1,-6.430253220E1,1.369681732E1,7.322704461E1
8.442878125E0,2.449700821E1,-7.647506927E1,1.624796219E1,8.193006717E1
8.452801125E0,1.677636337E1,-4.576059036E1,6.026617584E0,4.911006127E1
8.462724125E0,1.862457001E1,-2.649550232E1,2.987487488E0,3.252401163E1
8.472647125E0,1.429182999E1,-2.140548706E1,6.979835358E0,2.666775923E1
8.482570125E0,1.397763336E1,-1.990740234E1,8.336464233E0,2.571333386E1
8.492493125E0,1.595966171E1,-1.650168457E1,6.073021088E0,2.374653618E1
8.502416125E0,1.457519073E1,-1.191282715E1,2.404300232E0,1.897715193E1
8.512339125E0,1.009141479E1,-7.761060791E0,-3.189716949E0,1.312421470E1
8.522262125E0,5.761518860E0,-5.401367798E0,-5.099595337E0,9.400837530E0
8.532185125E0,3.055745544E0,-4.352498932E0,-3.780089264E0,6.524638122E0
8.542108125E0,2.379002838E0,-3.239114227E0,-3.294948120E0,5.196941273E0
8.552031125E0,2.425705719E0,-2.035018158E0,-3.361858978E0,4.618164454E0
8.561955125E0,2.489772491E0,-7.264393616E-1,-3.016227722E0,3.977978240E0
8.571878125E0,1.877246246E0,8.075706482E-1,-2.038011932E0,2.886124817E0
8.581801125E0,4.159849548E-1,2.279459839E0,-2.180964661E-1,2.327347569E0
8.591724125E0,-1.427731018E0,3.654201050E0,2.404150543E0,4.601254286E0
8.601647125E0,-3.363804932E0,5.092110901E0,4.275858307E0,7.451693855E0
8.611570125E0,-4.765041046E0,6.367758179E0,4.849016418E0,9.314876307E0
8.621493125E0,-5.471571808E0,6.944808197E0,4.192930756E0,9.785148301E0
8.631416125E0,-4.508175201E0,6.486910400E0,1.851649475E0,8.113707905E0
8.641339125E0,-2.796185303E0,5.124593353E0,-4.617897034E-1,5.856053194E0
8.651262125E0,-1.960173798E0,3.593577118E0,-1.481020203E0,4.353102188E0
8.661185125E0,-1.350791016E0,2.267335052E0,-1.461111603E0,3.016668978E0
8.671108125E0,-4.921765137E-1,1.322200470E0,-1.346000977E0,1.949915494E0
8.681031125E0,2.508782959E-1,3.849993896E-1,-1.462907867E0,1.533383148E0
8.690954125E0,7.587721252E-1,-6.673123169E-1,-1.406175842E0,1.731580598E0
8.700878125E0,9.901908875E-1,-1.474284210E0,-1.026714935E0,2.051374048E0
8.710801125E0,8.193960571E-1,-2.014810181E0,-4.390370178E-1,2.218923943E0
8.720724125E0,4.857398987E-1,-2.445314941E0,2.528242493E-1,2.505878791E0
8.730647125E0,1.669029236E-1,-2.926264801E0,6.346801758E-1,2.998950016E0
8.740570125E0,-5.224136353E-2,-3.412902832E0,6.650669861E-1,3.477491768E0
8.750493125E0,-1.534309387E-1,-3.532354431E0,6.096821594E-1,3.587865830E0
8.760416125E0,-8.023315430E-2,-3.281176758E0,9.599537659E-1,3.419659268E0
8.770339125E0,2.561174011E-1,-2.889591064E0,1.601220245E0,3.313493461E0
8.780262125E0,1.165326691E0,-2.407743073E0,2.252815247E0,3.497197383E0
8.790185125E0,3.082090759E0,-2.075434113E0,2.449805603E0,4.450646885E0
8.800108125E0,5.897286530E0,-2.365830231E0,2.523003387E0,6.836716111E0
8.810031125E0,1.187645279E1,-5.015320587E0,3.367846527E0,1.332463739E1
8.819955125E0,2.134321655E1,-1.933948334E1,6.589596863E0,2.954608765E1
8.829878125E0,2.720218277E1,-4.906422043E1,1.114746872E1,5.719722487E1
8.839801125E0,2.358809830E1,-7.249200211E1,1.301618271E1,7.733634180E1
8.849724125E0,1.353814728E1,-5.407819382E1,8.475375366E0,5.638762689E1
8.859647125E0,1.769949371E1,-3.321293335E1,3.458557892E0,3.779328832E1
8.869570125E0,1.604648117E1,-2.579660568E1,8.143515472E0,3.145268298E1
8.879493125E0,1.394589935E1,-2.273741730E1,9.903405762E0,2.845269231E1
8.889416125E0,1.442565170E1,-1.903292084E1,8.076005859E0,2.521058058E1
8.899339125E0,1.406205780E1,-1.413076492E1,5.031486969E0,2.056054104E1
8.909262125E0,1.193228668E1,-9.905351715E0,1.128952332E0,1.554895467E1
8.919184708E0,9.550140381E0,-7.119195557E0,-2.083068237E0,1.209244805E1
8.929107708E0,7.744445343E0,-5.464087372E0,-3.745810547E0,1.019135816E1
8.939030708E0,5.969436493E0,-4.126618652E0,-4.233197021E0,8.401375516E0
8.948954708E0,4.857997742E0,-2.780767365E0,-3.898493042E0,6.821367692E0
8.958877708E0,4.537663879E0,-1.216071167E0,-2.990630951E0,5.568940299E0
8.968800708E0,4.600832520E0,6.403683472E-1,-1.321901093E0,4.829612199E0
8.978723708E0,4.074227600E0,2.700234833E0,1.188378754E0,5.030193113E0
8.988646708E0,2.361489258E0,4.681365051E0,3.337759094E0,6.215500465E0
8.998569708E0,4.014651489E-1,6.508914642E0,4.291425934E0,7.806630556E0
9.008492708E0,-8.970845032E-1,8.206235046E0,4.307742004E0,9.311481913E0
9.018415708E0,-1.530417480E0,9.423354034E0,3.144810333E0,1.005144820E1
9.028338708E0,-1.741927643E0,9.711804199E0,6.673123169E-1,9.889325480E0
9.038261708E0,-1.874551849E0,8.106841736E0,-2.125280457E0,8.587877770E0
9.048184708E0,-9.909393311E-1,4.774321747E0,-3.129841461E0,5.794136387E0
9.058107708E0,-7.622149658E-1,2.372715912E0,-2.315684509E0,3.401932862E0
9.068030708E0,-9.312135315E-1,1.048419800E0,-7.658074951E-1,1.597749617E0
9.077954708E0,-9.123527527E-1,2.251318359E-1,3.860472107E-1,1.015925360E0
9.087877708E0,-9.496252441E-1,-5.264552307E-1,5.390290833E-1,1.212227523E0
9.097800708E0,-6.864724731E-1,-1.475182343E0,-1.496887207E-1,1.633956582E0
9.107723708E0,-7.704478455E-1,-2.405497742E0,-4.812492371E-1,2.571305135E0
9.117646708E0,-1.261875916E0,-2.985092468E0,-5.777984619E-2,3.241364895E0
9.127569708E0,-1.698368225E0,-3.316652985E0,4.843927002E-1,3.757562765E0
9.137492708E0,-1.761087799E0,-3.675307159E0,5.213658142E-1,4.108665874E0
9.147415708E0,-1.443148956E0,-3.964954834E0,6.120771790E-1,4.263588186E0
9.157338708E0,-8.069718933E-1,-3.990401917E0,1.015338593E0,4.195881737E0
9.167261708E0,7.274871826E-2,-3.704646149E0,1.610201569E0,4.040104523E0
9.177184708E0,1.248703308E0,-3.002007294E0,2.538421326E0,4.124910977E0
9.187107708E0,3.127596130E0,-1.705702972E0,3.773053894E0,5.189144040E0
9.197030708E0,6.342909851E0,-7.072792053E-1,5.853278046E0,8.659885284E0
9.206954708E0,1.001806732E1,-1.329535217E0,6.906637573E0,1.224054653E1
9.216877708E0,1.648012939E1,-4.424499207E0,7.675289154E0,1.871044953E1
9.226800708E0,2.549588104E1,-2.054657318E1,1.085437820E1,3.449665413E1
9.236723708E0,2.834730148E1,-5.600947769E1,1.260349091E1,6.402717451E1
9.246646708E0,2.552342377E1,-7.884748581E1,8.639434204E0,8.332473224E1
9.256569708E0,2.337748627E1,-5.116749664E1,2.739303589E-2,5.625495825E1
9.266492708E0,1.991847931E1,-2.308514420E1,3.939657440E0,3.074395227E1
9.276415708E0,1.474643463E1,-1.549547699E1,6.629713440E0,2.239464761E1
9.286338708E0,1.404065231E1,-1.415187103E1,6.713688812E0,2.103542223E1
9.296261708E0,1.404005356E1,-1.476424759E1,3.986809387E0,2.076055779E1
9.306184708E0,1.104972198E1,-1.492591141E1,-6.671626282E-1,1.858290325E1
9.316107708E0,6.030509491E0,-1.429886536E1,-3.001558228E0,1.580613637E1
9.326031708E0,2.690505066E0,-1.231010101E1,-2.833906860E0,1.291543389E1
9.335954708E0,1.082399139E0,-1.030157776E1,-1.904040527E0,1.053183092E1
9.345877708E0,5.147795105E-1,-8.185278625E0,-2.769241333E-1,8.206124000E0
9.355800708E0,-1.260379028E-1,-5.777984619E0,2.020797729E0,6.122468071E0
9.365723708E0,-1.208137665E0,-3.485052795E0,3.767515411E0,5.272510026E0
9.375646708E0,-2.406545563E0,-1.295555878E0,4.631818085E0,5.378072642E0
9.385569708E0,-3.761677551E0,8.202941895E-1,3.837719421E0,5.436100709E0
9.395492708E0,-5.022805023E0,2.746338959E0,1.847158813E0,6.015225986E0
9.405415708E0,-4.726571045E0,4.965773621E0,6.815327454E-1,6.889402614E0
9.415338708E0,-2.827170868E0,7.401358795E0,4.043092346E-1,7.933251105E0
9.425261708E0,-8.208929443E-1,9.319020996E0,-3.667373657E-2,9.355178380E0
9.435184708E0,1.084195404E0,1.011820908E1,-1.693578186E0,1.031609624E1
9.445107708E0,2.614912262E0,9.257349243E0,-4.345313873E0,1.055547412E1
9.455031708E0,3.907025299E0,6.787934418E0,-4.611161041E0,9.088658124E0
9.464954708E0,3.988455963E0,4.700674896E0,-2.984942780E0,6.849380180E0
9.474877708E0,2.668800201E0,3.082539825E0,-1.144969025E0,4.235032510E0
9.484800708E0,1.470392303E0,1.231339417E0,2.130070496E-1,1.929668958E0
9.494723708E0,5.983058167E-1,-6.527925110E-1,6.279441833E-1,1.085551385E0
9.504646708E0,-2.267784119E-1,-2.282303925E0,2.674937439E-1,2.309089118E0
9.514569708E0,-8.436456299E-1,-3.650309143E0,-3.303630066E-1,3.761068266E0
9.524492708E0,-1.186732178E0,-4.672084351E0,-8.045768738E-1,4.887130997E0
9.534415708E0,-1.165476379E0,-5.417534180E0,-7.331753540E-1,5.589772614E0
9.544338708E0,-5.228627014E-1,-5.529950409E0,-4.303550720E-1,5.571260398E0
9.554261708E0,3.897894287E-1,-5.003495178E0,-7.694000244E-2,5.019244919E0
9.564184708E0,1.001118164E0,-4.313130798E0,5.369334412E-1,4.460227840E0
9.574107708E0,1.973496094E0,-3.393892365E0,1.650916901E0,4.258957481E0
9.584031708E0,3.963008881E0,-2.343825989E0,3.515289917E0,5.792773330E0
9.593954708E0,7.078480225E0,-2.105970612E0,5.434598694E0,9.169234290E0
9.603877708E0,1.343740677E1,-5.548212433E0,6.347101135E0,1.586292075E1
9.613800708E0,2.187940155E1,-2.170426575E1,9.548344116E0,3.226382245E1
9.623723708E0,3.053724747E1,-5.341567154E1,1.246293320E1,6.277803878E1
9.633646708E0,2.892135773E1,-6.930033920E1,1.186298080E1,7.602441884E1
9.643569708E0,1.723396179E1,-4.505660431E1,5.532944183E0,4.855636418E1
9.653492708E0,1.811083832E1,-2.709964600E1,-8.367599487E-1,3.260511378E1
9.663415708E0,1.541075317E1,-2.076541809E1,1.910776520E0,2.592961567E1
9.673338708E0,1.327903610E1,-1.965577560E1,4.301754456E0,2.410782872E1
9.683261708E0,1.330627945E1,-1.878473694E1,5.337001648E0,2.363063692E1
9.693184708E0,1.192779602E1,-1.560415100E1,5.247188416E0,2.032965402E1
9.703108708E0,8.147108002E0,-1.170416107E1,4.016298065E0,1.481530983E1
9.713031708E0,3.764521637E0,-8.580456848E0,2.202968903E0,9.625431672E0
9.722954708E0,8.250842285E-1,-6.703509979E0,8.354127502E-1,6.805565699E0
9.732877708E0,1.451980591E-1,-5.307363281E0,6.556365967E-2,5.309753861E0
9.742800708E0,5.173242188E-1,-3.730093231E0,-7.484436035E-3,3.765803484E0
9.752723708E0,5.774990845E-1,-2.091450806E0,4.134402466E-1,2.208756325E0
9.762646708E0,-3.876937866E-2,-5.544470215E-1,1.424138489E0,1.528752759E0
9.772569708E0,-1.531764679E0,1.095571747E0,2.519859924E0,3.145834472E0
9.782492708E0,-3.441343689E0,2.881657562E0,2.665656738E0,5.220394864E0
9.792415708E0,-4.240681458E0,5.119204559E0,2.271676025E0,7.024965944E0
9.802338708E0,-3.850143585E0,7.632478180E0,1.974394226E0,8.773628745E0
9.812261708E0,-2.694546661E0,9.703721008E0,1.563498688E0,1.019153135E1
9.822184708E0,-1.259480896E0,1.081007034E1,8.702902222E-1,1.091793561E1
9.832108708E0,3.965254211E-1,1.014036301E1,-7.213499451E-1,1.017371810E1
9.842031708E0,2.179916840E0,7.147337036E0,-2.325713654E0,7.825944552E0
9.851954708E0,3.495381317E0,4.071233826E0,-2.910846863E0,6.104560989E0
9.861877708E0,3.497177582E0,1.685794373E0,-2.971470795E0,4.888945938E0
9.871800708E0,2.773133240E0,-3.745211792E-1,-2.408940582E0,3.692360872E0
9.881723708E0,2.204615479E0,-1.835782471E0,-1.460512848E0,3.219242841E0
9.891646708E0,1.824106750E0,-2.716401215E0,-2.667453003E-1,3.282888066E0
9.901569708E0,1.396895142E0,-3.275338898E0,5.453160095E-1,3.602295169E0
9.911492708E0,8.601113892E-1,-3.847449188E0,4.270619202E-1,3.965480897E0
9.921415583E0,5.090913391E-1,-4.520898743E0,-4.019142151E-1,4.567191092E0
9.931338583E0,1.877096558E-1,-5.056035919E0,-1.099313965E0,5.177569442E0
9.941261583E0,-1.820214844E-1,-5.251080322E0,-9.931846619E-1,5.347278948E0
9.951184583E0,-1.802252197E-1,-5.249733124E0,5.194198608E-2,5.253082616E0
9.961107583E0,3.158432007E-1,-5.181475067E0,1.202449493E0,5.328538785E0
9.971031583E0,1.752256165E0,-4.801265717E0,1.713037720E0,5.390459385E0
9.980954583E0,4.374353485E0,-4.864134979E0,2.467468872E0,6.991650745E0
9.990877583E0,1.025831772E1,-7.843539276E0,3.330873413E0,1.333600047E1
1.000080058E1,2.054507629E1,-2.013627640E1,7.910599823E0,2.983533772E1
1.001072358E1,2.787518326E1,-4.446802826E1,1.522828262E1,5.464734184E1
1.002064658E1,2.490730499E1,-6.304065628E1,1.884116959E1,7.035259667E1
1.003056958E1,1.721255630E1,-4.577600830E1,1.251113297E1,5.048012954E1
1.004049258E1,2.112646729E1,-2.675087128E1,8.887019348E-1,3.409877601E1
1.005041558E1,1.996682877E1,-2.163555862E1,4.073030090E-1,2.944380315E1
1.006033858E1,1.910971115E1,-2.086256607E1,4.928351440E0,2.871787547E1
1.007026158E1,1.868070328E1,-1.883443359E1,5.580994263E0,2.710815487E1
1.008018458E1,1.488594452E1,-1.494462250E1,4.043691101E0,2.147753532E1
1.009010858E1,1.039737854E1,-1.078567108E1,2.026336212E0,1.511761289E1
1.010003158E1,6.252946930E0,-7.594008179E0,8.869056702E-1,9.876988772E0
1.010995458E1,2.888692932E0,-6.062243500E0,3.510200500E-1,6.724474565E0
1.011987758E1,1.091829529E0,-5.546565857E0,-9.193881226E-1,5.727281995E0
1.012980058E1,9.556127930E-1,-5.015919342E0,-3.084635468E0,5.965535904E0
1.013972358E1,1.666185150E0,-3.838168488E0,-4.411476288E0,6.080200106E0
1.014964658E1,2.303859100E0,-2.408790894E0,-4.177812195E0,5.344544420E0
1.015956958E1,2.504142609E0,-7.249424744E-1,-2.109114075E0,3.353301951E0
1.016949258E1,1.070723419E0,1.218615875E0,8.445437622E-1,1.828859606E0
1.017941558E1,-1.140927429E0,3.314108276E0,3.367996216E0,4.860908102E0
1.018933858E1,-2.812201996E0,5.737568665E0,5.337899780E0,8.325944289E0
1.019926158E1,-3.792663116E0,8.182584229E0,6.187832336E0,1.093746987E1
1.020918458E1,-4.102668457E0,1.009695328E1,4.906496887E0,1.195215736E1
1.021910758E1,-4.047583008E0,1.030352371E1,1.684746552E0,1.119749526E1
1.022903158E1,-3.320694580E0,8.064180450E0,-1.484163666E0,8.846511212E0
1.023895458E1,-1.487157440E0,4.553381195E0,-2.797532501E0,5.547170960E0
1.024887758E1,-4.417314148E-1,1.837728424E0,-3.249891815E0,3.759543751E0
1.025880058E1,1.857637024E-1,3.697311401E-2,-2.986589355E0,2.992589371E0
1.026872358E1,6.147715759E-1,-1.359922028E0,-2.531086578E0,2.938321167E0
1.027864658E1,1.017733612E0,-2.140399017E0,-2.027084656E0,3.118679506E0
1.028856958E1,1.170565796E0,-2.521506500E0,-1.024469604E0,2.962728014E0
1.029849258E1,6.957531738E-1,-2.652783508E0,1.128652954E-1,2.744826296E0
1.030841558E1,1.546284485E-1,-2.423759766E0,8.425978088E-1,2.570698821E0
1.031833858E1,-3.035687256E-1,-2.121837616E0,9.624984741E-1,2.349628088E0
1.032826158E1,-4.656816101E-1,-2.208208008E0,7.905061340E-1,2.391221846E0
1.033818458E1,-2.381547546E-1,-2.527044983E0,5.336402893E-1,2.593732058E0
1.034810758E1,4.182302856E-1,-2.815644836E0,3.013233948E-1,2.862440952E0
1.035803158E1,1.286125488E0,-3.021167450E0,2.345622253E-1,3.291897776E0
1.036795458E1,2.848875732E0,-2.825673981E0,3.706292725E-1,4.029626837E0
1.037787758E1,5.002597046E0,-2.980152740E0,3.049159241E-1,5.830974299E0
1.038780058E1,7.020850067E0,-4.446054382E0,8.062234497E-1,8.349235383E0
1.039772358E1,1.057954971E1,-7.357799377E0,2.143392792E0,1.306362187E1
1.040764658E1,1.561403046E1,-1.663550629E1,5.703439636E0,2.351738166E1
1.041756958E1,2.450883362E1,-3.928505630E1,1.246203506E1,4.795102598E1
1.042749258E1,3.386273209E1,-6.362773544E1,1.883278702E1,7.449729665E1
1.043741558E1,2.249671783E1,-5.118515991E1,1.729742981E1,5.852541317E1
1.044733858E1,1.818987396E1,-2.839580063E1,1.029514114E1,3.525879946E1
1.045726158E1,1.967044510E1,-2.062231567E1,7.834408264E0,2.955645897E1
1.046718458E1,2.048085983E1,-1.912258438E1,5.631139984E0,2.858056316E1
1.047710758E1,2.119756943E1,-2.006382706E1,2.275867310E0,2.927582070E1
1.048703158E1,1.719055206E1,-1.897963165E1,-1.405427399E0,2.564598846E1
1.049695458E1,1.086021606E1,-1.616862717E1,-2.140099640E0,1.959461211E1
1.050687758E1,5.323379974E0,-1.409229492E1,-7.707472229E-1,1.508393854E1
1.051680058E1,1.665586395E0,-1.222253311E1,5.372328186E-1,1.234719048E1
1.052672358E1,-5.237608337E-1,-1.003258713E1,5.565426636E-1,1.006165342E1
1.053664658E1,-9.636959839E-1,-7.920928345E0,1.279838562E-1,7.980363128E0
1.054656958E1,9.895921326E-1,-5.639522552E0,-6.268963623E-1,5.759905056E0
1.055649258E1,3.735332336E0,-3.276985474E0,-1.398541718E0,5.162098449E0
1.056641558E1,5.451363831E0,-1.003064117E0,-6.330335999E-1,5.578909999E0
1.057633858E1,4.721930695E0,1.320853271E0,2.006726990E0,5.297946400E0
1.058626158E1,1.485510864E0,3.757785645E0,4.528981934E0,6.069544697E0
1.059618458E1,-1.312470703E0,6.241420898E0,5.613027649E0,8.496116381E0
1.060610758E1,-2.666854248E0,8.791218567E0,6.011199646E0,1.097871380E1
1.061603058E1,-2.822380829E0,1.095017899E1,4.440665588E0,1.214873509E1
1.062595458E1,-2.855611725E0,1.166239792E1,8.367599487E-1,1.203603800E1
1.063587758E1,-3.063679047E0,1.082339264E1,-2.392923889E0,1.150034966E1
1.064580058E1,-1.237326965E0,8.931776276E0,-4.810995483E0,1.022023889E1
1.065572358E1,7.402107239E-1,6.155499573E0,-6.241420898E0,8.797353110E0
1.066564658E1,9.349557495E-1,3.727698212E0,-5.412893829E0,6.638470895E0
1.067556958E1,7.231462097E-1,2.074386292E0,-3.018173676E0,3.733013697E0
1.068549258E1,3.694317627E-1,7.806266785E-1,-5.574407959E-1,1.027909568E0
1.069541558E1,4.475692749E-2,-6.354286194E-1,1.414708099E0,1.551506274E0
1.070533858E1,-2.401007080E-1,-2.156565399E0,2.248773651E0,3.124964897E0
1.071526158E1,-6.276448059E-1,-3.632047119E0,1.926942902E0,4.159184202E0
1.072518458E1,-1.116378479E0,-5.260959778E0,3.191363525E-1,5.387564079E0
1.073510758E1,-1.202150116E0,-6.820716248E0,-9.035211182E-1,6.984531870E0
1.074503058E1,-1.129102020E0,-7.907755737E0,-8.786727905E-1,8.036139499E0
1.075495458E1,-1.380279694E0,-8.494236145E0,-7.933502197E-2,8.606016138E0
1.076487758E1,-6.315367126E-1,-8.356971588E0,9.967771912E-1,8.439868335E0
1.077480058E1,2.387535095E0,-7.218888245E0,1.595083008E0,7.768974264E0
1.078472358E1,6.096073151E0,-6.991511078E0,2.570155334E0,9.625436793E0
1.079464658E1,1.231923203E1,-9.752669220E0,5.138215027E0,1.653116113E1
1.080456958E1,2.244208145E1,-1.950309311E1,1.007120682E1,3.139182804E1
1.081449258E1,3.183220459E1,-3.887341232E1,1.139430542E1,5.151952669E1
1.082441558E1,2.983131546E1,-5.168018051E1,1.312485672E1,6.109836580E1
1.083433858E1,2.041963715E1,-4.039499817E1,8.794960785E0,4.610931352E1
1.084426158E1,1.971610016E1,-2.614807480E1,6.806944885E0,3.344818261E1
1.085418458E1,1.884655838E1,-2.144380737E1,8.926237793E0,2.991165924E1
1.086410758E1,1.834165833E1,-2.102916962E1,1.011566437E1,2.968112313E1
1.087403058E1,1.658536057E1,-2.062994980E1,9.514963531E0,2.812834060E1
1.088395458E1,1.268507126E1,-1.761836243E1,6.712042236E0,2.272375934E1
1.089387758E1,9.064250793E0,-1.399215317E1,2.984793091E0,1.693664614E1
1.090380058E1,4.786745911E0,-1.141915375E1,3.574566650E-1,1.238700061E1
1.091372358E1,1.003812561E0,-1.003902374E1,-1.317260742E0,1.017471441E1
1.092364746E1,-1.227896576E0,-9.181906128E0,-2.395767975E0,9.568429042E0
1.093357046E1,-1.471440125E0,-7.790399780E0,-3.213966522E0,8.554825865E0
1.094349346E1,-8.680448914E-1,-6.014792175E0,-3.532055054E0,7.028985684E0
1.095341646E1,-2.779719543E-1,-4.336931305E0,-3.156336365E0,5.371098658E0
1.096333946E1,1.766326904E-1,-2.555186462E0,-2.386187897E0,3.500581329E0
1.097326246E1,7.029382324E-1,-4.953199768E-1,-1.311123505E0,1.567963291E0
1.098318546E1,7.608677673E-1,1.890418854E0,-1.167572021E-2,2.037827158E0
1.099310846E1,6.526428223E-2,4.565505981E0,9.342073059E-1,4.660563011E0
1.100303146E1,-5.237608337E-1,7.072492676E0,1.615290985E0,7.273489055E0
1.101295446E1,-7.911048889E-1,9.482032013E0,2.751278687E0,9.904762110E0
1.102287846E1,-1.121467896E0,1.107756409E1,3.465593262E0,1.166106569E1
1.103280146E1,-1.604663086E0,1.120000946E1,3.084635468E0,1.172732414E1
1.104272446E1,-8.424481201E-1,8.783734131E0,1.260229340E0,8.913578524E0
1.105264746E1,-2.529739380E-2,4.831652527E0,-5.002597046E-1,4.857547310E0
1.106257046E1,-1.042881317E0,1.911974030E0,-1.274150391E0,2.523233114E0
1.107249346E1,-1.748813324E0,-2.915936279E-1,-1.281784515E0,2.187772024E0
1.108241646E1,-1.334175568E0,-1.987566833E0,-1.709445190E0,2.941538581E0
1.109233946E1,-6.331832886E-2,-3.308869171E0,-3.078498230E0,4.519930946E0
1.110226246E1,1.767225037E0,-4.079616394E0,-4.489164734E0,6.318144843E0
1.111218546E1,2.760858765E0,-3.527115326E0,-2.525548096E0,5.142108208E0
1.112210846E1,2.016307068E0,-2.626288605E0,1.175056458E-1,3.313109356E0
1.113203146E1,1.604513397E0,-2.438429260E0,1.259630585E0,3.179161793E0
1.114195446E1,1.462009735E0,-2.340832214E0,1.971999207E0,3.392012499E0
1.115187846E1,1.186732178E0,-2.319576416E0,2.458487549E0,3.582307781E0
1.116180146E1,8.541238403E-1,-2.304158478E0,2.733914795E0,3.675998358E0
1.117172446E1,1.784139862E0,-1.846410370E0,2.761457520E0,3.770680832E0
1.118164746E1,5.231321411E0,-1.074016571E0,3.362607422E0,6.310892486E0
1.119157046E1,1.031370255E1,-1.368903351E0,3.653302917E0,1.102692064E1
1.120149346E1,1.832294724E1,-9.716893616E0,2.634820862E0,2.090671418E1
1.121141646E1,2.540067902E1,-3.615641235E1,6.701863403E0,4.469223223E1
1.122133946E1,3.684108856E1,-7.298148422E1,1.462234268E1,8.305044101E1
1.123126246E1,2.773986465E1,-6.870742218E1,1.154309601E1,7.498968609E1
1.124118546E1,1.272878036E1,-3.705723907E1,1.941462708E0,3.923047406E1
1.125110846E1,1.555400528E1,-2.205049576E1,6.959028625E0,2.786717644E1
1.126103146E1,1.436936874E1,-1.663251251E1,9.193432159E0,2.382516370E1
1.127095446E1,1.271710464E1,-1.710927109E1,7.586074677E0,2.262742665E1
1.128087846E1,1.179277679E1,-1.725656479E1,4.196373596E0,2.131825894E1
1.129080146E1,8.874744873E0,-1.478250961E1,-1.731898499E-1,1.724278637E1
1.130072446E1,5.543721771E0,-1.138682098E1,-1.756896515E0,1.278589960E1
1.131064746E1,3.572171631E0,-8.294551392E0,-8.083190918E-1,9.067159020E0
1.132057046E1,2.088157654E0,-5.945785675E0,-3.348536682E-1,6.310697003E0
1.133049346E1,9.696835327E-1,-4.264781342E0,-6.227050781E-1,4.417737844E0
1.134041646E1,1.065035248E0,-2.827919312E0,-1.355131989E0,3.311768473E0
1.135033946E1,1.157842255E0,-1.623374176E0,-1.804048462E0,2.688965090E0
1.136026246E1,8.705895996E-1,-3.727249146E-1,-1.499282227E0,1.773329441E0
1.137018546E1,3.809577942E-1,1.287622375E0,-6.950047302E-1,1.511995965E0
1.138010846E1,-2.556683350E-1,3.280278625E0,5.016069031E-1,3.328243327E0
1.139003146E1,-8.162525940E-1,5.605094147E0,1.941313019E0,5.987657716E0
1.139995446E1,-1.215023346E0,8.096363525E0,2.885998535E0,8.680804779E0
1.140987746E1,-1.561702423E0,1.016655853E1,2.624043274E0,1.061524517E1
1.141980146E1,-1.546883240E0,1.070798264E1,5.679190063E-1,1.083403304E1
1.142972446E1,-1.412462769E0,8.650960236E0,-1.864223328E0,8.961556376E0
1.143964746E1,-5.822891235E-1,5.037474518E0,-2.448308716E0,5.631112298E0
1.144957046E1,1.601669312E-1,2.467768250E0,-2.265389099E0,3.353732451E0
1.145949346E1,5.647755432E-1,8.303233337E-1,-1.644480286E0,1.926842926E0
1.146941646E1,1.237027588E0,-6.185137939E-1,-1.265019379E0,1.874318702E0
1.147933946E1,1.409319305E0,-1.773811340E0,-9.231303406E-1,2.446376341E0
1.148926246E1,9.770182800E-1,-2.513123932E0,-3.366499329E-1,2.717294573E0
1.149918546E1,3.165916443E-1,-2.960543518E0,3.600013733E-1,2.999108064E0
1.150910846E1,-3.746708679E-1,-3.383863220E0,8.351133728E-1,3.505470425E0
1.151903146E1,-5.770500183E-1,-3.629652100E0,4.355941772E-1,3.700959791E0
1.152895446E1,-7.755372620E-1,-3.552712097E0,-1.068777466E-1,3.637945044E0
1.153887746E1,-9.030720520E-1,-3.381617889E0,-1.398092651E-1,3.502916686E0
1.154880046E1,-8.181985474E-1,-3.181334381E0,3.098556519E-2,3.285011022E0
1.155872446E1,-5.102888489E-1,-2.886746979E0,7.786807251E-1,3.033157843E0
1.156864746E1,5.284011841E-1,-2.333198090E0,2.472408600E0,3.440323447E0
1.157857046E1,2.698588257E0,-2.031425629E0,4.254452820E0,5.432258965E0
1.158849346E1,5.590424652E0,-2.414778442E0,5.717510376E0,8.353078930E0
1.159841646E1,7.656578064E0,-3.527414703E0,5.792504425E0,1.022834051E1
1.160833946E1,1.134236343E1,-8.600664825E0,5.839207306E0,1.538560969E1
1.161826246E1,1.680375641E1,-2.159753769E1,8.210576019E0,2.856979913E1
1.162818546E1,2.942416214E1,-4.385640015E1,1.091410400E1,5.392849727E1
1.163810846E1,3.900768311E1,-5.536401993E1,1.433254532E1,6.922568815E1
1.164803146E1,3.168371338E1,-4.653657669E1,1.586820190E1,5.849196949E1
1.165795446E1,2.415242477E1,-3.596990021E1,6.975045319E0,4.388421813E1
1.166787746E1,2.333347778E1,-2.923839844E1,-4.354444885E-1,3.741022241E1
1.167780046E1,2.087783432E1,-2.379646500E1,-1.836680603E0,3.171007896E1
1.168772446E1,1.693578186E1,-2.042053528E1,8.087681580E-1,2.654191165E1
1.169764746E1,1.005863297E1,-1.795067139E1,3.509601746E0,2.087390727E1
1.170757046E1,3.487597504E0,-1.609228592E1,3.966451721E0,1.693687520E1
1.171749346E1,2.571652222E-1,-1.373229355E1,2.656226349E0,1.398919435E1
1.172741646E1,-1.795665894E0,-1.085213287E1,2.382445679E0,1.125474350E1
1.173733946E1,-2.824626160E0,-8.612190857E0,2.402653656E0,9.376624600E0
1.174726246E1,-2.499502258E0,-6.454577637E0,2.628983002E0,7.404095869E0
1.175718546E1,-2.328857117E0,-4.255949707E0,2.774330750E0,5.588702397E0
1.176710846E1,-2.285297699E0,-2.182760925E0,2.291434937E0,3.903550294E0
1.177703146E1,-2.447111206E0,-1.181044006E-1,1.725910950E0,2.996843424E0
1.178695446E1,-3.050506439E0,1.945504303E0,1.307530975E0,3.847104597E0
1.179687746E1,-4.035458221E0,3.988156586E0,1.230291595E0,5.805508885E0
1.180680046E1,-4.496499481E0,5.989943848E0,4.571493530E-1,7.503793735E0
1.181672446E1,-3.215613098E0,8.336015167E0,-1.425635376E0,9.047748487E0
1.182664746E1,-6.165678406E-1,1.074121353E1,-3.337459717E0,1.126465540E1
1.183657046E1,1.643582153E0,1.190369614E1,-4.168531494E0,1.271911942E1
1.184649346E1,3.124153290E0,1.125704086E1,-4.059857483E0,1.236785129E1
1.185641646E1,4.440066833E0,8.811725922E0,-2.898422699E0,1.028404402E1
1.186633946E1,4.981490936E0,5.280269623E0,-1.078956299E0,7.338981260E0
1.187626246E1,4.031117249E0,2.081571350E0,3.866459656E-1,4.553278013E0
1.188618546E1,2.736758881E0,-3.522175598E-1,9.934840393E-1,2.932731989E0
1.189610846E1,1.821112976E0,-2.551593933E0,8.217910767E-1,3.240744458E0
1.190603146E1,1.032702484E0,-4.508474579E0,-3.071612549E-1,4.635425060E0
1.191595446E1,6.204597473E-1,-5.677393799E0,-3.647914124E-1,5.722835261E0
1.192587700E1,2.724334717E-1,-6.263724518E0,6.556365967E-2,6.269989109E0
1.193580000E1,-1.796264648E-1,-6.214626617E0,-2.368075562E-1,6.221730264E0
1.194572300E1,-3.511697388E-1,-5.882617035E0,-6.626719666E-1,5.930230813E0
1.195564600E1,-4.266128540E-1,-5.323529663E0,-1.159339142E0,5.464982511E0
1.196557000E1,-5.596861267E-1,-4.632566528E0,-1.571881256E0,4.923893976E0
1.197549300E1,-5.517526245E-1,-3.911066895E0,-1.703307953E0,4.301410605E0
1.198541600E1,-4.935237122E-1,-2.929707642E0,-1.334325256E0,3.256866041E0
1.199533900E1,-1.854643250E-1,-1.829794922E0,-2.124082947E-1,1.851395084E0
1.200526200E1,8.511300659E-1,-2.612068176E-1,1.218166809E0,1.508834572E0
1.201518500E1,2.433938599E0,9.449848938E-1,3.811374207E0,4.619916330E0
1.202510800E1,4.785847778E0,3.044668579E-1,5.904022522E0,7.606215943E0
1.203503100E1,7.824379120E0,-1.928739166E0,6.505022736E0,1.035646002E1
1.204495400E1,1.254601044E1,-8.415649567E0,6.935527496E0,1.662308868E1
1.205487700E1,2.478381180E1,-2.932851105E1,1.233779343E1,4.033137779E1
1.206480000E1,4.535807739E1,-6.829158691E1,2.229059647E1,8.495861768E1
1.207472300E1,4.688580048E1,-7.036268005E1,1.957823685E1,8.678993253E1
1.208464700E1,2.798430634E1,-4.785787903E1,6.123166809E0,5.577625981E1
1.209457000E1,2.009136978E1,-3.098167328E1,-1.827250214E0,3.697115176E1
1.210449300E1,1.967298981E1,-1.989258316E1,-3.352428589E0,2.817765374E1
1.211441600E1,1.516720963E1,-1.492546234E1,-1.156794434E0,2.131083873E1
1.212433900E1,1.038420593E1,-1.276036469E1,2.941533051E0,1.671260771E1
1.213426200E1,5.948929138E0,-1.114043335E1,4.634063416E0,1.345264126E1
1.214418500E1,6.568341064E-1,-1.014021332E1,2.448009338E0,1.045218192E1
1.215410800E1,-2.111359406E0,-9.336085510E0,-1.646575928E-1,9.573267118E0
1.216403100E1,-2.065404968E0,-8.289012909E0,-3.650907898E-1,8.550258708E0
1.217395400E1,-1.489702148E0,-6.529272308E0,4.102967834E-1,6.709616443E0
1.218387700E1,-1.255439301E0,-4.463717651E0,1.544488220E0,4.887366057E0
1.219380000E1,-1.173559570E0,-2.056872711E0,2.065704346E0,3.142467479E0
1.220372300E1,-1.631157990E0,8.093669128E-1,2.413431244E0,3.023309702E0
1.221364600E1,-3.119063873E0,3.659290466E0,2.982248383E0,5.657982996E0
1.222357000E1,-4.939129028E0,6.564149780E0,3.617377625E0,8.975994584E0
1.223349300E1,-5.805527344E0,9.756561127E0,3.999532928E0,1.203706345E1
1.224341600E1,-5.148992615E0,1.254915390E1,3.629203033E0,1.404152781E1
1.225333900E1,-3.893703003E0,1.391251877E1,1.892364807E0,1.457052319E1
1.226326200E1,-2.874472504E0,1.342932358E1,-1.125060425E0,1.377951686E1
1.227318500E1,-1.547931061E0,9.921518097E0,-3.034340057E0,1.048998720E1
1.228310800E1,3.920347595E-1,4.370760956E0,-2.984793091E0,5.307186861E0
1.229303100E1,1.503772888E0,8.710386658E-1,-2.613714752E0,3.138717264E0
1.230295400E1,2.611020355E0,-1.145867157E0,-2.304158478E0,3.666003973E0
1.231287700E1,3.554508362E0,-2.319576416E0,-1.967508545E0,4.678253341E0
1.232280000E1,3.740272064E0,-2.755469971E0,-1.651066589E0,4.930341850E0
1.233272300E1,3.438948669E0,-2.723735962E0,-1.383273468E0,4.599842500E0
1.234264600E1,3.196602631E0,-2.756817169E0,-8.384065247E-1,4.303630419E0
1.235256900E1,2.985541534E0,-2.970273285E0,-3.013233948E-1,4.222176859E0
1.236249200E1,2.504292297E0,-3.240461426E0,1.104702759E-1,4.096861463E0
1.237241500E1,1.929038544E0,-3.546724548E0,3.579057312E-1,4.053213693E0
1.238233900E1,1.418001251E0,-3.616180115E0,4.828958130E-1,3.914163325E0
1.239226200E1,1.048719177E0,-3.462749176E0,5.397775269E-1,3.658114753E0
1.240218500E1,1.271605682E0,-3.224145355E0,9.436376953E-1,3.592011468E0
1.241210800E1,2.101479950E0,-3.187022552E0,1.785936127E0,4.214605388E0
1.242203100E1,3.397634583E0,-3.243305511E0,2.938988342E0,5.540812564E0
1.243195400E1,6.000272369E0,-3.335813141E0,4.155059509E0,8.024676775E0
1.244187700E1,9.448651428E0,-5.777385864E0,5.349425812E0,1.229925029E1
1.245180000E1,1.458117828E1,-1.386147491E1,7.441924438E0,2.145072228E1
1.246172300E1,2.627560959E1,-3.686952942E1,1.649300262E1,4.818494572E1
1.247164600E1,3.992991531E1,-7.117773514E1,2.572939545E1,8.557260021E1
1.248156900E1,3.610117722E1,-6.351771423E1,1.754501495E1,7.513735800E1
1.249149200E1,2.490925095E1,-3.379252808E1,7.093748474E0,4.257613186E1
1.250141600E1,2.279654434E1,-2.213881210E1,1.243913269E-1,3.177774234E1
1.251133900E1,2.045526306E1,-1.845467331E1,-6.594985657E0,2.832819425E1
1.252126200E1,1.736943008E1,-1.676304108E1,-7.161557465E0,2.517904988E1
1.253118500E1,1.199291061E1,-1.558214676E1,-3.971092072E0,2.005997943E1
1.254110800E1,6.610403595E0,-1.356539063E1,-1.515897675E0,1.516625215E1
1.255103100E1,2.032174072E0,-1.090736801E1,1.744771729E0,1.123141295E1
1.256095400E1,-1.472487946E0,-8.397686920E0,6.401438141E0,1.066150912E1
1.257087700E1,-3.232677612E0,-5.813311157E0,9.515412598E0,1.160981774E1
1.258080000E1,-2.330653381E0,-3.244203644E0,6.829697571E0,7.912115480E0
1.259072300E1,6.613247681E-1,-1.012195129E0,1.738784180E0,2.117843208E0
1.260064600E1,2.123933258E0,4.984634399E-1,-5.896238708E-1,2.259914732E0
1.261056900E1,2.120640106E0,1.904190216E0,-1.138233032E0,3.068978539E0
1.262049200E1,1.847607880E0,3.647764435E0,-1.433868256E0,4.333107248E0
1.263041500E1,1.180145874E0,5.692063293E0,-1.027762756E0,5.903272406E0
1.264033900E1,4.550537109E-1,7.956853638E0,8.274792480E-1,8.012697149E0
1.265026200E1,-4.664300537E-1,9.955647125E0,3.142415314E0,1.045022682E1
1.266018500E1,-2.382894745E0,1.106738525E1,4.194577332E0,1.207309748E1
1.267010800E1,-3.783532104E0,1.071232361E1,3.493135986E0,1.188574740E1
1.268003100E1,-4.251608734E0,8.891060944E0,1.794318695E0,1.001732105E1
1.268995400E1,-3.322790222E0,6.159391479E0,-1.501228180E0,7.157703843E0
1.269987700E1,-2.227667542E0,2.357597351E0,-4.623285828E0,5.647613637E0
1.270980000E1,-2.692301331E0,-1.278940430E0,-4.516108704E0,5.411045454E0
1.271972300E1,-2.922821960E0,-3.459905090E0,-2.696642303E0,5.271215340E0
1.272964600E1,-1.959724731E0,-4.403093719E0,-1.361269226E0,5.008074404E0
1.273956900E1,-4.096980286E-1,-4.291425934E0,-7.837701416E-1,4.381607542E0
1.274949200E1,9.157955933E-1,-3.529061279E0,-7.316784668E-1,3.718643363E0
1.275941500E1,1.712139587E0,-2.804418182E0,-5.442681885E-1,3.330527161E0
1.276933800E1,2.066901855E0,-2.497705994E0,4.879852295E-2,3.242375642E0
1.277926200E1,2.609972534E0,-2.392923889E0,7.039860535E-1,3.610212976E0
1.278918500E1,3.580105133E0,-2.358345795E0,1.604513397E0,4.577489584E0
1.279910800E1,4.859045563E0,-2.097887421E0,2.698737946E0,5.940929381E0
1.280903100E1,6.657705231E0,-1.824406128E0,3.662284241E0,7.814462395E0
1.281895400E1,9.391320648E0,-2.379751282E0,4.281845856E0,1.059218219E1
1.282887700E1,1.368993164E1,-5.103636932E0,4.711302795E0,1.535114694E1
1.283880000E1,1.806578201E1,-1.447355209E1,4.937183075E0,2.366921982E1
1.284872300E1,2.327375198E1,-3.647255493E1,8.277037811E0,4.405024574E1
1.285864600E1,3.035881851E1,-6.389897141E1,1.479673004E1,7.227502769E1
1.286856900E1,2.218566467E1,-5.846452240E1,1.442595108E1,6.417485614E1
1.287849200E1,1.269135818E1,-3.213727020E1,6.565796356E0,3.517078888E1
1.288841500E1,1.501901779E1,-2.097992203E1,3.931723938E0,2.609954936E1
1.289833800E1,1.472682541E1,-1.908561127E1,4.108356628E0,2.445441756E1
1.290826200E1,1.388258102E1,-1.990470795E1,4.105961609E0,2.461264665E1
1.291818438E1,1.125734024E1,-1.802042633E1,2.976709900E0,2.145516899E1
1.292810738E1,6.756350098E0,-1.548844162E1,2.948867798E0,1.715330615E1
1.293803038E1,3.398083649E0,-1.273282196E1,4.118685150E0,1.380707409E1
1.294795338E1,1.206491089E0,-9.880952454E0,4.522395630E0,1.093347632E1
1.295787638E1,7.307803345E-1,-7.145989838E0,3.154240723E0,7.845281715E0
1.296779938E1,1.368005219E0,-4.840184784E0,1.965412903E-1,5.033632436E0
1.297772238E1,2.783611450E0,-3.050656128E0,-3.190166016E0,5.218443707E0
1.298764538E1,4.258195038E0,-1.779499512E0,-5.493576050E0,7.174832493E0
1.299756838E1,4.606371002E0,-9.366023254E-1,-5.375321960E0,7.140725727E0
1.300749137E1,3.457360382E0,2.013313293E-1,-2.485730896E0,4.262948886E0
1.301741438E1,1.676663361E0,1.879491577E0,1.346450043E0,2.855979049E0
1.302733738E1,-9.280700684E-2,3.791166229E0,2.814746704E0,4.722748514E0
1.303726038E1,-1.723216553E0,5.805826721E0,3.121159515E0,6.813129672E0
1.304718438E1,-2.951262817E0,7.667205963E0,3.114273834E0,8.786051503E0
1.305710738E1,-3.824097748E0,8.916208649E0,2.638862457E0,1.005415811E1
1.306703038E1,-3.785627747E0,8.948990479E0,1.428030396E0,9.821134295E0
1.307695338E1,-2.013163605E0,7.402406616E0,-7.951464844E-1,7.712373781E0
1.308687638E1,-3.098556519E-2,4.952750702E0,-2.857258301E0,5.717921355E0
1.309679938E1,1.010398865E0,2.743045807E0,-3.671564941E0,4.693143433E0
1.310672237E1,1.802252197E0,1.134191437E0,-3.162323914E0,3.812452719E0
1.311664538E1,1.857337646E0,-1.609153748E-1,-1.973496094E0,2.714826647E0
1.312656838E1,1.438508606E0,-1.054257660E0,-4.698728943E-1,1.844328268E0
1.313649138E1,9.722282410E-1,-1.579216003E0,1.048719177E0,2.130484182E0
1.314641438E1,4.957690430E-1,-2.199376373E0,1.984123993E0,3.003296754E0
1.315633738E1,3.080593872E-1,-2.968626709E0,1.992805939E0,3.588721309E0
1.316626038E1,2.155517578E-1,-3.685186615E0,1.486858063E0,3.979674591E0
1.317618338E1,8.292755127E-2,-4.468807068E0,1.306483154E0,4.656609477E0
1.318610738E1,-6.556365967E-2,-5.244344330E0,1.679657135E0,5.507149366E0
1.319603038E1,5.486091614E-1,-5.702092438E0,2.121238861E0,6.108558299E0
1.320595337E1,2.930755463E0,-6.170618134E0,2.429148560E0,7.250284026E0
1.321587638E1,7.702532501E0,-8.958869934E0,2.546205139E0,1.208608779E1
1.322579938E1,1.427431641E1,-1.782882477E1,3.245850220E0,2.306856400E1
1.323572238E1,1.938843155E1,-3.416465424E1,1.070903046E1,4.071631381E1
1.324564538E1,2.629521881E1,-5.290014359E1,1.590757004E1,6.117936342E1
1.325556838E1,2.627845367E1,-5.038133148E1,1.278581177E1,5.824356335E1
1.326549138E1,2.117751114E1,-3.164688995E1,2.272274780E0,3.814676729E1
1.327541438E1,1.810170731E1,-2.266781204E1,2.782114563E0,2.914175135E1
1.328533738E1,1.548185532E1,-1.910028076E1,5.634283447E0,2.522407023E1
1.329526038E1,1.404080200E1,-1.737317230E1,6.220614166E0,2.318765355E1
1.330518338E1,1.203766754E1,-1.575009750E1,5.969586182E0,2.070282518E1
1.331510738E1,9.457782440E0,-1.342992233E1,4.917723541E0,1.714632519E1
1.332503038E1,6.525679779E0,-1.073462723E1,3.528013458E0,1.304850939E1
1.333495338E1,3.736230469E0,-8.259673920E0,2.288441162E0,9.349791138E0
1.334487638E1,1.941013641E0,-6.035598907E0,1.868115234E-1,6.342782250E0
1.335479938E1,1.664089508E0,-4.213138733E0,-2.244282990E0,5.055347467E0
1.336472238E1,2.262245636E0,-2.730921021E0,-3.887715454E0,5.262130404E0
1.337464538E1,2.709814911E0,-1.506167908E0,-4.684508514E0,5.617495762E0
1.338456838E1,2.912643127E0,-2.891986084E-1,-4.143832855E0,5.073310217E0
1.339449138E1,2.110910339E0,9.392967224E-1,-2.274220734E0,3.241959398E0
1.340441438E1,6.123765564E-1,2.437980194E0,-6.920109558E-1,2.607226810E0
1.341433738E1,-1.196312256E0,4.059558105E0,-6.212081909E-2,4.232615506E0
1.342426038E1,-2.529140625E0,5.669310608E0,9.111552429E-1,6.274379567E0
1.343418338E1,-2.985092468E0,6.830296326E0,1.827549591E0,7.674872145E0
1.344410638E1,-2.970123596E0,6.970554657E0,1.555415497E0,7.734958550E0
1.345402938E1,-2.266885986E0,5.410199432E0,-1.815724182E-1,5.868730571E0
1.346395338E1,-1.059347076E0,2.653681641E0,-1.686991882E0,3.318159744E0
1.347387638E1,-5.822891235E-1,6.730004883E-1,-1.998943176E0,2.188095999E0
1.348379938E1,-1.703457642E-1,-6.164181519E-1,-1.892364807E0,1.997506841E0
1.349372238E1,4.614903259E-1,-1.522483978E0,-1.594484253E0,2.252401123E0
1.350364538E1,1.062939606E0,-1.899998932E0,-1.047671356E0,2.416081914E0
1.351356838E1,1.265468445E0,-1.725761261E0,-5.046006775E-1,2.198700561E0
1.352349138E1,1.019529877E0,-1.308878174E0,-3.143463135E-2,1.659394884E0
1.353341438E1,4.751119995E-1,-9.586065674E-1,7.361691284E-1,1.298692785E0
1.354333738E1,-8.502319336E-2,-8.289761353E-1,1.168619843E0,1.435305791E0
1.355326038E1,-3.339555359E-1,-6.361770630E-1,1.532812500E0,1.692856082E0
1.356318338E1,-3.953279114E-1,-5.716612244E-1,2.097438354E0,2.209599141E0
1.357310637E1,3.728746033E-1,-6.023474121E-1,3.069666595E0,3.150350914E0
1.358302938E1,2.698737946E0,-1.171763306E0,4.148772583E0,5.086111451E0
1.359295238E1,5.509143677E0,-2.158361664E0,5.064418488E0,7.788294020E0
1.360287638E1,9.835746460E0,-2.900218964E0,5.420677643E0,1.159900533E1
1.361279938E1,1.886422165E1,-1.306393341E1,6.157894592E0,2.375804875E1
1.362272238E1,2.879561920E1,-4.930192612E1,1.044243484E1,5.804232981E1
1.363264538E1,3.731156021E1,-7.905630157E1,1.340956467E1,8.844132387E1
1.364256838E1,2.253728348E1,-5.627427704E1,9.823921051E0,6.141036417E1
1.365249138E1,1.669508240E1,-2.981859192E1,2.052232361E-1,3.417479066E1
1.366241438E1,1.670166870E1,-2.045152084E1,3.190166016E0,2.659675923E1
1.367233737E1,1.511137573E1,-1.924742477E1,7.202123108E0,2.550857923E1
1.368226038E1,1.806024353E1,-1.886586823E1,9.566306763E0,2.781380243E1
1.369218338E1,1.767973480E1,-1.503039413E1,8.470136261E0,2.470281318E1
1.370210638E1,1.147393982E1,-1.029020142E1,5.174439697E0,1.625774789E1
1.371202938E1,4.170327759E0,-6.685996399E0,1.507365417E-1,7.881427724E0
1.372195238E1,4.429289246E-1,-4.550387421E0,-3.024310913E0,5.481666554E0
1.373187638E1,-1.437011719E-2,-3.554658051E0,-1.696272583E0,3.938672496E0
1.374179938E1,-7.569758606E-1,-3.026256866E0,-2.142644348E0,3.784464015E0
1.375172238E1,-5.023553467E-1,-2.260599060E0,-3.149151306E0,3.908941411E0
1.376164538E1,1.740879822E-1,-8.280780029E-1,-2.641706543E0,2.773920198E0
1.377156837E1,-2.658471680E-1,5.682183838E-1,-9.050180054E-1,1.101183199E0
1.378149138E1,-1.168470154E0,1.890867920E0,1.190624084E0,2.521564931E0
1.379141438E1,-2.222578125E0,3.416495361E0,2.796484680E0,4.942936439E0
1.380133738E1,-3.167413330E0,5.250631256E0,3.693718872E0,7.158574921E0
1.381126038E1,-3.418441315E0,7.234904938E0,3.791465607E0,8.854648606E0
1.382118338E1,-3.086880798E0,8.844807129E0,2.686164093E0,9.745507875E0
1.383110638E1,-2.692600708E0,9.190288696E0,2.932402039E-1,9.581100913E0
1.384102938E1,-2.213297424E0,7.506739655E0,-1.741179199E0,8.017576363E0
1.385095238E1,-9.978250122E-1,4.520150299E0,-2.111209717E0,5.087692989E0
1.386087538E1,-3.267704773E-1,2.154769135E0,-1.596430206E0,2.701554806E0
1.387079838E1,4.805007935E-2,5.522016907E-1,-1.078357544E0,1.212472890E0
1.388072238E1,5.113366699E-1,-6.077362061E-1,-8.976832581E-1,1.198600733E0
1.389064538E1,8.476872253E-1,-1.692380676E0,-8.782237244E-1,2.086624762E0
1.390056838E1,9.023236084E-1,-2.992576904E0,-7.806266785E-1,3.221658336E0
1.391049138E1,9.891430664E-1,-4.093537445E0,-5.387297058E-1,4.245666322E0
1.392041458E1,9.288185120E-1,-4.767735443E0,-5.505551147E-1,4.888467655E0
1.393033758E1,6.857240295E-1,-5.133125610E0,-5.514532471E-1,5.208003136E0
1.394026058E1,6.060896301E-1,-5.021457825E0,-2.618055725E-1,5.064674272E0
1.395018358E1,7.827223206E-1,-4.508175201E0,5.084925842E-1,4.603787852E0
1.396010658E1,1.129251709E0,-3.968547363E0,2.082768860E0,4.621958862E0
1.397002958E1,1.609602814E0,-3.597169647E0,3.339255981E0,5.165373287E0
1.397995258E1,3.179538116E0,-3.358266449E0,3.349883881E0,5.710441155E0
1.398987558E1,6.051166534E0,-3.691623230E0,3.380869446E0,7.853341754E0
1.399979858E1,1.216131042E1,-6.607858887E0,4.595443726E0,1.458353089E1
1.400972258E1,2.200469101E1,-1.804422684E1,8.146359558E0,2.960006288E1
1.401964558E1,2.921908859E1,-4.380281158E1,1.210727280E1,5.402802509E1
1.402956858E1,3.220642639E1,-7.031777344E1,1.625679382E1,7.903243959E1
1.403949158E1,2.724065277E1,-5.392850510E1,8.183781738E0,6.096975569E1
1.404941458E1,2.110955246E1,-2.928016159E1,5.526956635E0,3.651695931E1
1.405933758E1,1.726509705E1,-2.064282303E1,9.200168152E0,2.844033777E1
1.406926058E1,1.448911972E1,-1.711061829E1,8.793463898E0,2.408387128E1
1.407918358E1,1.320479050E1,-1.484986954E1,6.474037170E0,2.089971949E1
1.408910658E1,1.163530426E1,-1.251412674E1,1.960173798E0,1.719959170E1
1.409902958E1,8.258626099E0,-1.044438080E1,-2.072440338E0,1.347534802E1
1.410895258E1,4.978646851E0,-9.074130249E0,-4.078867950E0,1.112492373E1
1.411887558E1,3.471880188E0,-7.910001068E0,-5.066514130E0,1.001457110E1
1.412879858E1,2.829266510E0,-6.760391693E0,-4.608616333E0,8.657192925E0
1.413872158E1,2.080822906E0,-5.229076080E0,-2.097288666E0,6.005970394E0
1.414864558E1,8.343649292E-1,-3.143014069E0,1.066232758E0,3.422214862E0
1.415856858E1,-1.007255402E0,-8.161029053E-1,3.219355316E0,3.470567108E0
1.416849158E1,-2.999761963E0,1.868264923E0,4.101021881E0,5.413627816E0
1.417841458E1,-4.774621124E0,4.602928162E0,3.758534088E0,7.623026501E0
1.418833758E1,-5.997428284E0,7.184908905E0,2.505639496E0,9.688668189E0
1.419826058E1,-5.869893494E0,9.705068207E0,1.443298645E0,1.143359565E1
1.420818358E1,-5.008734283E0,1.142514130E1,6.831793213E-1,1.249351859E1
1.421810658E1,-3.441643066E0,1.115285751E1,-1.023272095E0,1.171657900E1
1.422802958E1,-4.317022705E-1,7.987689514E0,-2.825973358E0,8.483847950E0
1.423795258E1,1.799258423E0,3.573219452E0,-4.283043365E0,5.860860738E0
1.424787558E1,2.922971649E0,5.625302124E-1,-5.578150177E0,6.322654735E0
1.425779858E1,4.026177521E0,-1.297651520E0,-5.460794220E0,6.907552273E0
1.426772158E1,4.406536560E0,-2.355501709E0,-3.973187714E0,6.383742896E0
1.427764458E1,3.887565765E0,-3.125799866E0,-2.005978546E0,5.376592072E0
1.428756858E1,2.753823395E0,-3.555705872E0,-1.556762695E-2,4.497424806E0
1.429749158E1,1.336121521E0,-3.786675568E0,1.447190552E0,4.268312672E0
1.430741458E1,-1.746867371E-1,-3.870201874E0,2.314636688E0,4.512928207E0
1.431733758E1,-1.375489655E0,-3.478167114E0,2.728825378E0,4.629914277E0
1.432726058E1,-2.030377808E0,-2.402204590E0,2.962788849E0,4.321011305E0
1.433718358E1,-1.827848969E0,-8.000862122E-1,3.234623566E0,3.800520939E0
1.434710658E1,-5.595364380E-1,6.924600220E-1,4.046086121E0,4.142872772E0
1.435702958E1,1.346300354E0,1.457070007E0,5.877228241E0,6.203014545E0
1.436695258E1,4.426894226E0,4.942721558E-1,6.343358917E0,7.751122487E0
1.437687558E1,6.917115784E0,-1.579365692E0,6.115382996E0,9.366898950E0
1.438679858E1,1.249092499E1,-5.926026764E0,6.121071167E0,1.511980531E1
1.439672158E1,2.435121140E1,-2.544693283E1,6.455176392E0,3.580778113E1
1.440664458E1,4.075065857E1,-6.855608688E1,1.253223907E1,8.073171768E1
1.441656858E1,3.685605743E1,-7.605504272E1,1.399529663E1,8.566566886E1
1.442649158E1,1.875390106E1,-4.351930115E1,4.726571045E0,4.762330156E1
1.443641458E1,1.605920471E1,-2.185305634E1,4.057312775E0,2.742108521E1
1.444633758E1,1.112756012E1,-1.461201416E1,5.890700226E0,1.928818035E1
1.445626058E1,8.417595520E0,-1.233135681E1,6.541397095E0,1.630055677E1
1.446618358E1,7.477849731E0,-1.207089844E1,6.592890015E0,1.565538324E1
1.447610658E1,4.949307861E0,-1.178259796E1,4.480333099E0,1.354247569E1
1.448602958E1,2.502795410E0,-1.100631226E1,2.000889130E0,1.146326531E1
1.449595258E1,1.212927704E0,-9.574240265E0,5.822891235E-1,9.668315825E0
1.450587558E1,3.832031250E-1,-8.045619049E0,-1.002914429E-2,8.054745874E0
1.451579858E1,5.604345703E-1,-6.264772339E0,1.761836243E-1,6.292257149E0
1.452572158E1,7.249424744E-1,-4.178560638E0,1.210532684E0,4.410362795E0
1.453564458E1,2.649490356E-2,-2.135908356E0,2.383044434E0,3.200266748E0
1.454556758E1,-1.355131989E0,-2.619552612E-2,2.429897003E0,2.782349431E0
1.455549158E1,-2.900218964E0,2.245779877E0,1.874851227E0,4.119449528E0
1.456541458E1,-4.075425110E0,4.544549561E0,4.824467468E-1,6.123297755E0
1.457533758E1,-4.177213440E0,6.856342163E0,-1.119821320E0,8.106327144E0
1.458526058E1,-2.182162170E0,9.316775665E0,-2.345472565E0,9.852176515E0
1.459518358E1,5.173242188E-1,1.105526047E1,-3.916006622E0,1.173974089E1
1.460510658E1,2.473456421E0,1.042177780E1,-4.859644318E0,1.176212490E1
1.461502958E1,4.117936707E0,6.886878662E0,-4.280199280E0,9.094317253E0
1.462495258E1,4.910538483E0,3.230731659E0,-2.979104919E0,6.589846839E0
1.463487558E1,4.287384338E0,8.939410400E-1,-1.623374176E0,4.670774964E0
1.464479858E1,2.852917328E0,-6.926097107E-1,-2.324665833E-1,2.944976435E0
1.465472158E1,1.513352966E0,-1.775308228E0,7.542814636E-1,2.451713081E0
1.466464458E1,4.237687683E-1,-2.471510468E0,1.048569489E0,2.717984903E0
1.467456758E1,-5.046006775E-1,-2.974763947E0,8.138575745E-1,3.125093044E0
1.468449058E1,-1.240021362E0,-3.459755402E0,4.793032837E-1,3.706385309E0
1.469441458E1,-1.657802582E0,-3.827241211E0,2.049238586E-1,4.175892536E0
1.470433758E1,-1.502575378E0,-3.894601135E0,1.007405090E-1,4.175619645E0
1.471426058E1,-1.088985443E0,-3.669768677E0,3.417393494E-1,3.843159796E0
1.472418358E1,-2.794688416E-1,-3.234324188E0,8.045768738E-1,3.344592611E0
1.473410658E1,7.773335266E-1,-2.802023163E0,1.247805176E0,3.164269106E0
1.474402958E1,2.180365906E0,-2.708018646E0,1.615141296E0,3.833541689E0
1.475395258E1,3.712729340E0,-3.069367218E0,2.064057770E0,5.240773678E0
1.476387558E1,5.536686401E0,-4.207151184E0,3.079096985E0,7.604988865E0
1.477379858E1,8.922046509E0,-7.239694977E0,3.789369965E0,1.209857107E1
1.478372158E1,1.509461060E1,-1.560160629E1,5.468578033E0,2.238666419E1
1.479364458E1,2.527179703E1,-3.712699402E1,1.269345383E1,4.667120290E1
1.480356758E1,3.261777100E1,-6.507791977E1,2.292422882E1,7.631890259E1
1.481349058E1,2.940979202E1,-5.799120667E1,2.023746597E1,6.809897904E1
1.482341458E1,2.300446198E1,-3.527175201E1,8.104446716E0,4.288337460E1
1.483333758E1,2.403940979E1,-2.617022873E1,2.218237152E0,3.560470012E1
1.484326058E1,2.270343796E1,-2.083861588E1,-3.745211792E-1,3.081938145E1
1.485318358E1,2.047053131E1,-1.708786560E1,-1.469943237E0,2.670577720E1
1.486310658E1,1.694700851E1,-1.374875931E1,-1.656455383E0,2.188545920E1
1.487302958E1,1.095811249E1,-1.085797073E1,-1.159788208E0,1.546999892E1
1.488295258E1,5.201233978E0,-8.891809387E0,6.468049622E-1,1.032160190E1
1.489287558E1,1.585652618E0,-7.633076935E0,2.249671783E0,8.114134634E0
1.490279858E1,8.422984314E-1,-6.128854980E0,6.800358582E-1,6.223727082E0
1.491272158E1,1.944456482E0,-4.202959900E0,-1.429826660E0,4.846667640E0
1.492264446E1,3.111429749E0,-2.224224701E0,-8.991801453E-1,3.928956036E0
1.493256746E1,3.572321320E0,-3.592529297E-1,6.114784241E-1,3.642039009E0
1.494249046E1,2.630629578E0,1.343306580E0,2.088157654E0,3.617331465E0
1.495241346E1,6.087840271E-1,2.929258575E0,3.839515686E0,4.867551181E0
1.496233746E1,-1.667083282E0,4.427492981E0,4.875211945E0,6.793346176E0
1.497226046E1,-4.001029816E0,5.730383606E0,4.750970306E0,8.450873015E0
1.498218346E1,-5.353916473E0,6.864425354E0,3.999981995E0,9.580428644E0
1.499210646E1,-5.683680725E0,7.584577789E0,3.016826477E0,9.946420905E0
1.500202946E1,-5.610183563E0,7.630831604E0,9.764195251E-1,9.521404606E0
1.501195246E1,-4.818330231E0,6.950795746E0,-1.999392242E0,8.690652280E0
1.502187546E1,-2.962489471E0,5.799839172E0,-4.355043640E0,7.834595293E0
1.503179846E1,-1.525178375E0,4.323159943E0,-5.089566193E0,6.849785763E0
1.504172146E1,-1.052162018E0,2.572400665E0,-4.426744537E0,5.226887917E0
1.505164446E1,-1.812730408E-1,1.145418091E0,-3.197201385E0,3.401020320E0
1.506156746E1,6.093827820E-1,1.609153748E-1,-1.696571960E0,1.809861196E0
1.507149046E1,1.037492523E0,-5.542973328E-1,2.155517578E-2,1.176478174E0
1.508141346E1,1.171164551E0,-1.247805176E0,1.364861755E0,2.188947641E0
1.509133646E1,1.158291321E0,-1.910926208E0,1.939067688E0,2.958591093E0
1.510125946E1,1.147663422E0,-2.567460938E0,1.801653442E0,3.339901514E0
1.511118346E1,1.206790466E0,-3.247347107E0,1.277443542E0,3.692352701E0
1.512110646E1,1.411564636E0,-3.676055603E0,8.279283142E-1,4.023849502E0
1.513102946E1,2.139201508E0,-3.742966461E0,5.771997070E-1,4.349613836E0
1.514095246E1,2.867736511E0,-3.807781677E0,6.334826660E-1,4.808785116E0
1.515087546E1,3.150498505E0,-4.140988770E0,1.358125763E0,5.377539810E0
1.516079846E1,4.370760956E0,-4.490362244E0,2.183659058E0,6.635907722E0
1.517072146E1,7.208260345E0,-5.093009033E0,2.403701477E0,9.147433466E0
1.518064446E1,1.274509644E1,-7.958500214E0,1.290765839E0,1.508115663E1
1.519056746E1,1.999661682E1,-1.792507462E1,7.000791779E0,2.775219036E1
1.520049046E1,2.622651169E1,-4.164864120E1,1.437580536E1,5.127477947E1
1.521041346E1,3.246299286E1,-7.205086945E1,1.692545334E1,8.081859108E1
1.522033646E1,3.106385239E1,-6.249459183E1,1.346914078E1,7.107710381E1
1.523025946E1,2.350816452E1,-3.081776413E1,8.366551666E0,3.965309032E1
1.524018346E1,1.603779922E1,-1.990051666E1,7.074288940E0,2.651956130E1
1.525010646E1,1.137694153E1,-1.616698059E1,6.687343597E0,2.086927465E1
1.526002946E1,9.844727783E0,-1.490794876E1,6.603068848E0,1.904642013E1
1.526995246E1,7.732021179E0,-1.333262466E1,5.025349731E0,1.621102008E1
1.527987546E1,3.632795563E0,-1.223031693E1,1.963317261E0,1.290862000E1
1.528979846E1,2.380350037E0,-1.220831268E1,-5.051994324E-1,1.244846140E1
1.529972146E1,3.635789337E0,-1.126572281E1,-2.738854523E0,1.215058841E1
1.530964446E1,4.956193542E0,-9.027277679E0,-3.519630890E0,1.088317042E1
1.531956746E1,5.911207581E0,-6.055956573E0,-1.418300629E0,8.580708698E0
1.532949046E1,4.954546967E0,-3.442092133E0,2.184407501E0,6.416164744E0
1.533941346E1,2.436333618E0,-1.121617584E0,4.076173553E0,4.879440372E0
1.534933646E1,2.724334717E-1,1.139280853E0,4.088298340E0,4.252806623E0
1.535925946E1,-1.305585022E0,3.072959747E0,2.974763947E0,4.471784252E0
1.536918246E1,-2.505340118E0,5.136269073E0,1.228046265E0,5.845176365E0
1.537910646E1,-2.746039581E0,7.560178528E0,-1.541793823E-2,8.043461349E0
1.538902946E1,-2.121987305E0,1.001327728E1,-9.493258667E-1,1.027958033E1
1.539895246E1,-1.111588440E0,1.148681305E1,-2.110461273E0,1.173186045E1
1.540887546E1,4.927752686E-1,1.091694809E1,-3.092868347E0,1.135730680E1
1.541879846E1,2.270777893E0,7.911048889E0,-2.665357361E0,8.651315312E0
1.542872146E1,2.681972809E0,4.805307312E0,-1.606758728E0,5.732855320E0
1.543864446E1,2.207459564E0,2.584675140E0,-5.568420410E-1,3.444342661E0
1.544856746E1,1.455573120E0,4.734654236E-1,4.379891968E-1,1.592073224E0
1.545849046E1,4.128414917E-1,-1.548529816E0,1.054407349E0,1.918373672E0
1.546841346E1,-9.616003418E-1,-3.250191193E0,6.447093201E-1,3.450227255E0
1.547833646E1,-1.934726715E0,-4.452341309E0,-7.203021240E-1,4.907682319E0
1.548825946E1,-2.040257263E0,-4.878505096E0,-1.341959381E0,5.455576657E0
1.549818246E1,-1.276545410E0,-4.692591705E0,-1.383273468E0,5.056029132E0
1.550810646E1,-9.271719360E-1,-4.026177521E0,-9.294172668E-1,4.234804563E0
1.551802946E1,-9.258247375E-1,-3.116818542E0,-6.050418091E-1,3.307232206E0
1.552795246E1,-5.794450378E-1,-2.154918823E0,-5.837860107E-1,2.306564067E0
1.553787546E1,6.765930176E-2,-1.295555878E0,-6.527925110E-1,1.452301923E0
1.554779846E1,1.256636810E0,-4.484674072E-1,-4.260140991E-1,1.400623826E0
1.555772146E1,2.752176819E0,4.225712585E-1,1.112187195E0,2.998333548E0
1.556764446E1,4.131109314E0,1.005159760E0,3.061134338E0,5.238984037E0
1.557756746E1,5.275180206E0,2.375559998E-1,3.861819305E0,6.541988032E0
1.558749046E1,7.334747314E0,-1.177900543E0,4.037553864E0,8.455046366E0
1.559741346E1,1.397823212E1,-2.223326569E0,1.153650970E0,1.420088253E1
1.560733646E1,2.098905304E1,-9.985584869E0,1.713636475E0,2.330641119E1
1.561725946E1,2.325893280E1,-3.504991333E1,1.225651245E1,4.381434100E1
1.562718246E1,3.082075790E1,-7.140122040E1,1.777254181E1,7.977416019E1
1.563710546E1,2.176923065E1,-6.842540863E1,1.113803833E1,7.266355240E1
1.564702946E1,1.769889496E1,-3.636597656E1,7.357500000E0,4.110800336E1
1.565695246E1,1.898846329E1,-2.361579071E1,1.006432114E1,3.193051626E1
1.566687546E1,1.938304276E1,-2.042098434E1,9.280550995E0,2.964536346E1
1.567679846E1,2.066557571E1,-1.948138824E1,6.546636200E0,2.914530757E1
1.568672146E1,1.632086060E1,-1.745505203E1,2.297721863E0,2.400685023E1
1.569664446E1,7.708070984E0,-1.364562378E1,-1.320254517E0,1.572769782E1
1.570656746E1,5.605842590E-1,-1.136766083E1,-5.586383057E-1,1.139517635E1
1.571649046E1,-1.784139862E0,-1.108894043E1,1.902094574E0,1.139147570E1
1.572641346E1,-1.932032318E0,-1.086560486E1,2.557731171E0,1.132855271E1
1.573633646E1,-1.361718292E0,-9.872719574E0,1.003962250E0,1.001662661E1
1.574625946E1,1.052311707E0,-7.514074402E0,-1.970951385E0,7.839217015E0
1.575618246E1,3.873495026E0,-4.198768616E0,-4.235142975E0,7.111262730E0
1.576610546E1,5.383554840E0,-1.497336273E0,-2.609822845E0,6.167321454E0
1.577602846E1,4.536017303E0,3.595523071E-1,1.200802917E0,4.706023638E0
1.578595246E1,2.377955017E0,2.040856018E0,3.887266388E0,4.993055509E0
1.579587546E1,2.574645996E-2,3.911366272E0,4.647385712E0,6.074343005E0
1.580579846E1,-1.410816193E0,6.127358093E0,3.687881012E0,7.289402300E0
1.581572146E1,-1.739981689E0,8.566236420E0,2.148033142E0,9.001221531E0
1.582564446E1,-1.768123169E0,1.052371582E1,-9.071136475E-2,1.067160170E1
1.583556746E1,-2.080074463E0,1.105975113E1,-2.479593658E0,1.152359273E1
1.584549046E1,-1.935325470E0,9.612710266E0,-3.912563782E0,1.055735946E1
1.585541346E1,-3.608995056E-1,6.738537140E0,-4.083657990E0,7.887610146E0
1.586533646E1,1.722318420E0,4.314777374E0,-3.043920135E0,5.554199701E0
1.587525946E1,1.942360840E0,2.826422424E0,-2.038311310E0,3.989504023E0
1.588518246E1,1.214873657E0,1.275946655E0,-8.063731384E-1,1.937574646E0
1.589510546E1,3.465293884E-1,-6.113287354E-1,6.686595154E-1,9.700056635E-1
1.590502846E1,-3.611988831E-1,-2.205363922E0,1.751058655E0,2.839066937E0
1.591495146E1,-7.339237976E-1,-3.434308319E0,2.083517303E0,4.083400804E0
1.592487546E1,-9.641450500E-1,-4.796176300E0,1.537003784E0,5.127890737E0
1.593479846E1,-6.956034851E-1,-6.547684021E0,5.287005615E-1,6.605721348E0
1.594472146E1,3.697311401E-2,-8.194709015E0,-6.050418091E-1,8.217097933E0
1.595464446E1,5.014572144E-1,-8.730894012E0,-1.198856964E0,8.827073559E0
1.596456746E1,4.373904419E-1,-7.528594208E0,-1.313817902E0,7.654878093E0
1.597449046E1,4.529580688E-1,-5.613925781E0,-8.361611938E-1,5.693900178E0
1.598441346E1,6.292913818E-1,-3.580254822E0,4.230203247E-1,3.659669169E0
1.599433646E1,1.937720490E0,-1.785037994E0,2.316582642E0,3.508229820E0
1.600425946E1,4.796475677E0,-1.048719177E0,4.915178833E0,6.947299749E0
1.601418246E1,7.743247833E0,-1.875000916E0,6.612050171E0,1.035339185E1
1.602410546E1,1.250529510E1,-3.830384674E0,7.041806488E0,1.485399916E1
1.603402846E1,1.937540863E1,-1.198348022E1,1.025891647E1,2.498510807E1
1.604395146E1,2.464011063E1,-3.197081635E1,1.354263794E1,4.257547641E1
1.605387546E1,2.824835724E1,-6.028054596E1,1.498833160E1,6.823755558E1
1.606379846E1,3.085413849E1,-6.107644089E1,1.264375717E1,6.958573193E1
1.607372146E1,2.892405212E1,-3.934059082E1,8.702902222E0,4.959862281E1
1.608364446E1,2.108739853E1,-2.560500412E1,8.720565491E0,3.429785526E1
1.609356746E1,1.681198929E1,-1.948782486E1,7.027586060E0,2.667967892E1
1.610349046E1,1.461321167E1,-1.604678055E1,2.988385620E0,2.190834475E1
1.611341346E1,1.147813110E1,-1.470107895E1,-1.378483429E0,1.870212374E1
1.612333646E1,8.352181549E0,-1.354862549E1,-3.903881836E0,1.638793711E1
1.613325946E1,6.080505524E0,-1.199126404E1,-4.195924530E0,1.408434391E1
1.614318246E1,3.820505219E0,-1.054841446E1,-2.687660980E0,1.153641319E1
1.615310546E1,2.453098755E0,-8.737330627E0,3.963757324E-1,9.083818234E0
1.616302846E1,2.453248444E0,-6.293961639E0,3.677402802E0,7.691272483E0
1.617295146E1,2.037413177E0,-3.770958252E0,5.351072388E0,6.856030505E0
1.618287546E1,6.002517700E-2,-1.270108795E0,4.911735992E0,5.073650543E0
1.619279846E1,-2.221679993E0,1.244062958E0,3.693868561E0,4.486448437E0
1.620272146E1,-4.391118622E0,3.849095764E0,2.067500610E0,6.194515294E0
1.621264446E1,-5.934259644E0,6.591093750E0,2.713856506E-1,8.873083146E0
1.622256746E1,-5.267695770E0,9.155860291E0,-4.772076416E-1,1.057384147E1
1.623249046E1,-3.444038086E0,1.108819199E1,-1.421893158E0,1.169748606E1
1.624241346E1,-1.833836517E0,1.144729523E1,-2.381248169E0,1.183528061E1
1.625233646E1,7.259902954E-2,8.998687134E0,-2.423909454E0,9.319709105E0
1.626225946E1,8.378077698E-1,5.608387299E0,-1.424587555E0,5.846826460E0
1.627218246E1,8.798703003E-1,3.040926361E0,-4.866380310E-1,3.202845836E0
1.628210546E1,1.274449768E0,1.186732178E0,-1.546284485E-1,1.748274987E0
1.629202846E1,1.883084106E0,-1.525328064E-1,-2.433938599E-1,1.904865502E0
1.630195146E1,2.153272247E0,-1.207987976E0,-3.266207886E-1,2.490481371E0
1.631187446E1,1.822909241E0,-2.162253571E0,-3.558100891E-1,2.850427937E0
1.632179846E1,9.590556335E-1,-3.047063599E0,-4.894821167E-2,3.194805191E0
1.633172146E1,-4.805007935E-2,-3.845952301E0,-1.154100037E-1,3.847983547E0
1.634164446E1,-7.915539551E-1,-4.236789551E0,-5.569917297E-1,4.345938696E0
1.635156746E1,-1.448537750E0,-4.313130798E0,-8.740324402E-1,4.633065033E0
1.636149046E1,-2.036215668E0,-4.246818695E0,-9.891430664E-1,4.812488678E0
1.637141346E1,-2.072889404E0,-3.880380707E0,-1.031055908E0,4.518550785E0
1.638133646E1,-1.518143005E0,-3.092868347E0,-7.173083496E-1,3.519250498E0
1.639125946E1,-9.142987061E-1,-2.362986145E0,8.538244629E-1,2.673698162E0
1.640118246E1,-1.658551025E-1,-1.921853485E0,2.716101837E0,3.331401796E0
1.641110546E1,2.000290375E0,-1.515747986E0,3.938759308E0,4.670383113E0
1.642102846E1,5.293442230E0,-1.577120361E0,5.498216400E0,7.793473094E0
1.643095146E1,1.049153275E1,-2.561623077E0,7.287445679E0,1.302847023E1
1.644087446E1,1.978884888E1,-1.084045715E1,9.434880066E0,2.445671714E1
1.645079746E1,3.098302048E1,-3.772544952E1,1.303609131E1,5.052817804E1
1.646072146E1,4.373036224E1,-7.450621353E1,1.470317459E1,8.763391912E1
1.647064446E1,3.177547256E1,-6.559629181E1,9.200617218E0,7.346567575E1
1.648056746E1,1.883069138E1,-3.885110870E1,-5.647755432E-1,4.317780166E1
1.649049046E1,1.662862061E1,-2.645074539E1,-1.752555542E0,3.129256151E1
