"Time (s)","Acceleration x (m/s^2)","Acceleration y (m/s^2)","Acceleration z (m/s^2)","Absolute acceleration (m/s^2)"
8.159166609E-4,-1.551478683E1,-4.661306763E0,-9.434431000E0,1.874686319E1
1.073891667E-2,-1.356045090E1,-4.049828339E0,-8.704848175E0,1.661509313E1
2.066291668E-2,-1.012704071E1,-3.240461426E0,-7.481891327E0,1.300139383E1
3.058591665E-2,-5.920787659E0,-2.079176331E0,-6.014941864E0,8.692423502E0
4.050891666E-2,-1.577569427E0,-8.747808838E-1,-4.714296570E0,5.047629051E0
5.043191666E-2,2.237397308E0,2.230361938E-2,-3.404669952E0,4.074091512E0
6.035491667E-2,4.956193542E0,7.277865601E-1,-1.616787872E0,5.263794328E0
7.027791667E-2,6.143524475E0,1.184786224E0,2.540217590E-1,6.261879784E0
8.020091668E-2,6.023025055E0,1.180594940E0,1.648970947E0,6.355292315E0
9.012391666E-2,4.986430664E0,6.927593994E-1,2.526745605E0,5.632836737E0
1.000469167E-1,3.275787964E0,-2.698887634E-1,2.862048340E0,4.358319335E0
1.099699167E-1,1.585502930E0,-1.061891785E0,2.638114014E0,3.255929860E0
1.198929167E-1,3.245251465E-1,-1.531764679E0,2.050585785E0,2.580023578E0
1.298159167E-1,-4.593946838E-1,-1.772913208E0,1.423090668E0,2.319364518E0
1.397389167E-1,-6.792874146E-1,-1.863923950E0,9.017248535E-1,2.179163049E0
1.496629167E-1,-5.616320801E-1,-1.600621490E0,5.656736755E-1,1.788129318E0
1.595859167E-1,-3.427871704E-2,-1.103056183E0,3.579057312E-1,1.160174334E0
1.695089167E-1,1.407223663E0,-6.001020813E-1,3.496728516E-1,1.569290301E0
1.794319167E-1,3.721261597E0,4.617897034E-1,3.980223083E-1,3.770869841E0
1.893549167E-1,7.333849182E0,2.208657074E0,5.505551147E-1,7.678972642E0
1.992779167E-1,1.167991150E1,3.797902222E0,1.800755310E-1,1.228319263E1
2.092009167E-1,1.623942993E1,4.625231781E0,-1.097068634E0,1.692085734E1
2.191239167E-1,2.021695862E1,4.551734619E0,-2.353106689E0,2.085619368E1
2.290469167E-1,2.299817505E1,3.567381592E0,-3.382066956E0,2.351766663E1
2.389699167E-1,2.443144455E1,2.500550079E0,-2.818189545E0,2.472024324E1
2.488929167E-1,2.552686661E1,2.428699493E0,2.423460388E-1,2.564328824E1
2.588169167E-1,2.808190338E1,3.359314270E0,4.010310516E0,2.856502897E1
2.687399167E-1,3.141756683E1,5.368136902E0,7.323370972E0,3.270339679E1
2.786629167E-1,3.490202087E1,7.077731781E0,8.867859192E0,3.669992200E1
2.885859167E-1,3.893194061E1,8.433312836E0,7.760012970E0,4.058367365E1
2.985089167E-1,4.221611115E1,9.359287262E0,4.640500031E0,4.348943020E1
3.084319167E-1,4.105138321E1,9.162296906E0,1.484463043E0,4.208761550E1
3.183549167E-1,3.428709961E1,7.096143494E0,-2.177671509E0,3.508137263E1
3.282779167E-1,2.296389633E1,4.908742218E0,-4.682412872E0,2.394496346E1
3.382009167E-1,1.248344055E1,4.904401245E0,-1.625320129E0,1.351040729E1
3.481239167E-1,6.430028687E0,3.953129425E0,2.084415436E0,7.830535669E0
3.580469167E-1,1.323098602E0,2.801274719E0,3.457510071E0,4.642424566E0
3.679699167E-1,-1.553918610E0,1.674717407E0,3.830534363E0,4.460082392E0
3.778939167E-1,-1.925595703E0,4.999603271E-2,3.611988831E0,4.093517036E0
3.878169167E-1,-2.375559998E0,-1.206341400E0,1.632654877E0,3.124757082E0
3.977399167E-1,-2.061513062E0,-1.370849304E0,-1.974543915E0,3.166684005E0
4.076629167E-1,-1.341360626E0,-1.286125488E0,-6.173761597E0,6.447379262E0
4.175859167E-1,-2.042053528E0,-1.238973541E0,-1.041893372E1,1.068921035E1
4.275089167E-1,-3.455264740E0,-5.888754272E-1,-1.390383682E1,1.433883911E1
4.374319167E-1,-4.521946564E0,-4.381388855E-1,-1.559487030E1,1.624315074E1
4.473549167E-1,-4.523892517E0,-5.854325867E-1,-1.481289642E1,1.549936241E1
4.572779167E-1,-4.448898468E0,-4.897814941E-1,-1.128099106E1,1.213644687E1
4.672009167E-1,-3.874692535E0,-7.168592834E-1,-6.375541992E0,7.494975995E0
4.771239167E-1,-2.395169220E0,-7.104226685E-1,-2.011067963E0,3.207168582E0
4.870479167E-1,-7.755372620E-1,-1.797761536E-1,1.694326630E0,1.872036388E0
4.969709167E-1,9.593550110E-1,1.707948303E-1,4.508923645E0,4.613016946E0
5.068939167E-1,2.494712219E0,6.825805664E-1,6.385271759E0,6.889209006E0
5.168169167E-1,3.746259613E0,1.425934753E0,7.370822296E0,8.390278442E0
5.267399167E-1,4.468358002E0,1.406624908E0,6.905589752E0,8.344578281E0
5.366629167E-1,3.842659149E0,1.087638245E0,4.738246765E0,6.196770828E0
5.465859167E-1,2.459984436E0,3.957769775E-1,7.879614258E-1,2.613244353E0
5.565089167E-1,1.721719666E0,-1.089733887E-1,-9.491761780E-1,1.969042717E0
5.664319167E-1,1.458267517E0,6.532415771E-1,-9.484277344E-1,1.858166805E0
5.763549167E-1,2.543061676E0,1.886227570E0,-9.607022095E-1,3.308771051E0
5.862779167E-1,5.906417542E0,3.320844269E0,-8.508306885E-1,6.829179138E0
5.962009167E-1,1.040516235E1,4.609215088E0,-7.461982727E-1,1.140478317E1
6.061249167E-1,1.428509399E1,5.227429504E0,-7.927514648E-1,1.523214970E1
6.160479167E-1,1.810559921E1,5.253924408E0,-1.134191437E0,1.888657816E1
6.259710417E-1,2.218102432E1,4.289929047E0,-1.766177216E0,2.266099541E1
6.358940417E-1,2.570155334E1,2.374811554E0,-3.404220886E0,2.603455961E1
6.458170417E-1,2.798101318E1,1.432071991E0,-5.380411377E0,2.852957686E1
6.557400417E-1,2.786874664E1,8.851094055E-1,-6.680757294E0,2.867198940E1
6.656630417E-1,2.525308594E1,-3.183879089E-1,-6.816375275E0,2.615879760E1
6.755860417E-1,2.290925995E1,-2.292782135E0,-4.410727844E0,2.344238813E1
6.855090417E-1,2.384720947E1,-5.170248413E0,-5.075944519E-1,2.440652618E1
6.954320417E-1,2.601365433E1,-8.103847961E0,3.740122375E0,2.750220134E1
7.053560417E-1,2.684053482E1,-8.942104797E0,7.928712158E0,2.938094662E1
7.152790417E-1,2.696821930E1,-6.436016235E0,1.136137390E1,2.996311022E1
7.252020417E-1,2.893093781E1,-1.762884064E0,1.468251755E1,3.249127951E1
7.351250417E-1,3.236210266E1,3.870501251E0,1.733245697E1,3.691477392E1
7.450480417E-1,3.345647690E1,8.761580200E0,1.746163834E1,3.874286963E1
7.549710417E-1,2.957235397E1,1.078911392E1,1.461066696E1,3.470447648E1
7.648940417E-1,2.268861877E1,9.778265991E0,1.043090881E1,2.681775096E1
7.748170417E-1,1.485989868E1,6.696025543E0,6.233188019E0,1.745009971E1
7.847400417E-1,6.576124878E0,3.099604340E0,2.409988403E0,7.659047563E0
7.946630417E-1,-1.638193359E0,2.421963501E-1,-1.518292694E0,2.246675157E0
8.045860417E-1,-8.387358398E0,-2.067799988E0,-5.175038452E0,1.006998514E1
8.145100417E-1,-1.267998184E1,-3.968697052E0,-7.766748962E0,1.539009049E1
8.244330417E-1,-1.505284744E1,-4.922064514E0,-9.639803925E0,1.854024689E1
8.343560417E-1,-1.580712891E1,-5.171296234E0,-1.050141220E1,1.966945061E1
8.442790417E-1,-1.494776596E1,-5.053640900E0,-1.026580215E1,1.882449700E1
8.542020417E-1,-1.338172256E1,-4.633165283E0,-9.180109863E0,1.687634843E1
8.641250417E-1,-1.123428818E1,-3.739972687E0,-7.164850616E0,1.383949822E1
8.740480417E-1,-8.419990540E0,-2.401755524E0,-4.880001984E0,1.002392586E1
8.839710417E-1,-4.796325989E0,-7.957452393E-1,-2.581082611E0,5.504538211E0
8.938940417E-1,-9.484277344E-1,9.771679688E-1,-1.493893433E-1,1.369923203E0
9.038170417E-1,2.579585724E0,2.249372406E0,2.033970337E0,3.981328178E0
9.137410417E-1,4.985682220E0,3.054997101E0,3.351380768E0,6.739568795E0
9.236640417E-1,6.480473785E0,3.279230804E0,3.966601410E0,8.275495266E0
9.335870417E-1,6.837930450E0,2.756068726E0,4.009861450E0,8.392389202E0
9.435100417E-1,6.668333130E0,1.969903564E0,3.439397736E0,7.757360606E0
9.534330417E-1,5.150339813E0,1.702260132E0,2.907553711E0,6.154474659E0
9.633560417E-1,3.168910217E0,1.584305420E0,2.296823730E0,4.222252347E0
9.732790417E-1,1.400637360E0,1.337468719E0,1.670825500E0,2.557785261E0
9.832020417E-1,3.132984924E-1,1.462907867E0,1.364412689E0,2.024815389E0
9.931250417E-1,6.704557800E-1,1.953737183E0,1.388213196E0,2.488721722E0
1.003048042E0,2.686762848E0,2.432591400E0,1.280437317E0,3.843919256E0
1.012971042E0,5.244643707E0,3.270099792E0,7.385641479E-1,6.224573662E0
1.022895042E0,7.802524567E0,4.357588348E0,-1.766326904E-1,8.938633281E0
1.032818042E0,1.067774551E1,4.392016754E0,-1.592238922E0,1.165501116E1
1.042741042E0,1.364412689E1,3.172353058E0,-2.814297638E0,1.428797725E1
1.052664042E0,1.684701645E1,1.328038330E0,-2.773432617E0,1.712534898E1
1.062587042E0,2.073488159E1,-9.547146606E-1,-2.322719879E0,2.088640281E1
1.072510042E0,2.530008820E1,-2.852318573E0,-2.356998596E0,2.556923202E1
1.082433042E0,3.119228531E1,-4.484973450E0,-3.069367218E0,3.166219615E1
1.092356042E0,3.705783783E1,-5.808072052E0,-3.677402802E0,3.769005621E1
1.102279042E0,4.166780136E1,-5.575455780E0,-3.921844482E0,4.222170344E1
1.112203042E0,4.535223953E1,-3.228785706E0,-3.746858368E0,4.562115338E1
1.122126042E0,4.751134964E1,5.554948425E-1,-2.402204590E0,4.757528251E1
1.132049042E0,4.591970947E1,4.619543610E0,-3.915856934E-1,4.615314984E1
1.141972042E0,4.090349075E1,7.645800476E0,1.581910400E0,4.164200117E1
1.151895042E0,3.378040329E1,8.406518555E0,3.597768402E0,3.499613033E1
1.161818042E0,2.499562134E1,7.694748688E0,4.549189911E0,2.654591065E1
1.171741042E0,1.610066849E1,6.807094574E0,3.600612488E0,1.784747805E1
1.181664042E0,8.174950104E0,6.091732178E0,9.740245056E-1,1.024147127E1
1.191587042E0,1.635948029E0,5.924679565E0,-2.378853149E0,6.590682530E0
1.201510042E0,-3.006947021E0,5.813909912E0,-5.015320587E0,8.246012336E0
1.211434042E0,-4.827161865E0,4.788991241E0,-6.097570038E0,9.133251839E0
1.221357042E0,-4.905449066E0,3.261567535E0,-6.358028412E0,8.667512827E0
1.231280042E0,-5.749992828E0,1.819915466E0,-6.014043732E0,8.517231466E0
1.241203042E0,-7.488327942E0,4.773573303E-1,-5.190007324E0,9.123546537E0
1.251126042E0,-8.979526978E0,-1.045126648E0,-4.192481689E0,9.964993586E0
1.261049042E0,-1.042402313E1,-2.707868958E0,-2.963237915E0,1.117021000E1
1.270972042E0,-1.139101227E1,-4.057612152E0,-1.563648376E0,1.219280005E1
1.280895042E0,-1.148756149E1,-4.947960663E0,-2.838098145E-1,1.251107237E1
1.290818042E0,-1.107546844E1,-5.240452423E0,3.188369751E-1,1.225683482E1
1.300742042E0,-9.947414246E0,-4.943320312E0,3.863465881E-1,1.111470780E1
1.310665042E0,-7.983049164E0,-4.097579041E0,3.426374817E-1,8.979789997E0
1.320588042E0,-5.283562775E0,-2.914888458E0,1.615141296E-1,6.036447393E0
1.330511042E0,-2.216291199E0,-1.553619232E0,-2.504292297E-1,2.718160075E0
1.340434042E0,8.271798706E-1,-2.227368164E-1,-8.515791321E-1,1.207901174E0
1.350357042E0,3.539838867E0,8.511300659E-1,-1.418450317E0,3.907285874E0
1.360280042E0,5.272336121E0,1.565744019E0,-1.840871887E0,5.799818256E0
1.370203042E0,6.436465302E0,1.851350098E0,-2.191293182E0,7.046797044E0
1.380126042E0,7.007527771E0,1.574126587E0,-2.234403534E0,7.521693900E0
1.390049042E0,6.675667877E0,1.410516815E0,-2.061513062E0,7.127687942E0
1.399973042E0,6.397546234E0,1.654958496E0,-1.701212311E0,6.823606727E0
1.409896042E0,7.083270264E0,2.009122009E0,-1.244062958E0,7.467059764E0
1.419819042E0,9.340875549E0,2.355950775E0,-1.068328400E0,9.692460248E0
1.429742042E0,1.311886917E1,2.762655029E0,-1.049916687E0,1.344765095E1
1.439665042E0,1.842698090E1,3.047662354E0,-1.301693115E0,1.872261402E1
1.449588042E0,2.571352844E1,2.291734314E0,-2.017354889E0,2.589415594E1
1.459511042E0,3.281296509E1,4.240681458E-1,-2.967129822E0,3.294957315E1
1.469434042E0,3.674858093E1,-5.634283447E-1,-3.837869110E0,3.695273862E1
1.479357042E0,3.709061966E1,9.250762939E-2,-4.924908600E0,3.741627118E1
1.489281042E0,3.464410721E1,3.852987671E-1,-6.115532684E0,3.518184702E1
1.499204042E0,3.253634033E1,-1.083297272E0,-6.114335175E0,3.312358782E1
1.509127042E0,3.169718536E1,-2.978206787E0,-3.602558441E0,3.203997040E1
1.519050042E0,3.157039902E1,-3.361260223E0,8.951385498E-2,3.174895553E1
1.528973042E0,3.087195145E1,-1.858385468E0,2.686613159E0,3.104430500E1
1.538896042E0,2.943449066E1,9.894424438E-1,3.744163971E0,2.968816264E1
1.548819042E0,2.757056671E1,4.164489899E0,2.784808960E0,2.802203215E1
1.558742042E0,2.348630997E1,6.579118652E0,7.451504517E-1,2.440177877E1
1.568665042E0,1.707618988E1,8.347092133E0,-1.903292084E0,1.910216555E1
1.578589042E0,8.975635071E0,8.904532928E0,-4.798122253E0,1.352311757E1
1.588512042E0,1.516795807E0,6.506819000E0,-5.871839447E0,8.894822174E0
1.598435042E0,-4.013004913E0,1.353485413E0,-4.377646637E0,6.090970471E0
1.608358042E0,-7.390880585E0,-4.057462463E0,-2.068847809E0,8.681488854E0
1.618281042E0,-9.732610931E0,-8.117020569E0,-1.975891113E-2,1.267320515E1
1.628204042E0,-1.280527130E1,-1.010817993E1,1.368603973E0,1.637141874E1
1.638127042E0,-1.577180237E1,-1.051099228E1,1.620979156E0,1.902257296E1
1.648050042E0,-1.734518051E1,-9.764195251E0,2.832110596E-1,1.990665729E1
1.657973042E0,-1.668774765E1,-8.289761353E0,-2.933150482E0,1.886277913E1
1.667897042E0,-1.345267502E1,-6.283184052E0,-6.097120972E0,1.605078662E1
1.677820042E0,-8.370593262E0,-3.763473816E0,-7.809260559E0,1.205052352E1
1.687743042E0,-2.498155060E0,-1.095721436E0,-8.098159790E0,8.545266301E0
1.697666042E0,2.719095612E0,1.205143890E0,-7.471113739E0,8.041355187E0
1.707589042E0,7.084168396E0,3.851939850E0,-6.395300903E0,1.029187816E1
1.717512042E0,9.924661560E0,4.319417725E0,-5.360502777E0,1.207854571E1
1.727435042E0,1.097053665E1,3.228186951E0,-4.659660187E0,1.234853426E1
1.737358042E0,1.047716263E1,2.448608093E0,-4.545896759E0,1.168040221E1
1.747281042E0,9.044192505E0,1.882185974E0,-4.690945129E0,1.036074362E1
1.757205042E0,7.230713654E0,1.375789032E0,-4.929548950E0,8.858694500E0
1.767128042E0,5.265450439E0,1.099463654E0,-5.090614014E0,7.405952990E0
1.777051042E0,3.506158905E0,9.295669556E-1,-4.947810974E0,6.134988054E0
1.786974042E0,3.006198578E0,8.813671875E-1,-4.684059448E0,5.635108777E0
1.796897042E0,4.097429352E0,1.040186920E0,-4.376598816E0,6.084860994E0
1.806820042E0,6.079457703E0,1.401685181E0,-3.861370239E0,7.337213874E0
1.816743042E0,8.619226227E0,1.968855743E0,-2.988235931E0,9.332577761E0
1.826666042E0,1.121857086E1,2.559527435E0,-1.880090332E0,1.165942762E1
1.836590042E0,1.363484619E1,2.573298798E0,-1.050515442E0,1.391526069E1
1.846513042E0,1.620919281E1,1.530866547E0,-5.550457764E-1,1.629078143E1
1.856436042E0,1.936448135E1,-3.427871704E-2,-2.844085693E-2,1.936453258E1
1.866359042E0,2.270777893E1,-1.010698242E0,1.073118439E0,2.275557774E1
1.876282042E0,2.538331512E1,-1.491348724E0,2.627785492E0,2.556251287E1
1.886205042E0,2.566996902E1,-1.279988251E0,4.191882935E0,2.604145853E1
1.896128042E0,2.470013580E1,-5.101391602E-1,4.902604980E0,2.518714923E1
1.906051042E0,2.583447693E1,-1.063388672E0,4.216431885E0,2.619788716E1
1.915974042E0,2.832993759E1,-2.743943939E0,3.025508423E0,2.862286313E1
1.925898042E0,2.928974167E1,-3.524720306E0,2.132615204E0,2.957804368E1
1.935821042E0,2.849145172E1,-2.937940521E0,1.526375885E0,2.868316822E1
1.945744042E0,2.695085541E1,-1.367855530E0,1.447040863E0,2.702431430E1
1.955667042E0,2.479713409E1,1.066232758E0,1.954785004E0,2.489690535E1
1.965590042E0,2.169124283E1,3.553759918E0,2.150877228E0,2.208541369E1
1.975513042E0,1.745490234E1,5.348976746E0,1.544188843E0,1.832129055E1
1.985436042E0,1.235994736E1,6.102958832E0,3.823049927E-1,1.378987173E1
1.995359042E0,7.304809570E0,6.104006653E0,-5.384303284E-1,9.534623605E0
2.005283042E0,2.993325348E0,5.538482666E0,-6.301895142E-1,6.327078765E0
2.015206042E0,-7.182064819E-1,4.430786133E0,-3.653901672E-1,4.503464919E0
2.025129042E0,-3.669020233E0,2.886597290E0,-4.120930481E-1,4.686573809E0
2.035052042E0,-5.072950745E0,1.116827545E0,-9.029223633E-1,5.272324138E0
2.044975042E0,-5.810018005E0,-2.567161560E-1,-1.266815643E0,5.952061347E0
2.054898042E0,-6.062842255E0,-1.155297546E0,-1.789229279E0,6.426049334E0
2.064821042E0,-6.171216888E0,-1.641486511E0,-2.401156769E0,6.822312634E0
2.074744042E0,-6.218219147E0,-1.589394836E0,-3.110082550E0,7.131972993E0
2.084667042E0,-5.821544037E0,-1.356928253E0,-3.671714630E0,7.015206168E0
2.094591042E0,-4.944517822E0,-8.687933350E-1,-3.861519928E0,6.333592544E0
2.104514042E0,-3.713926849E0,-2.094145203E-1,-3.724105682E0,5.263655594E0
2.114437042E0,-2.295027466E0,4.031117249E-1,-3.217409363E0,3.972577644E0
2.124360042E0,-5.242098999E-1,8.857081604E-1,-2.603386230E0,2.799445450E0
2.134283042E0,1.531016235E0,1.227297821E0,-2.003882904E0,2.804606451E0
2.144206042E0,3.250490570E0,1.279239807E0,-1.486708374E0,3.796372640E0
2.154129042E0,4.389022980E0,1.309177551E0,-1.152752838E0,4.722955397E0
2.164052042E0,5.265300751E0,1.203647003E0,-1.365011444E0,5.570943757E0
2.173976042E0,5.755531311E0,1.000818787E0,-1.758243713E0,6.100754041E0
2.183899042E0,5.797444153E0,1.130748596E0,-2.171085205E0,6.293056655E0
2.193822042E0,5.900879059E0,1.438658295E0,-2.492317200E0,6.565192791E0
2.203745042E0,6.245013428E0,1.806742859E0,-2.560425568E0,6.987151892E0
2.213668042E0,7.555089111E0,1.926344147E0,-2.295775909E0,8.127777081E0
2.223591042E0,1.034917877E1,1.977687378E0,-1.782493286E0,1.068616072E1
2.233514042E0,1.512604523E1,2.216889954E0,-1.355730743E0,1.534763340E1
2.243437042E0,2.118319931E1,2.039209442E0,-1.495989075E0,2.133364225E1
2.253361042E0,2.616154678E1,9.104067993E-1,-1.783690796E0,2.623808155E1
2.263284042E0,2.865176834E1,-8.393046570E-1,-2.374961243E0,2.876227916E1
2.273207042E0,2.955454102E1,-2.554737396E0,-2.698588257E0,2.978724486E1
2.283130042E0,2.899964493E1,-4.137845306E0,-2.934048615E0,2.943993565E1
2.293053042E0,2.884531586E1,-5.863157501E0,-2.955454102E0,2.958316365E1
2.302976042E0,3.045611618E1,-7.093898163E0,-3.266656952E0,3.144152432E1
2.312899042E0,3.139735886E1,-8.074059906E0,-3.002905426E0,3.255767233E1
2.322822042E0,3.062167191E1,-8.662785645E0,-1.328936462E0,3.185116509E1
2.332745042E0,2.948703140E1,-7.732619934E0,5.536985779E-1,3.048909664E1
2.342669042E0,2.789838501E1,-3.605103149E0,1.844763794E0,2.819077523E1
2.352592042E0,2.583941666E1,7.063810730E-1,2.934497681E0,2.601510530E1
2.362515042E0,2.250989044E1,3.917503510E0,3.429817657E0,2.310423447E1
2.372438042E0,1.861738495E1,6.660848694E0,3.872896271E0,2.014877796E1
2.382361042E0,1.416594177E1,8.618028717E0,4.821024628E0,1.726808049E1
2.392284042E0,9.185498657E0,9.482481079E0,5.696254578E0,1.437839175E1
2.402207042E0,4.828808441E0,9.123078461E0,5.604944458E0,1.174578026E1
2.412130042E0,7.490423584E-1,7.569608917E0,3.960314484E0,8.575787685E0
2.422054042E0,-2.706821136E0,5.894143066E0,1.445993042E0,6.645201203E0
2.431977042E0,-4.868775330E0,4.327500916E0,-1.434167633E0,6.670013057E0
2.441900042E0,-5.937403107E0,2.586471405E0,-4.158202972E0,7.696313529E0
2.451823042E0,-6.605763245E0,9.322613525E-1,-6.364315338E0,9.220072071E0
2.461746042E0,-7.138655090E0,-3.679348755E-1,-7.447462921E0,1.032281340E1
2.471669042E0,-7.353907471E0,-9.377998352E-1,-7.304360504E0,1.040735826E1
2.481592042E0,-6.679110718E0,-9.398954773E-1,-6.506968689E0,9.372009657E0
2.491515042E0,-5.480702820E0,-7.348219299E-1,-5.469775543E0,7.777950319E0
2.501439042E0,-4.578079834E0,-3.700305176E-1,-4.521198120E0,6.444918152E0
2.511362042E0,-4.058360596E0,-1.219963074E-1,-3.810176697E0,5.567999666E0
2.521285042E0,-2.845133514E0,3.826043701E-1,-2.709814911E0,3.947691436E0
2.531208042E0,-1.300345917E0,9.614506531E-1,-1.356628876E0,2.110859722E0
2.541131042E0,-1.098715210E-1,1.025966492E0,-5.248086548E-1,1.157628229E0
2.551054042E0,8.358618164E-1,9.496252441E-1,-1.561253357E-1,1.274687491E0
2.560977042E0,1.491947479E0,1.107247467E0,1.953437805E-1,1.868171145E0
2.570900042E0,2.207010498E0,1.372795258E0,3.887416077E-1,2.628037708E0
2.580824042E0,3.101849670E0,1.633403320E0,2.764750671E-1,3.516520474E0
2.590747042E0,4.111799469E0,1.706152039E0,-2.198927307E-1,4.457151833E0
2.600670042E0,5.087021484E0,1.754351807E0,-8.207432556E-1,5.443267156E0
2.610593042E0,6.426286469E0,1.909579010E0,-1.143322449E0,6.800796717E0
2.620516042E0,8.491092682E0,2.211052094E0,-1.002615051E0,8.831344362E0
2.630439583E0,1.168694687E1,2.320773926E0,-6.349795532E-1,1.193205421E1
2.640362583E0,1.571507034E1,2.128423920E0,-1.947450256E-1,1.585974621E1
2.650285583E0,1.985276596E1,1.517544250E0,-2.073188782E-1,1.991176130E1
2.660209583E0,2.317780151E1,2.547702026E-1,-6.730004883E-1,2.318896980E1
2.670132583E0,2.582624405E1,-1.134640503E0,-7.280859375E-1,2.586140754E1
2.680055583E0,2.792682587E1,-2.659818878E0,-6.837780762E-1,2.806153581E1
2.689978583E0,2.908107559E1,-4.160148926E0,-8.012837219E-1,2.938805629E1
2.699901583E0,2.988131149E1,-5.248535614E0,-1.470392303E0,3.037436347E1
2.709824583E0,3.249906784E1,-6.551276550E0,-2.806513824E0,3.327138643E1
2.719747583E0,3.507221695E1,-8.082891541E0,-2.493514709E0,3.607784851E1
2.729671583E0,3.534285416E1,-8.639733582E0,-9.080117798E-1,3.639487356E1
2.739594583E0,3.309722397E1,-6.696923676E0,1.375339966E0,3.379595510E1
2.749517583E0,2.898228104E1,-3.362607422E0,3.728147278E0,2.941392230E1
2.759440583E0,2.475372437E1,-4.197271729E-1,6.264173584E0,2.553748052E1
2.769363583E0,2.129202301E1,2.649041290E0,8.716673584E0,2.315918958E1
2.779286583E0,1.782448380E1,5.787864075E0,1.005084915E1,2.126572740E1
2.789209583E0,1.359487930E1,7.828420715E0,9.629176025E0,1.840722535E1
2.799132583E0,9.208550720E0,7.391179962E0,6.660549316E0,1.355691207E1
2.809056583E0,4.786895599E0,5.339995422E0,1.691033478E0,7.368141883E0
2.818979583E0,5.463638306E-2,3.868405609E0,-2.804268494E0,4.778228634E0
2.828902583E0,-3.874243469E0,2.025887146E0,-6.462211761E0,7.802189567E0
2.838825583E0,-6.709647217E0,-2.173480225E-1,-9.333989868E0,1.149738983E1
2.848748583E0,-8.269403687E0,-1.695524139E0,-1.035202286E1,1.335747793E1
2.858671583E0,-9.183702393E0,-2.553240509E0,-9.392218781E0,1.338182351E1
2.868594583E0,-1.037956558E1,-3.250191193E0,-7.825277252E0,1.339903312E1
2.878517583E0,-1.108280319E1,-3.752247162E0,-6.158942413E0,1.322272502E1
2.888441583E0,-1.108998825E1,-4.005370789E0,-4.466412048E0,1.260871410E1
2.898364583E0,-1.051473450E1,-3.690425720E0,-2.917582855E0,1.151916548E1
2.908287583E0,-9.165889435E0,-2.864593048E0,-1.489702148E0,9.717954258E0
2.918210583E0,-6.353687439E0,-1.899998932E0,-4.367916870E-1,6.646061013E0
2.928133583E0,-2.857557678E0,-8.340655518E-1,1.603166199E-1,2.981107621E0
2.938056583E0,6.451583862E-2,1.404080200E-1,1.802252197E-1,2.373980525E-1
2.947979583E0,2.327210541E0,9.979747009E-1,-4.312532043E-1,2.568626429E0
2.957903583E0,4.016747131E0,1.657952271E0,-1.260079651E0,4.524473889E0
2.967826583E0,4.855453033E0,2.032922516E0,-2.023941193E0,5.639551052E0
2.977749583E0,4.997357941E0,2.124082947E0,-2.648741913E0,6.041618034E0
2.987672583E0,4.877008209E0,2.008972321E0,-2.991080017E0,6.063640699E0
2.997595583E0,5.502707062E0,1.741777954E0,-2.911595306E0,6.464593002E0
3.007518583E0,7.595056000E0,1.434317322E0,-2.127825165E0,8.016843628E0
3.017441583E0,1.111842911E1,1.499132538E0,-6.815327454E-1,1.123972202E1
3.027364583E0,1.550430862E1,2.033521271E0,9.967771912E-1,1.566883402E1
3.037288583E0,2.005289978E1,2.328857117E0,2.138453064E0,2.030062429E1
3.047211583E0,2.411425415E1,2.106269989E0,1.643731842E0,2.426181116E1
3.057134583E0,2.727403336E1,1.496587830E0,-5.523513794E-2,2.731511892E1
3.067057583E0,2.997022659E1,3.079096985E-1,-1.934876404E0,3.003419779E1
3.076980583E0,3.103690842E1,-1.196761322E0,-3.296744385E0,3.123444325E1
3.086903583E0,3.099709122E1,-2.141297150E0,-3.572171631E0,3.127563313E1
3.096826583E0,3.220298355E1,-2.567910004E0,-2.207160187E0,3.238051679E1
3.106749583E0,3.315126160E1,-3.234324188E0,-1.441502380E-1,3.330897443E1
3.116673583E0,3.216451355E1,-4.135450287E0,1.574425964E0,3.246747138E1
3.126596583E0,2.948478607E1,-3.883374481E0,3.218157806E0,2.991303640E1
3.136519583E0,2.595871857E1,-2.604883118E0,4.317621460E0,2.644394715E1
3.146442583E0,2.132495453E1,-6.712042236E-1,4.024231567E0,2.171171666E1
3.156365583E0,1.601998627E1,1.404828644E0,2.122885437E0,1.622097858E1
3.166288583E0,1.164892593E1,3.215313721E0,-4.809498596E-1,1.209409073E1
3.176211583E0,8.309370575E0,4.563110962E0,-2.507735138E0,9.805934760E0
3.186135583E0,5.035977631E0,5.344037018E0,-3.546125793E0,8.154435019E0
3.196058583E0,1.844464417E0,5.722300415E0,-3.650907898E0,7.033910683E0
3.205981583E0,-7.473957825E-1,5.644462280E0,-3.074456635E0,6.470767998E0
3.215904583E0,-2.253713379E0,4.812342682E0,-1.756297760E0,5.596646130E0
3.225827583E0,-3.234024811E0,3.225791931E0,-2.909948730E-1,4.577043596E0
3.235750583E0,-4.101620636E0,1.266665955E0,9.571096802E-1,4.398157958E0
3.245673583E0,-5.017715607E0,-7.653584290E-1,1.865121460E0,5.407580004E0
3.255597583E0,-6.135890350E0,-2.324665833E0,2.208058319E0,6.923058801E0
3.265520583E0,-7.249275055E0,-3.101101227E0,1.967059479E0,8.126385459E0
3.275443583E0,-7.625293121E0,-3.251089325E0,1.375339966E0,8.402751752E0
3.285366583E0,-6.696175232E0,-2.892135773E0,1.745370483E-1,7.296141120E0
3.295289583E0,-4.903503113E0,-2.020049286E0,-1.517244873E0,5.516065074E0
3.305212583E0,-2.273921356E0,-9.482780457E-1,-3.406466217E0,4.204041112E0
3.315135583E0,4.116439819E-1,2.395019531E-2,-5.325774994E0,5.341713551E0
3.325058583E0,2.834804993E0,9.556127930E-1,-6.040388947E0,6.740594468E0
3.334982583E0,4.548441467E0,1.980232086E0,-6.073021088E0,7.841634015E0
3.344905583E0,5.574557648E0,2.711311798E0,-6.403384094E0,8.912364024E0
3.354828583E0,5.933211823E0,2.427651672E0,-6.619534607E0,9.214919076E0
3.364751583E0,5.704936523E0,1.642384644E0,-6.359674988E0,8.699953678E0
3.374674583E0,5.379962311E0,1.032852173E0,-5.765261078E0,7.952924831E0
3.384597583E0,5.443879395E0,5.954617310E-1,-4.912185059E0,7.356626916E0
3.394520583E0,6.405779114E0,3.504212952E-1,-3.982169037E0,7.550792765E0
3.404444583E0,8.056995392E0,-1.465452576E-1,-2.973716125E0,8.589507428E0
3.414367583E0,1.087039490E1,-1.099912720E0,-1.732796631E0,1.106245350E1
3.424290583E0,1.578407684E1,-2.256407776E0,-4.061054993E-1,1.594971409E1
3.434213583E0,2.215348160E1,-3.264112244E0,9.084608459E-1,2.241107933E1
3.444136583E0,2.733869888E1,-3.972588959E0,1.947300568E0,2.769436584E1
3.454059583E0,2.951158035E1,-4.368815002E0,2.189047852E0,2.991340586E1
3.463982583E0,2.946188370E1,-5.296585693E0,2.012115784E0,3.000175030E1
3.473906583E0,2.823383743E1,-5.701793060E0,1.805994415E0,2.886038177E1
3.483829583E0,2.850746841E1,-6.306685181E0,1.974094849E0,2.926340862E1
3.493752583E0,2.943434097E1,-7.705077209E0,2.402204590E0,3.052079996E1
3.503675583E0,2.914514236E1,-8.833580475E0,3.231929169E0,3.062542789E1
3.513598583E0,2.753853333E1,-8.214767303E0,4.287234650E0,2.905569824E1
3.523521583E0,2.511537231E1,-5.417983246E0,5.114115143E0,2.619714951E1
3.533444583E0,2.186772583E1,-9.166937256E-1,5.433251495E0,2.255123017E1
3.543368583E0,1.851933884E1,3.469185791E0,4.848267975E0,1.945525285E1
3.553291583E0,1.511436951E1,6.763086090E0,3.465443573E0,1.691723376E1
3.563214583E0,1.168215683E1,8.924890594E0,1.836231537E0,1.481547186E1
3.573137583E0,8.177345123E0,1.007494904E1,2.808160400E-1,1.297892249E1
3.583060583E0,4.828808441E0,9.983489227E0,-1.025218048E0,1.113725820E1
3.592983583E0,1.945204926E0,8.553812256E0,-1.679507446E0,8.931532431E0
3.602906583E0,-4.291575623E-1,6.230343933E0,-1.853146362E0,6.514254614E0
3.612829583E0,-2.338137817E0,3.864513702E0,-2.190245361E0,5.019813677E0
3.622753583E0,-3.774401093E0,2.015558624E0,-2.683020630E0,5.050463333E0
3.632675708E0,-4.969964905E0,8.598120117E-1,-3.014281769E0,5.875859293E0
3.642598708E0,-5.849835205E0,2.983296204E-1,-3.185076599E0,6.667404700E0
3.652521708E0,-6.088289337E0,-6.945556641E-2,-3.258723450E0,6.905893834E0
3.662444708E0,-5.910758514E0,-2.683918762E-1,-3.299588470E0,6.774687040E0
3.672367708E0,-5.381010132E0,-2.031275940E-1,-3.319796448E0,6.325944934E0
3.682290708E0,-4.456682281E0,-5.403762817E-2,-3.110681305E0,5.435188608E0
3.692214708E0,-3.218457184E0,1.571731567E-1,-2.490221558E0,4.072391613E0
3.702137708E0,-1.808090057E0,4.528083801E-1,-1.843117218E0,2.621317639E0
3.712060708E0,-7.095245361E-2,6.077362061E-1,-1.404229889E0,1.531743819E0
3.721983708E0,1.931583252E0,8.173004150E-1,-1.028211823E0,2.335853887E0
3.731906708E0,3.669768677E0,1.068627777E0,-8.737330627E-1,3.920787795E0
3.741829708E0,4.898114319E0,1.221310272E0,-9.883946228E-1,5.143932989E0
3.751752708E0,5.817951508E0,1.427880707E0,-1.379531250E0,6.147398598E0
3.761676708E0,6.821315002E0,1.896406403E0,-1.630409546E0,7.265323867E0
3.771599708E0,7.847580872E0,2.561323700E0,-1.707349548E0,8.429706229E0
3.781522708E0,9.141340485E0,2.888692932E0,-1.705253906E0,9.737378682E0
3.791445708E0,1.097652420E1,2.686463470E0,-1.640887756E0,1.141900530E1
3.801368708E0,1.359203522E1,2.023043060E0,-1.234333191E0,1.379709038E1
3.811291708E0,1.673819275E1,9.446855164E-1,-6.668632507E-1,1.677808791E1
3.821214708E0,2.024375290E1,-6.927593994E-1,-2.354603577E-1,2.025697136E1
3.831137708E0,2.381158356E1,-3.412304077E0,4.846920776E-1,2.405972271E1
3.841061708E0,2.571742035E1,-6.041137390E0,1.314566345E0,2.645012543E1
3.850984708E0,2.590408218E1,-7.692203979E0,1.261277161E0,2.705147493E1
3.860907708E0,2.564257599E1,-9.001980286E0,5.313949585E-1,2.718197441E1
3.870830708E0,2.635165146E1,-1.078103073E1,-8.285270691E-1,2.848379566E1
3.880753708E0,2.790497131E1,-1.295525940E1,-2.071093140E0,3.083529791E1
3.890676708E0,2.902868454E1,-1.344653778E1,-1.968256989E0,3.205226887E1
3.900600708E0,2.922163330E1,-1.051233948E1,-6.514453125E-1,3.106183374E1
3.910523708E0,2.929378326E1,-5.067112885E0,1.203796692E0,2.975315945E1
3.920446708E0,2.885923691E1,8.578660583E-1,3.462599487E0,2.907887694E1
3.930369708E0,2.646122360E1,5.554499359E0,5.519921265E0,2.759562191E1
3.940292708E0,2.255958710E1,7.809410248E0,7.065906372E0,2.489676467E1
3.950215708E0,1.746837433E1,7.611821136E0,8.272696838E0,2.077309403E1
3.960138708E0,1.153486313E1,6.431675262E0,8.742569733E0,1.583830924E1
3.970062708E0,5.733527069E0,4.967869263E0,8.339907074E0,1.127417880E1
3.979985708E0,4.584965515E-1,3.574117584E0,6.868616638E0,7.756444425E0
3.989908708E0,-3.822451172E0,2.228116608E0,4.112098846E0,6.040280912E0
3.999831708E0,-6.446943512E0,1.027014313E0,5.638774109E-1,6.552541246E0
4.009754708E0,-7.192243652E0,4.200265503E-1,-2.935246124E0,7.779489756E0
4.019677708E0,-7.086114349E0,2.499801636E-1,-5.759273529E0,9.134809152E0
4.029600708E0,-6.890770569E0,1.419049072E-1,-7.507937164E0,1.019176023E1
4.039524708E0,-6.840325470E0,5.284011841E-2,-7.974067841E0,1.050612215E1
4.049447708E0,-6.673721924E0,-2.047741699E-1,-7.331005096E0,9.915852586E0
4.059370708E0,-5.865103455E0,-4.894821167E-1,-5.876030731E0,8.316656085E0
4.069293708E0,-4.221521301E0,-4.590953064E-1,-4.212240601E0,5.981219063E0
4.079216708E0,-2.424208832E0,-1.104702759E-1,-2.706821136E0,3.635364192E0
4.089139708E0,-8.439450073E-1,2.559677124E-1,-1.955832825E0,2.145470737E0
4.099062708E0,7.788304138E-1,5.502557373E-1,-1.974693604E0,2.192891474E0
4.108986708E0,2.127825165E0,8.993298340E-1,-2.256108398E0,3.229002816E0
4.118909708E0,3.326532440E0,1.290915527E0,-2.533032532E0,4.375903882E0
4.128832708E0,4.780758362E0,1.623374176E0,-2.991828461E0,5.868733404E0
4.138755708E0,6.508914642E0,1.874402161E0,-3.555556183E0,7.649923728E0
4.148678708E0,8.215066681E0,2.228415985E0,-3.760779419E0,9.305730504E0
4.158601708E0,9.353599091E0,2.341880035E0,-3.844006348E0,1.038029878E1
4.168524708E0,1.022344025E1,1.735491028E0,-3.687731323E0,1.100590850E1
4.178448708E0,1.157138718E1,1.024768982E0,-3.014431458E0,1.200141449E1
4.188371708E0,1.364771942E1,6.493496704E-1,-2.169438629E0,1.383431836E1
4.198294708E0,1.651830002E1,3.321592712E-1,-1.542542267E0,1.659349276E1
4.208217708E0,2.022114990E1,-1.734892273E-1,-1.357676697E0,2.026741937E1
4.218140708E0,2.471645187E1,-1.104702759E0,-1.473236389E0,2.478495081E1
4.228063708E0,2.901296722E1,-2.522404633E0,-1.668580170E0,2.917017230E1
4.237986708E0,3.142280594E1,-4.445455627E0,-2.037562866E0,3.180104513E1
4.247910708E0,3.123569504E1,-6.192772064E0,-1.773212585E0,3.189299850E1
4.257833708E0,3.018952057E1,-6.989714813E0,-1.252445526E0,3.101341460E1
4.267756708E0,2.996438873E1,-7.762407990E0,-1.633702698E0,3.099658940E1
4.277679708E0,2.931473969E1,-8.562494202E0,-2.319726105E0,3.062762477E1
4.287602708E0,2.816258560E1,-7.939639435E0,-2.399210815E0,2.935856459E1
4.297525708E0,2.633353912E1,-5.123695221E0,-1.452279968E0,2.686664573E1
4.307448708E0,2.381352951E1,-8.601113892E-1,2.758763123E-1,2.383065436E1
4.317372708E0,2.170845703E1,3.305576019E0,1.866468658E0,2.203786843E1
4.327295708E0,1.894744858E1,6.438860321E0,2.591710510E0,2.017874360E1
4.337218708E0,1.529684006E1,7.775730286E0,2.196532288E0,1.729971246E1
4.347141708E0,1.111483658E1,7.823181610E0,1.435514832E0,1.366756985E1
4.357064708E0,6.847211151E0,7.499554596E0,1.275796967E0,1.023500257E1
4.366987708E0,3.232078857E0,7.025939484E0,1.461710358E0,7.870626185E0
4.376910708E0,1.713935852E-1,5.717809753E0,1.293609924E0,5.864823166E0
4.386834708E0,-2.540516968E0,3.882027283E0,8.162525940E-1,4.710693217E0
4.396757708E0,-4.739743652E0,2.314636688E0,2.773731995E-1,5.282011812E0
4.406680708E0,-6.249204712E0,8.830137634E-1,-4.924758911E-2,6.311473533E0
4.416603708E0,-7.334447937E0,-4.981640625E-1,-2.417472839E-1,7.355320233E0
4.426526708E0,-7.988587646E0,-1.556762695E0,-5.650749207E-1,8.158452815E0
4.436449708E0,-8.139324188E0,-2.161954193E0,-8.792715454E-1,8.467335037E0
4.446372708E0,-7.724237366E0,-2.298320618E0,-1.068627777E0,8.129457907E0
4.456296708E0,-6.597081299E0,-2.075434113E0,-1.252744904E0,7.028390869E0
4.466219708E0,-4.877307587E0,-1.781894531E0,-1.640738068E0,5.445667895E0
4.476142708E0,-3.065175934E0,-1.323847046E0,-1.878294067E0,3.830908914E0
4.486065708E0,-1.181044006E0,-7.771838379E-1,-2.033970337E0,2.477077914E0
4.495988708E0,6.489006042E-1,-3.189866638E-1,-2.270029449E0,2.382405966E0
4.505911708E0,2.154170380E0,4.700225830E-2,-2.409689026E0,3.232531583E0
4.515835708E0,3.349434814E0,2.920426941E-1,-2.591261444E0,4.244836673E0
4.525758708E0,4.209695892E0,3.592529297E-1,-2.778072968E0,5.056509823E0
4.535681708E0,4.737049255E0,4.156855774E-1,-2.805765381E0,5.521299622E0
4.545604708E0,5.194647675E0,4.070036316E-1,-2.680475922E0,5.859604729E0
4.555527708E0,5.712121582E0,2.007325745E-1,-2.572400665E0,6.267844264E0
4.565450708E0,5.830375671E0,-2.065704346E-2,-2.444865875E0,6.322268290E0
4.575373708E0,6.032904510E0,-1.399589539E-1,-2.293680267E0,6.455733460E0
4.585297708E0,6.863078156E0,-3.056643677E-1,-2.133962402E0,7.193682507E0
4.595220708E0,8.531358948E0,-1.941462708E-1,-1.756597137E0,8.712485970E0
4.605143708E0,1.140568176E1,2.912942505E-1,-1.380579071E0,1.149262491E1
4.615066708E0,1.544293625E1,1.090482330E0,-1.250649261E0,1.553182395E1
4.624989708E0,1.988375153E1,2.028132477E0,-1.204545135E0,2.002318219E1
4.634912792E0,2.358824799E1,2.630629578E0,-1.614542542E0,2.378933380E1
4.644835792E0,2.569137451E1,2.438578949E0,-2.381996613E0,2.591654490E1
4.654759792E0,2.596530487E1,8.732839966E-1,-2.953508148E0,2.614733050E1
4.664682792E0,2.443189362E1,-1.534758453E0,-2.814297638E0,2.464129015E1
4.674605792E0,2.195858688E1,-3.475023651E0,-2.262095947E0,2.234664193E1
4.684528792E0,2.025677582E1,-4.657714233E0,-1.617087250E0,2.084817113E1
4.694451792E0,2.021800644E1,-6.185137939E0,-1.371448059E0,2.118736854E1
4.704374792E0,2.117152359E1,-8.688532104E0,-9.952803040E-1,2.290664934E1
4.714298792E0,2.080373840E1,-9.707313538E0,1.793270874E-1,2.295777920E1
4.724221792E0,2.024524979E1,-7.547454987E0,1.484762421E0,2.165730212E1
4.734144792E0,2.091196335E1,-3.530558167E0,1.936073914E0,2.129608965E1
4.744067792E0,2.105506577E1,4.243675232E-1,2.171534271E0,2.117100478E1
4.753990792E0,2.062141754E1,3.850592651E0,2.575693817E0,2.113537612E1
4.763913792E0,1.948468140E1,6.954537964E0,3.084186401E0,2.091723245E1
4.773836792E0,1.714968704E1,9.075776825E0,3.174748077E0,1.966114229E1
4.783760792E0,1.356509125E1,9.835147705E0,2.748135223E0,1.697922490E1
4.793683792E0,9.423204346E0,9.104816437E0,2.062860260E0,1.326460911E1
4.803606792E0,5.239404602E0,7.189549255E0,1.482367401E0,9.018779972E0
4.813529792E0,1.497186584E0,4.842579803E0,1.104553070E0,5.187695472E0
4.823452792E0,-1.502276001E0,2.866089935E0,5.646258545E-1,3.284829837E0
4.833375792E0,-3.787573700E0,1.503473511E0,-3.631448364E-1,4.091212693E0
4.843298792E0,-5.170547791E0,5.493576050E-1,-1.826501770E0,5.511122113E0
4.853222792E0,-5.706283722E0,-1.347198486E-2,-3.270548859E0,6.577107666E0
4.863145792E0,-5.281317444E0,-6.721023560E-2,-4.365521851E0,6.852343554E0
4.873068792E0,-4.298161926E0,3.439846802E-1,-5.225333862E0,6.774705556E0
4.882991792E0,-3.390748901E0,7.523355103E-1,-5.807772675E0,6.767082848E0
4.892914792E0,-2.372117157E0,1.022373962E0,-6.200705566E0,6.717212059E0
4.902837792E0,-1.177152100E0,1.251397705E0,-6.085594940E0,6.323460212E0
4.912760792E0,1.778302002E-1,1.428928528E0,-5.447771301E0,5.634862240E0
4.922684792E0,1.508712616E0,1.593885498E0,-4.599934387E0,5.096673533E0
4.932607792E0,2.730172577E0,1.606459351E0,-3.918401642E0,5.038692824E0
4.942530792E0,3.773353271E0,1.490600281E0,-3.442840576E0,5.321018262E0
4.952453792E0,4.548291779E0,1.221310272E0,-3.147055664E0,5.664143028E0
4.962376792E0,5.154082031E0,9.002279663E-1,-3.009791107E0,6.036042949E0
4.972299792E0,5.671106873E0,6.530918884E-1,-2.862946472E0,6.386270013E0
4.982223792E0,6.240971832E0,4.793032837E-1,-2.466720428E0,6.727865242E0
4.992146792E0,7.085365906E0,3.438349915E-1,-1.959275665E0,7.359306601E0
5.002069792E0,8.436007233E0,3.294648743E-1,-1.420396271E0,8.561091677E0
5.011992792E0,1.031609756E1,5.498066711E-1,-1.065634003E0,1.038555401E1
5.021915792E0,1.270812332E1,9.207353210E-1,-8.541238403E-1,1.277003052E1
5.031838792E0,1.544697784E1,1.117725677E0,-5.951623535E-1,1.549879523E1
5.041761792E0,1.836471039E1,7.232958984E-1,-3.870950317E-1,1.838302443E1
5.051685792E0,2.098351456E1,-3.980223083E-1,-2.381547546E-1,2.098864032E1
5.061608792E0,2.308454544E1,-2.089055786E0,-8.397537231E-2,2.317903027E1
5.071531792E0,2.464609818E1,-4.436174927E0,4.860392761E-1,2.504687680E1
5.081454792E0,2.515503983E1,-6.676566010E0,1.233135681E0,2.605519499E1
5.091377792E0,2.494367935E1,-8.423283691E0,1.294508057E0,2.635933609E1
5.101300792E0,2.468606506E1,-9.875563660E0,1.930984497E-1,2.658882948E1
5.111224792E0,2.493649429E1,-1.092413315E1,-1.440304871E0,2.726242672E1
5.121147792E0,2.410242874E1,-1.096260315E1,-2.893333282E0,2.663601165E1
5.131070792E0,2.252455994E1,-9.079219666E0,-3.365750885E0,2.451767340E1
5.140993792E0,2.229104553E1,-5.316943359E0,-2.079176331E0,2.301051003E1
5.150916792E0,2.260584091E1,-7.406597900E-1,3.191363525E-1,2.262022255E1
5.160839792E0,2.213596802E1,3.762276306E0,2.998714142E0,2.265277223E1
5.170762792E0,2.089684479E1,7.030729523E0,4.670737152E0,2.253719293E1
5.180686792E0,1.870375534E1,8.608748016E0,5.173691254E0,2.122988666E1
5.190609792E0,1.549293228E1,8.675359497E0,4.791086884E0,1.839150148E1
5.200532792E0,1.158066788E1,8.004754028E0,3.857478333E0,1.459685222E1
5.210455792E0,7.412884827E0,6.865922241E0,2.247875519E0,1.035107212E1
5.220378792E0,3.569327545E0,5.484744415E0,1.661544800E-1,6.546000896E0
5.230301792E0,4.239184570E-1,4.102069702E0,-1.986968079E0,4.577633105E0
5.240225792E0,-1.701212311E0,2.621648254E0,-3.899091797E0,4.997007078E0
5.250148792E0,-3.287313995E0,1.130000153E0,-5.595514069E0,6.587344787E0
5.260071792E0,-4.597838745E0,-1.631607056E-2,-6.637497253E0,8.074450887E0
5.269994792E0,-5.311554565E0,-5.551954651E-1,-6.526428223E0,8.432978077E0
5.279917792E0,-5.285059662E0,-7.415579224E-1,-5.574258270E0,7.717131530E0
5.289840792E0,-5.049599304E0,-7.870632935E-1,-4.588558044E0,6.868244804E0
5.299763792E0,-4.565056915E0,-6.384223938E-1,-3.774401093E0,5.957636394E0
5.309687792E0,-3.920796661E0,-2.445913696E-1,-3.124153290E0,5.019243486E0
5.319610792E0,-3.158432007E0,6.601272583E-2,-2.755769348E0,4.192173079E0
5.329533792E0,-2.101330261E0,1.246907043E-1,-2.820434875E0,3.519373456E0
5.339456792E0,-7.277865601E-1,2.622546387E-1,-3.009791107E0,3.107618587E0
5.349379792E0,8.487350464E-1,3.465293884E-1,-3.319497070E0,3.443761693E0
5.359302792E0,2.250719604E0,3.403921509E-1,-3.747756500E0,4.384892740E0
5.369226792E0,3.282673645E0,3.867956543E-1,-4.293072510E0,5.418120404E0
5.379149792E0,4.060306549E0,3.162922668E-1,-4.742587738E0,6.251261355E0
5.389072792E0,4.868475952E0,2.459385681E-1,-4.742288361E0,6.800870736E0
5.398995792E0,5.956263885E0,4.040098572E-1,-4.238885193E0,7.321779232E0
5.408918792E0,7.457791443E0,7.661068726E-1,-3.409160614E0,8.235772522E0
5.418841792E0,9.447753296E0,1.394350433E0,-2.590363312E0,9.895162331E0
5.428764792E0,1.186193298E1,2.016756134E0,-2.145787811E0,1.222199512E1
5.438688792E0,1.485959930E1,2.076781311E0,-2.013163605E0,1.513847878E1
5.448611792E0,1.818448517E1,1.543739777E0,-1.837429047E0,1.834215851E1
5.458534792E0,2.069611221E1,1.068029022E0,-1.645079041E0,2.078884393E1
5.468457792E0,2.183524338E1,1.164877625E0,-1.724114685E0,2.193415977E1
5.478380792E0,2.152463928E1,1.168470154E0,-1.943109283E0,2.164373102E1
5.488303792E0,2.111479156E1,8.337661743E-2,-2.112856293E0,2.122040377E1
5.498227792E0,2.112856293E1,-2.122136993E0,-1.993554382E0,2.132824174E1
5.508150792E0,2.147628983E1,-4.628075867E0,-1.243164825E0,2.200444432E1
5.518073792E0,2.275403275E1,-6.720724182E0,2.017803955E-1,2.372666970E1
5.527996792E0,2.507016632E1,-8.181237030E0,1.732946320E0,2.642818536E1
5.537919792E0,2.647005524E1,-8.368796997E0,2.636467438E0,2.788640436E1
5.547842792E0,2.767235504E1,-6.375691681E0,3.013533325E0,2.855678660E1
5.557765792E0,2.929513046E1,-2.480192413E0,3.979923706E0,2.966809424E1
5.567689792E0,2.980886215E1,1.490899658E0,4.646936646E0,3.020571245E1
5.577612792E0,2.785063431E1,4.964276733E0,4.234993286E0,2.860484300E1
5.587535792E0,2.370485550E1,7.336693268E0,2.422711945E0,2.493224369E1
5.597458792E0,1.866693192E1,7.663763123E0,-6.411167908E-1,2.018907237E1
5.607381792E0,1.248433868E1,6.644382935E0,-4.317322083E0,1.478667667E1
5.617304792E0,5.424719238E0,5.600603485E0,-7.151827698E0,1.058031085E1
5.627229042E0,-4.266128540E-1,4.712200928E0,-7.792645111E0,9.116586748E0
5.637152042E0,-4.136947174E0,3.645668793E0,-6.673572235E0,8.656893164E0
5.647075042E0,-6.024821320E0,2.598596191E0,-4.593048706E0,8.009199118E0
5.656998042E0,-6.619085541E0,1.492246857E0,-2.241289215E0,7.145800964E0
5.666921042E0,-6.528074799E0,1.210981750E-1,1.260379028E-1,6.530414297E0
5.676844042E0,-7.143744507E0,-1.219663696E0,1.648970947E0,7.432346217E0
5.686768042E0,-8.273594971E0,-1.983076172E0,1.871408386E0,8.711322184E0
5.696691042E0,-8.631500702E0,-2.397863617E0,1.053808594E0,9.020147828E0
5.706614042E0,-8.462651825E0,-2.561323700E0,-6.822811890E-1,8.868052922E0
5.716537042E0,-8.050109711E0,-2.391427002E0,-2.806364136E0,8.854313588E0
5.726460042E0,-7.002737732E0,-1.681752777E0,-4.542902985E0,8.514963046E0
5.736383042E0,-4.963977356E0,-5.212161255E-1,-5.699996796E0,7.576457016E0
5.746307042E0,-2.100881195E0,6.719526672E-1,-6.473288727E0,6.838763713E0
5.756230042E0,1.355581055E0,1.847458191E0,-6.457721100E0,6.852215960E0
5.766153042E0,4.894222412E0,2.548450470E0,-5.879024506E0,8.062936311E0
5.776076042E0,7.766748962E0,2.580932922E0,-5.571414185E0,9.900720186E0
5.785999042E0,9.626631317E0,2.123334503E0,-5.804928589E0,1.144018251E1
5.795922042E0,1.072115524E1,1.482367401E0,-6.284231873E0,1.251527679E1
5.805846042E0,1.141825562E1,1.171613617E0,-6.187982025E0,1.303995250E1
5.815769042E0,1.208841202E1,1.389111328E0,-5.027295685E0,1.316560053E1
5.825692042E0,1.308788361E1,1.522933044E0,-3.051105194E0,1.352483883E1
5.835615042E0,1.457578949E1,1.770368500E0,-5.535488892E-1,1.469334068E1
5.845538042E0,1.696137863E1,2.019450531E0,1.676064606E0,1.716320885E1
5.855461042E0,2.023162811E1,2.112407227E0,3.049009552E0,2.056884780E1
5.865384042E0,2.333871689E1,1.572929077E0,3.279979248E0,2.362050117E1
5.875308042E0,2.502525970E1,-4.311035156E-2,3.224893799E0,2.523222982E1
5.885231042E0,2.475357468E1,-2.671793976E0,3.811374207E0,2.518738803E1
5.895154042E0,2.431857925E1,-5.772595825E0,5.395230560E0,2.556999555E1
5.905077042E0,2.460658035E1,-8.448431396E0,7.769892426E0,2.715199842E1
5.915000042E0,2.467289246E1,-1.008797195E1,9.259893951E0,2.821815792E1
5.924923042E0,2.468471786E1,-1.002989273E1,9.120833130E0,2.816245091E1
5.934847042E0,2.565724548E1,-7.861052856E0,7.912096710E0,2.797662725E1
5.944770042E0,2.666524933E1,-3.266058197E0,6.751410370E0,2.769989530E1
5.954693042E0,2.641961014E1,2.507286072E0,4.939129028E0,2.699402302E1
5.964616042E0,2.415047882E1,7.366032257E0,1.965861969E0,2.532525759E1
5.974539042E0,2.042891785E1,9.982142029E0,-1.230141907E0,2.277053124E1
5.984462042E0,1.555385559E1,9.877509613E0,-3.466790771E0,1.874850016E1
5.994386042E0,1.010398865E1,8.039182434E0,-3.913461914E0,1.349200596E1
6.004309042E0,4.718637543E0,5.990991669E0,-3.055595856E0,8.215484615E0
6.014232042E0,3.951782227E-2,4.400549011E0,-1.889071655E0,4.789048442E0
6.024155042E0,-3.459605713E0,3.349285126E0,-3.947291565E-1,4.831396656E0
6.034078042E0,-5.561235352E0,2.588267670E0,1.105900269E0,6.232935389E0
6.044001042E0,-6.187383270E0,1.982327728E0,2.010618896E0,6.801170730E0
6.053925042E0,-5.279521179E0,1.259780273E0,1.730850677E0,5.697037325E0
6.063848042E0,-3.967499542E0,6.789880371E-1,2.592608643E-1,4.033521237E0
6.073771042E0,-3.082539825E0,4.878355408E-1,-1.634151764E0,3.522852151E0
6.083694042E0,-2.332000580E0,5.017565918E-1,-3.645219727E0,4.356330249E0
6.093617042E0,-1.724414063E0,5.617817688E-1,-5.479355621E0,5.771701711E0
6.103540042E0,-1.571881256E0,6.147715759E-1,-6.442901917E0,6.660310795E0
6.113464042E0,-1.320254517E0,8.970845032E-1,-6.235283661E0,6.436349503E0
6.123387042E0,-5.087919617E-1,1.132993927E0,-5.154381409E0,5.301904583E0
6.133310042E0,5.508544922E-1,1.168021088E0,-3.757037201E0,3.972787744E0
6.143233042E0,1.639390869E0,9.207353210E-1,-2.524799652E0,3.148010362E0
6.153156042E0,2.569107513E0,6.345304871E-1,-1.701212311E0,3.145960216E0
6.163079042E0,3.408262482E0,5.156776428E-1,-1.166973267E0,3.639231125E0
6.173003042E0,4.196523285E0,5.752537537E-1,-1.037342834E0,4.360940807E0
6.182926042E0,5.139113159E0,8.937913513E-1,-1.317111053E0,5.379974774E0
6.192849042E0,6.230044556E0,1.374441833E0,-1.732796631E0,6.610985530E0
6.202772042E0,7.393874359E0,1.712588654E0,-1.988914032E0,7.845898098E0
6.212695042E0,9.004674683E0,1.734443207E0,-1.703906708E0,9.327151626E0
6.222618042E0,1.118489090E1,1.786684570E0,-8.997789001E-1,1.136237776E1
6.232542042E0,1.373648483E1,1.692230988E0,-9.131011963E-3,1.384033037E1
6.242465042E0,1.641995453E1,1.189276886E0,7.643106079E-1,1.648069953E1
6.252388042E0,1.898232605E1,4.321513367E-1,1.324296112E0,1.903337115E1
6.262311042E0,2.143617325E1,-6.376739502E-1,1.492695923E0,2.149754155E1
6.272234042E0,2.398567154E1,-2.199975128E0,1.764680328E0,2.415090943E1
6.282157042E0,2.547702026E1,-3.954776001E0,1.533111877E0,2.582768373E1
6.292081042E0,2.521656189E1,-5.131928101E0,5.905220032E-1,2.574024856E1
6.302004042E0,2.512210831E1,-6.158643036E0,-2.210902405E-1,2.586693045E1
6.311927042E0,2.598102219E1,-7.496411133E0,-4.715194702E-1,2.704499999E1
6.321850042E0,2.678844315E1,-8.925339661E0,-1.062789917E-1,2.823638910E1
6.331773042E0,2.664219727E1,-9.624236298E0,9.333091736E-1,2.834261218E1
6.341696042E0,2.579406097E1,-8.066725159E0,2.935844879E0,2.718501097E1
6.351620042E0,2.483710098E1,-4.193828888E0,5.445076904E0,2.577049958E1
6.361543042E0,2.346969452E1,5.542973328E-1,7.127428436E0,2.453434414E1
6.371466042E0,2.131118317E1,4.555476837E0,6.594536591E0,2.276854870E1
6.381389042E0,1.827759155E1,6.598129120E0,3.880081329E0,1.981566784E1
6.391312042E0,1.452564377E1,7.172335052E0,2.526745605E-1,1.620186907E1
6.401235042E0,9.918374634E0,7.086563416E0,-2.387086029E0,1.242142166E1
6.411159042E0,5.141358490E0,6.509064331E0,-3.247197418E0,8.907624636E0
6.421082042E0,1.530118103E0,5.213209076E0,-2.641706543E0,6.041309770E0
6.431005042E0,-5.062472534E-1,3.345692596E0,-1.259929962E0,3.610729669E0
6.440928042E0,-1.798659668E0,1.537003784E0,8.083190918E-3,2.365929537E0
6.450851042E0,-2.980901184E0,2.981799316E-1,4.596940613E-1,3.030841759E0
6.460774042E0,-4.068539429E0,-4.058061218E-1,7.649093628E-2,4.089442817E0
6.470698042E0,-5.009482727E0,-8.123606873E-1,-8.848100281E-1,5.151478998E0
6.480621042E0,-5.813311157E0,-1.191522217E0,-2.093247070E0,6.292534871E0
6.490544042E0,-6.232589264E0,-1.206191711E0,-3.064128113E0,7.049038833E0
6.500467042E0,-5.736071777E0,-7.764353943E-1,-3.890858917E0,6.974536147E0
6.510390042E0,-4.272565155E0,-2.986289978E-1,-4.792284393E0,6.427284185E0
6.520313042E0,-2.567011871E0,2.993774414E-2,-5.436993713E0,6.012599010E0
6.530237042E0,-9.220825195E-1,3.188369751E-1,-5.638774109E0,5.722557701E0
6.540160042E0,8.367599487E-1,5.890251160E-1,-5.532046051E0,5.625891157E0
6.550083042E0,2.428250427E0,9.821076965E-1,-5.367238770E0,5.972284963E0
6.560006042E0,3.352278900E0,1.338516541E0,-5.331163788E0,6.438222401E0
6.569929042E0,3.944297791E0,1.509910126E0,-5.427413635E0,6.877072954E0
6.579853042E0,4.566703491E0,1.563049622E0,-5.381459198E0,7.228970051E0
6.589776042E0,5.476810913E0,1.629062347E0,-5.122946777E0,7.674235180E0
6.599699042E0,7.134314117E0,1.864672394E0,-4.442761230E0,8.608923766E0
6.609622042E0,9.612410889E0,2.195035400E0,-3.654650116E0,1.051537403E1
6.619545042E0,1.271530838E1,2.492915955E0,-2.672542419E0,1.323012397E1
6.629467917E0,1.622970016E1,2.978206787E0,-1.596579895E0,1.657775469E1
6.639390917E0,2.014720367E1,3.271297302E0,-6.010002136E-1,2.041990213E1
6.649314917E0,2.380170410E1,3.073558502E0,6.227050781E-2,2.399941161E1
6.659237917E0,2.636212967E1,2.775079193E0,3.676354980E-1,2.651033951E1
6.669160917E0,2.729109787E1,1.781595154E0,2.570155334E-1,2.735039600E1
6.679083917E0,2.691927109E1,-4.278103638E-1,-3.721261597E-1,2.692524198E1
6.689006917E0,2.553450073E1,-2.635419617E0,-1.002016296E0,2.568969056E1
6.698930917E0,2.330563568E1,-3.784729614E0,-1.719624023E0,2.367348600E1
6.708853917E0,2.285552170E1,-4.323609009E0,-2.170336761E0,2.336190978E1
6.718776917E0,2.433788910E1,-5.532495117E0,-2.386936340E0,2.507267064E1
6.728699917E0,2.460253876E1,-6.575675812E0,-2.084565125E0,2.555131772E1
6.738622917E0,2.316956863E1,-6.419999542E0,-1.077309723E0,2.406669693E1
6.748545917E0,2.067530548E1,-4.869523773E0,9.488768005E-1,2.126219381E1
6.758469917E0,1.781535278E1,-1.932631073E0,3.778292999E0,1.831385693E1
6.768392917E0,1.567525314E1,1.015637970E0,6.231691132E0,1.689908447E1
6.778315917E0,1.485750366E1,3.095862122E0,7.064708862E0,1.674036704E1
6.788238917E0,1.392838577E1,4.408033447E0,5.886658630E0,1.575066471E1
6.798161917E0,1.173679321E1,4.860841827E0,3.315904541E0,1.312917823E1
6.808084917E0,8.188122711E0,4.539609833E0,1.760339355E-1,9.363994816E0
6.818008917E0,4.058360596E0,3.278632050E0,-2.465522919E0,5.770487163E0
6.827931917E0,1.308279419E-1,1.376088409E0,-3.597918091E0,3.854315743E0
6.837854917E0,-3.324736176E0,-6.890171814E-1,-3.682641907E0,5.009038503E0
6.847777917E0,-5.978717194E0,-2.485730896E0,-3.229234772E0,7.235459528E0
6.857700917E0,-7.790848846E0,-3.694018250E0,-2.502795410E0,8.978144655E0
6.867623917E0,-8.713380432E0,-4.259991302E0,-1.872007141E0,9.878002591E0
6.877547917E0,-8.944200439E0,-4.368216248E0,-1.694476318E0,1.009709288E1
6.887470917E0,-8.303682404E0,-4.123475189E0,-2.202968903E0,9.529284395E0
6.897393917E0,-6.949897614E0,-3.397035828E0,-3.073558502E0,8.323922820E0
6.907316917E0,-5.301076355E0,-2.395019531E0,-4.024081879E0,7.073242824E0
6.917239917E0,-3.260669403E0,-1.685345306E0,-4.783901825E0,6.029765371E0
6.927163917E0,-1.255439301E0,-1.037193146E0,-4.905898132E0,5.169113458E0
6.937086917E0,4.673281860E-1,-2.237846375E-1,-4.298012238E0,4.329132060E0
6.947009917E0,1.707050171E0,5.364843750E-1,-3.455713806E0,3.891502754E0
6.956932917E0,2.561922455E0,8.351133728E-1,-2.626887360E0,3.763163325E0
6.966855917E0,3.293900299E0,7.948471069E-1,-1.858385468E0,3.864603168E0
6.976778917E0,3.883823547E0,5.640270996E-1,-1.329984283E0,4.143798995E0
6.986702917E0,4.536915436E0,2.818638611E-1,-1.298100586E0,4.727379193E0
6.996625917E0,5.550158386E0,1.712438965E-1,-1.649270325E0,5.792553426E0
7.006548917E0,7.088509369E0,5.683680725E-1,-2.331850891E0,7.483818271E0
7.016471917E0,9.067993011E0,1.196012878E0,-3.023263092E0,9.633227070E0
7.026394917E0,1.179023209E1,1.801952820E0,-3.388503571E0,1.239913558E1
7.036317917E0,1.534758453E1,2.767445068E0,-3.229534149E0,1.592598487E1
7.046241917E0,1.949276459E1,3.933220825E0,-2.943628693E0,2.010231447E1
7.056164917E0,2.428564774E1,4.716841278E0,-2.917582855E0,2.491091261E1
7.066087917E0,2.846765121E1,4.616400146E0,-3.320395203E0,2.903004203E1
7.076010917E0,3.099245087E1,3.143912201E0,-3.637884979E0,3.136320140E1
7.085933917E0,3.092224686E1,1.154848480E0,-3.456162872E0,3.113621826E1
7.095857917E0,2.900413559E1,-1.819616089E0,-2.725083160E0,2.918864441E1
7.105780917E0,2.706461884E1,-5.707481232E0,-8.916957092E-1,2.767424897E1
7.115703917E0,2.491987885E1,-9.191785583E0,1.594933319E0,2.660889130E1
7.125626917E0,2.192730194E1,-1.067744614E1,4.221521301E0,2.475147811E1
7.135549917E0,1.863938919E1,-9.917326813E0,6.226751404E0,2.201255627E1
7.145472917E0,1.619602020E1,-6.895560608E0,6.988217926E0,1.893924540E1
7.155396917E0,1.573647583E1,-2.940185852E0,6.592440948E0,1.731304832E1
7.165319917E0,1.608629837E1,3.655398560E-1,4.971312103E0,1.684091918E1
7.175242917E0,1.569022202E1,3.485052795E0,2.440824280E0,1.625688417E1
7.185165917E0,1.438224197E1,5.877527618E0,-4.258644104E-1,1.554270168E1
7.195088917E0,1.235845047E1,6.845863953E0,-2.641257477E0,1.437266128E1
7.205011917E0,9.702523499E0,6.851851501E0,-3.450474701E0,1.236901802E1
7.214935917E0,6.763385468E0,6.291716309E0,-2.962788849E0,9.700886292E0
7.224858917E0,3.864064636E0,5.266049194E0,-1.653012543E0,6.737560397E0
7.234781917E0,1.315015411E0,4.008963318E0,-4.168830872E-1,4.239674979E0
7.244704917E0,-6.454577637E-1,2.773133240E0,1.249900818E-1,2.850001090E0
7.254627917E0,-2.039808197E0,1.686842194E0,9.175918579E-2,2.648522950E0
7.264551917E0,-3.018473053E0,7.696994019E-1,-4.011657715E-1,3.140788232E0
7.274474917E0,-3.845503235E0,3.267704773E-1,-1.508562927E0,4.143722503E0
7.284397917E0,-4.402345276E0,3.646417236E-1,-3.145858154E0,5.423101607E0
7.294320917E0,-4.527784424E0,4.456233215E-1,-4.875062256E0,6.668256439E0
7.304243917E0,-4.400698700E0,4.239184570E-1,-5.942941589E0,7.407051413E0
7.314166917E0,-3.821553040E0,4.625381470E-1,-6.203399963E0,7.300710943E0
7.324090917E0,-2.447709961E0,5.923182678E-1,-5.660478973E0,6.195413400E0
7.334013917E0,-5.177732849E-1,7.961943054E-1,-4.685406647E0,4.780695555E0
7.343936917E0,1.349294128E0,1.125808868E0,-3.593726807E0,4.000364060E0
7.353859917E0,2.878364410E0,1.412911835E0,-2.611469421E0,4.135344492E0
7.363782917E0,4.453538818E0,1.648521881E0,-1.980082397E0,5.145129610E0
7.373706917E0,5.903124390E0,2.006128235E0,-1.644330597E0,6.447887341E0
7.383629917E0,6.889423370E0,2.424358521E0,-1.656006317E0,7.488926861E0
7.393552917E0,7.965984650E0,2.714155884E0,-1.886976013E0,8.624629388E0
7.403475917E0,9.539362793E0,2.604583740E0,-2.081122284E0,1.010516546E1
7.413398917E0,1.145852188E1,2.150877228E0,-1.728605347E0,1.178609660E1
7.423321917E0,1.400906799E1,1.927391968E0,-4.712200928E-1,1.414888244E1
7.433245917E0,1.719638992E1,1.906285858E0,1.177301788E0,1.734173554E1
7.443168917E0,2.031066376E1,1.534608765E0,2.411634979E0,2.051082811E1
7.453091917E0,2.314007996E1,6.628216553E-1,2.756966858E0,2.331316150E1
7.463014917E0,2.506627441E1,-1.091979218E0,2.148931274E0,2.518190694E1
7.472937917E0,2.617786285E1,-2.855761414E0,1.030157776E0,2.635331292E1
7.482861917E0,2.679443069E1,-4.712500305E0,-3.062631226E-1,2.720740657E1
7.492784917E0,2.719619522E1,-7.121141510E0,-1.931433563E0,2.817932090E1
7.502707917E0,2.760604294E1,-9.532626801E0,-3.007994843E0,2.936005132E1
7.512630917E0,2.695953735E1,-1.144415176E1,-2.593357086E0,2.940256392E1
7.522553917E0,2.512764679E1,-1.208960953E1,-6.795867920E-1,2.789299428E1
7.532476917E0,2.274699738E1,-9.375303955E0,2.658471680E0,2.474650855E1
7.542400917E0,2.110087051E1,-4.154161377E0,6.046226807E0,2.233966544E1
7.552323917E0,1.997012192E1,7.598199463E-1,8.600365448E0,2.175659398E1
7.562246917E0,1.831725906E1,4.531227264E0,9.123377838E0,2.095924673E1
7.572169917E0,1.521990005E1,6.709347839E0,7.575297089E0,1.827692075E1
7.582092917E0,1.061831909E1,7.488777008E0,4.921166382E0,1.389418439E1
7.592016917E0,5.620811462E0,7.152426453E0,2.097588043E0,9.335448637E0
7.601939917E0,1.389560394E0,6.158193970E0,2.233355713E-1,6.316969988E0
7.611862917E0,-1.562450867E0,4.817282410E0,-6.255491638E-1,5.102820228E0
7.621785917E0,-3.801644440E0,3.314856720E0,-1.176553345E0,5.179290810E0
7.631709292E0,-5.304968262E0,1.863474884E0,-1.557361450E0,5.834432414E0
7.641632292E0,-6.142476654E0,7.361691284E-1,-1.458417206E0,6.356016455E0
7.651556292E0,-6.463109894E0,-5.313949585E-2,-1.299148407E0,6.592601906E0
7.661479292E0,-6.177204437E0,-5.152285767E-1,-1.608554993E0,6.403964734E0
7.671402292E0,-5.407505035E0,-6.939569092E-1,-2.402054901E0,5.957562811E0
7.681325292E0,-4.120032349E0,-6.301895142E-1,-3.294199677E0,5.312584765E0
7.691248292E0,-2.367626495E0,-3.387455750E-1,-4.100423126E0,4.746985738E0
7.701172292E0,-4.186793518E-1,2.064207458E-1,-4.615202637E0,4.638749541E0
7.711095292E0,1.595831451E0,9.125024414E-1,-4.652924194E0,5.002903386E0
7.721018292E0,3.543880463E0,1.678309937E0,-4.388274536E0,5.884961035E0
7.730941292E0,5.405259705E0,2.147284698E0,-4.255051575E0,7.206464317E0
7.740864292E0,6.932833099E0,2.245630188E0,-4.167333984E0,8.394861658E0
7.750787292E0,8.014334106E0,2.129920807E0,-4.076023865E0,9.240134434E0
7.760711292E0,8.864566040E0,1.807940369E0,-3.954177246E0,9.873433909E0
7.770634292E0,9.808054047E0,1.297352142E0,-3.710484009E0,1.056639666E1
7.780557292E0,1.098969681E1,8.062234497E-1,-3.206332397E0,1.147623630E1
7.790480292E0,1.229513214E1,4.427792358E-1,-2.583477631E0,1.257142333E1
7.800403292E0,1.360880035E1,3.367996216E-1,-1.673669586E0,1.371546758E1
7.810327292E0,1.507410324E1,6.405180359E-1,-6.640191650E-1,1.510231020E1
7.820250292E0,1.675211380E1,8.595126343E-1,7.514373779E-2,1.677431743E1
7.830173292E0,1.811772400E1,6.337820435E-1,4.306544495E-1,1.813392031E1
7.840096292E0,1.902244263E1,-4.349954224E-1,1.907034302E-1,1.902837125E1
7.850019292E0,1.929622330E1,-2.193239136E0,-2.833607483E-1,1.942253394E1
7.859943292E0,1.898666702E1,-4.017944641E0,-7.753875732E-1,1.942263189E1
7.869866292E0,1.855242004E1,-5.723647614E0,-1.076561279E0,1.944508719E1
7.879789292E0,1.845721802E1,-7.396119690E0,-1.142873383E0,1.991676788E1
7.889712292E0,1.896511185E1,-9.370962982E0,-1.224304047E0,2.118936844E1
7.899635292E0,1.883099075E1,-1.141750717E1,-1.168619843E0,2.205292169E1
7.909558292E0,1.701302124E1,-1.210203369E1,1.481918335E-2,2.087827413E1
7.919482292E0,1.552616318E1,-1.019499939E1,2.072440338E0,1.868942922E1
7.929405292E0,1.660871201E1,-6.707401886E0,3.943699036E0,1.834097371E1
7.939328292E0,1.881617157E1,-2.793490906E0,5.619763641E0,1.983516189E1
7.949251292E0,1.992296997E1,1.031954041E0,6.600524139E0,2.101324774E1
7.959174292E0,1.958093124E1,4.378095703E0,6.651717682E0,2.113825770E1
7.969098292E0,1.796578995E1,6.690187683E0,6.093229065E0,2.011605478E1
7.979021292E0,1.485121674E1,8.128845978E0,5.441334686E0,1.778327581E1
7.988944292E0,1.106843307E1,8.743617554E0,5.073998566E0,1.499021414E1
7.998867292E0,7.813451843E0,8.212671661E0,4.954397278E0,1.237109768E1
8.008790292E0,5.147795105E0,6.925049286E0,4.599784698E0,9.778247355E0
8.018713292E0,2.791544952E0,5.693111115E0,3.378773804E0,7.184730322E0
8.028637292E0,1.300196228E0,4.525838470E0,1.194965057E0,4.858154545E0
8.038560292E0,7.370672607E-1,3.237767029E0,-1.540296936E0,3.660453268E0
8.048483292E0,3.712280273E-1,2.129771118E0,-4.367018738E0,4.872841873E0
8.058406292E0,-4.875361633E-1,1.343456268E0,-6.737489319E0,6.887403617E0
8.068329292E0,-1.742376709E0,7.072792053E-1,-8.261470184E0,8.472780540E0
8.078253292E0,-2.974165192E0,3.100053406E-1,-8.892557831E0,9.381862644E0
8.088176292E0,-3.631148987E0,1.996847534E-1,-8.646619263E0,9.380252749E0
8.098099292E0,-3.759731598E0,3.362008667E-1,-7.814349976E0,8.678287749E0
8.108022292E0,-3.226839752E0,6.744973755E-1,-6.552174683E0,7.334741616E0
8.117945292E0,-1.695823517E0,1.111588440E0,-5.083428955E0,5.472905645E0
8.127869292E0,3.776646423E-1,1.685644684E0,-3.825744324E0,4.197659850E0
8.137792292E0,3.108585663E0,2.185904388E0,-2.968327332E0,4.822079423E0
8.147715292E0,6.116281128E0,2.690505066E0,-2.433339844E0,7.111178182E0
8.157638292E0,8.704848175E0,3.177442474E0,-2.098635864E0,9.501304906E0
8.167561292E0,1.040531204E1,3.469934235E0,-1.742526398E0,1.110618569E1
8.177484292E0,1.138966507E1,3.284469910E0,-1.389410706E0,1.193493507E1
8.187408292E0,1.260349091E1,2.732866974E0,-8.919950867E-1,1.292718841E1
8.197331292E0,1.482202744E1,2.106419678E0,-3.734733582E-1,1.497561296E1
8.207254292E0,1.745295639E1,1.212778015E0,-5.583389282E-2,1.749513174E1
8.217177292E0,1.956386673E1,1.222956848E-1,-1.471440125E-1,1.956480230E1
8.227100292E0,2.077993790E1,-1.004860382E0,-8.117619324E-1,2.082005093E1
8.237024292E0,2.070883575E1,-1.964963837E0,-1.649270325E0,2.086712855E1
8.246947292E0,1.987252487E1,-3.090922394E0,-2.596051483E0,2.027832659E1
8.256870292E0,1.871947266E1,-4.413871307E0,-3.381617889E0,1.952783285E1
8.266793292E0,1.791489578E1,-5.625900879E0,-3.672313385E0,1.913322077E1
8.276716292E0,1.827579529E1,-7.214397583E0,-3.936064911E0,2.003858360E1
8.286640292E0,1.940684326E1,-9.636660461E0,-4.068539429E0,2.204640114E1
8.296563292E0,1.906390640E1,-1.175894714E1,-3.268303528E0,2.263597078E1
8.306486292E0,1.706900482E1,-1.172526718E1,-1.070723419E0,2.073594138E1
8.316409292E0,1.683339478E1,-8.887318726E0,1.849254456E0,1.912504525E1
8.326332292E0,1.886751480E1,-4.535867615E0,4.486170959E0,1.991690085E1
8.336255292E0,2.056588303E1,-1.499880981E-1,6.301595764E0,2.151018713E1
8.346179292E0,2.098096985E1,3.902684326E0,6.953041077E0,2.244497318E1
8.356102292E0,1.998359390E1,7.366181946E0,6.403234406E0,2.223974084E1
8.366025292E0,1.724623627E1,9.569749603E0,5.016667786E0,2.035140606E1
8.375948292E0,1.339294922E1,9.732760620E0,2.991080017E0,1.682391981E1
8.385871292E0,9.270372162E0,7.702831879E0,7.896080017E-1,1.207877890E1
8.395795292E0,5.341043243E0,4.658911743E0,-7.909552002E-1,7.131466307E0
8.405718292E0,1.864522705E0,1.976340179E0,-1.733994141E0,3.223212854E0
8.415641292E0,-9.156459045E-1,2.639012146E-1,-2.602188721E0,2.771179787E0
8.425564292E0,-3.031346283E0,-6.890171814E-1,-3.739822998E0,4.863134896E0
8.435487292E0,-4.610562286E0,-1.122366028E0,-5.349725189E0,7.150982429E0
8.445411292E0,-5.911207581E0,-1.074166260E0,-6.573879547E0,8.905734137E0
8.455334292E0,-6.834337921E0,-5.221142578E-1,-6.960076447E0,9.768492323E0
8.465257292E0,-7.159910889E0,1.064286804E-1,-6.800657959E0,9.875454403E0
8.475180292E0,-6.784341888E0,5.501060486E-1,-6.232589264E0,9.229034644E0
8.485103292E0,-5.305866394E0,9.443861389E-1,-5.151687012E0,7.455465273E0
8.495027292E0,-2.914140015E0,1.403780823E0,-3.584446106E0,4.828153530E0
8.504950292E0,-4.791535950E-1,1.804647217E0,-2.010020142E0,2.743450512E0
8.514873292E0,2.030078430E0,2.016756134E0,-1.058448944E0,3.051038824E0
8.524796292E0,4.452940063E0,2.310744781E0,-5.647755432E-1,5.048483740E0
8.534719292E0,6.580166473E0,2.708168335E0,-2.637515259E-1,7.120556960E0
8.544642292E0,8.156388702E0,3.023412781E0,-4.098477173E-1,8.708368197E0
8.554566292E0,9.646839294E0,3.159030762E0,-8.622070313E-1,1.018746213E1
8.564489292E0,1.110944778E1,3.160976715E0,-1.282982025E0,1.162143049E1
8.574412292E0,1.219693634E1,2.777025146E0,-1.508263550E0,1.259968189E1
8.584335292E0,1.393976212E1,1.944007416E0,-1.501677246E0,1.415454581E1
8.594258292E0,1.646905243E1,9.339079285E-1,-1.090482330E0,1.653151607E1
8.604182292E0,1.941283081E1,-3.847000122E-2,-7.135661316E-1,1.942597891E1
8.614105292E0,2.225018051E1,-9.919871521E-1,-4.318519592E-1,2.227646892E1
8.624028292E0,2.474653931E1,-2.250120850E0,-2.246827698E-1,2.484964253E1
8.633950417E0,2.542672485E1,-3.695964203E0,-8.068222046E-2,2.569406542E1
8.643873417E0,2.445719101E1,-4.788242798E0,-2.402503967E-1,2.492266401E1
8.653797417E0,2.351519989E1,-6.013444977E0,-5.477110291E-1,2.427809988E1
8.663720417E0,2.356564499E1,-7.484286346E0,-6.286926270E-1,2.473356869E1
8.673643417E0,2.369722137E1,-8.699010315E0,-1.719923401E-1,2.524402232E1
8.683566417E0,2.226140717E1,-8.094567261E0,7.807763672E-1,2.370025063E1
8.693489417E0,2.096914444E1,-5.003944244E0,1.971250763E0,2.164787071E1
8.703413417E0,2.178060699E1,-1.230291595E0,3.237168274E0,2.205419953E1
8.713336417E0,2.324620926E1,2.053729248E0,4.203858032E0,2.371236958E1
8.723259417E0,2.275987061E1,5.277275848E0,3.858675842E0,2.368017588E1
8.733182417E0,2.012430130E1,7.968679047E0,1.819765778E0,2.172093221E1
8.743105417E0,1.570623871E1,9.466314697E0,-1.225651245E0,1.837931634E1
8.753029417E0,1.028690826E1,9.766290894E0,-3.935017090E0,1.472023366E1
8.762952417E0,4.619393921E0,8.849746857E0,-5.101241913E0,1.121068636E1
8.772875417E0,2.327659607E-1,6.756350098E0,-4.667294312E0,8.214991347E0
8.782798417E0,-2.513722687E0,3.905977478E0,-3.649860077E0,5.907363235E0
8.792721417E0,-4.724325714E0,1.552272034E0,-2.144739990E0,5.415598909E0
8.802645417E0,-6.226002960E0,1.332229614E-2,-6.411167908E-1,6.258939294E0
8.812568417E0,-7.181915131E0,-7.113208008E-1,7.297325134E-1,7.253853580E0
8.822491417E0,-7.983498230E0,-6.505471802E-1,1.530267792E0,8.154825267E0
8.832414417E0,-8.478369141E0,-3.192860413E-1,1.697619781E0,8.652548745E0
8.842337417E0,-8.221952362E0,-7.888595581E-2,1.345252533E0,8.331652178E0
8.852260417E0,-7.076683960E0,1.172062683E-1,4.987628174E-1,7.095206658E0
8.862184417E0,-5.009033661E0,4.029620361E-1,-4.568499756E-1,5.045939805E0
8.872107417E0,-2.286794586E0,9.419911194E-1,-1.041234741E0,2.683457944E0
8.882030417E0,4.397854614E-1,1.540296936E0,-1.582808533E0,2.251934447E0
8.891953417E0,2.656974792E0,1.946701813E0,-2.293829956E0,4.013828455E0
8.901876417E0,4.367617493E0,2.191293182E0,-2.945424957E0,5.705556638E0
8.911800417E0,5.335205383E0,2.251168671E0,-3.317551117E0,6.673703790E0
8.921723417E0,5.891149292E0,2.141446838E0,-3.508553925E0,7.183410415E0
8.931646417E0,6.427334290E0,1.801952820E0,-3.410058746E0,7.495742838E0
8.941569417E0,6.938221893E0,1.632804565E0,-2.926414490E0,7.705120087E0
8.951492417E0,7.911348267E0,1.653012543E0,-2.561772766E0,8.478476371E0
8.961416417E0,1.009066635E1,1.643133087E0,-2.536475372E0,1.053352463E1
8.971339417E0,1.330373474E1,1.687890015E0,-2.492766266E0,1.364009584E1
8.981262417E0,1.690808945E1,1.432071991E0,-2.475252686E0,1.714821258E1
8.991185417E0,2.021127045E1,5.884263611E-1,-2.588567047E0,2.038485659E1
9.001108417E0,2.269954605E1,-7.897576904E-1,-2.474504242E0,2.284767558E1
9.011032417E0,2.444117432E1,-2.362387390E0,-1.977837067E0,2.463460403E1
9.020955417E0,2.553120758E1,-3.747906189E0,-1.235231323E0,2.583437938E1
9.030878417E0,2.585154144E1,-5.158123627E0,-8.184979248E-1,2.637381984E1
9.040801417E0,2.508753021E1,-6.519991608E0,-7.958949280E-1,2.593314311E1
9.050724417E0,2.474444366E1,-7.894583130E0,-8.343649292E-1,2.598669082E1
9.060648417E0,2.517360123E1,-9.375154266E0,-7.490423584E-1,2.687312376E1
9.070571417E0,2.497331772E1,-1.032522858E1,-4.971162415E-1,2.702820874E1
9.080494417E0,2.380275192E1,-9.853110352E0,-1.826202393E-2,2.576150454E1
9.090417417E0,2.307137283E1,-7.129075012E0,1.442101135E0,2.419073398E1
9.100340417E0,2.366593643E1,-3.019969940E0,3.216361542E0,2.407367332E1
9.110264417E0,2.444686249E1,8.264314270E-1,4.042493591E0,2.479261642E1
9.120187417E0,2.406919785E1,4.049528961E0,3.060834961E0,2.459865200E1
9.130110417E0,2.141581558E1,6.354735260E0,1.454974365E-1,2.233922530E1
9.140033417E0,1.592867615E1,7.508835297E0,-3.818110199E0,1.801897047E1
9.149956417E0,9.012009430E0,7.288044434E0,-7.406597900E0,1.375462097E1
9.159880417E0,2.645748138E0,5.528453522E0,-8.783135376E0,1.071014699E1
9.169803417E0,-2.506088562E0,3.371139679E0,-8.015381927E0,9.049387275E0
9.179726417E0,-5.349126434E0,1.381028137E0,-6.111790466E0,8.238590597E0
9.189649417E0,-6.498436432E0,-5.583389282E-1,-3.683540039E0,7.490653218E0
9.199572417E0,-7.055727539E0,-1.776954803E0,-1.512754211E0,7.431640787E0
9.209495417E0,-7.445816345E0,-2.091151428E0,-2.055226135E-1,7.736622964E0
9.219419417E0,-7.942333832E0,-1.592388611E0,4.914280701E-1,8.115286177E0
9.229342417E0,-8.092471619E0,-8.131091309E-1,5.028044128E-1,8.148745648E0
9.239265417E0,-7.426955566E0,-2.724334717E-1,-3.394940186E-1,7.439700610E0
9.249188417E0,-6.004613342E0,1.052311707E-1,-1.259181519E0,6.136121991E0
9.259111417E0,-3.834875336E0,7.671546936E-1,-1.381177826E0,4.147583315E0
9.269035417E0,-1.415157166E0,1.539099426E0,-6.768923950E-1,2.197653331E0
9.278958417E0,1.095721436E0,2.166744232E0,2.478845215E-1,2.440662363E0
9.288881417E0,3.527714081E0,2.825075226E0,1.127754822E0,4.658073379E0
9.298804417E0,5.190007324E0,3.301833801E0,1.980681152E0,6.462304566E0
9.308727417E0,6.004912720E0,3.281925201E0,2.401456146E0,7.252379018E0
9.318651417E0,6.350843353E0,2.780767365E0,2.223176880E0,7.280686360E0
9.328574417E0,6.687193909E0,2.137405243E0,1.554667053E0,7.190553052E0
9.338497417E0,7.017257538E0,1.595083008E0,6.078858948E-1,7.221891609E0
9.348420417E0,7.585026855E0,1.232237549E0,-4.924758911E-2,7.684625371E0
9.358343417E0,9.405840454E0,9.704319763E-1,-5.580395508E-1,9.472221546E0
9.368267417E0,1.212433731E1,7.592211914E-1,-8.090675354E-1,1.217499743E1
9.378190417E0,1.534997955E1,7.765850830E-1,-8.827143860E-1,1.539493882E1
9.388113417E0,1.905642197E1,8.357121277E-1,-1.007255402E0,1.910131400E1
9.398036417E0,2.201951019E1,7.632627869E-1,-9.967771912E-1,2.205527066E1
9.407959417E0,2.453622665E1,3.439846802E-1,-6.891668701E-1,2.454831348E1
9.417883417E0,2.620450745E1,-9.526190186E-1,-2.320175171E-2,2.622182739E1
9.427806417E0,2.602637787E1,-2.619402924E0,5.539979553E-1,2.616372547E1
9.437729417E0,2.572640167E1,-4.112098846E0,1.259181519E0,2.608337858E1
9.447652417E0,2.643068710E1,-5.668562164E0,1.754950562E0,2.708862620E1
9.457575417E0,2.703333389E1,-7.664212189E0,1.525028687E0,2.814013153E1
9.467499417E0,2.597413651E1,-8.699459381E0,1.509311371E0,2.743381821E1
9.477422417E0,2.361519196E1,-7.305558014E0,2.273023224E0,2.482368030E1
9.487345417E0,2.152044800E1,-3.599414978E0,3.381019135E0,2.207978172E1
9.497268417E0,1.992207184E1,3.879931641E-1,3.813769226E0,2.028754102E1
9.507191417E0,1.879686172E1,3.605552216E0,2.950364685E0,1.936560532E1
9.517115417E0,1.704999435E1,5.874384155E0,6.776408386E-1,1.804632632E1
9.527038417E0,1.441068283E1,7.171436920E0,-2.255359955E0,1.625373605E1
9.536961417E0,1.122904907E1,7.598947906E0,-4.820126495E0,1.438989825E1
9.546884417E0,7.726183319E0,6.964716797E0,-6.348598022E0,1.218629909E1
9.556807417E0,3.981420593E0,5.496869202E0,-6.500831451E0,9.398302534E0
9.566731417E0,5.478607178E-1,3.416495361E0,-5.477259979E0,6.478654860E0
9.576654417E0,-2.287692719E0,1.178648987E0,-3.716920624E0,4.520868316E0
9.586577417E0,-4.623585205E0,-8.117619324E-1,-1.832788696E0,5.039405916E0
9.596500417E0,-6.438710632E0,-2.199226685E0,-3.906875610E-1,6.815147055E0
9.606423417E0,-7.596403198E0,-2.707868958E0,2.456391907E-1,8.068347690E0
9.616347417E0,-8.148455200E0,-2.623594208E0,1.071771240E-1,8.561077949E0
9.626270417E0,-7.881859589E0,-2.246079254E0,-6.328839111E-1,8.220044077E0
9.636194458E0,-7.128326569E0,-1.643731842E0,-1.710193634E0,7.512633114E0
9.646117458E0,-6.140830078E0,-9.951306152E-1,-2.850372620E0,6.842857814E0
9.656040458E0,-4.764142914E0,-3.914360046E-1,-3.759581909E0,6.081507706E0
9.665964458E0,-3.204835510E0,2.695893860E-1,-4.248016205E0,5.328160167E0
9.675887458E0,-1.750160522E0,7.523355103E-1,-4.133953400E0,4.551773422E0
9.685810458E0,-2.194436646E-1,9.834548950E-1,-3.609893188E0,3.747888457E0
9.695733458E0,1.485061798E0,1.209784241E0,-2.876717834E0,3.456080432E0
9.705656458E0,3.162323914E0,1.528920593E0,-1.836530914E0,3.963677146E0
9.715580458E0,5.203628998E0,1.688488770E0,-9.394464111E-1,5.550793514E0
9.725503458E0,8.045020294E0,1.529669037E0,-1.178050232E-1,8.190001033E0
9.735426458E0,1.173469757E1,1.282832336E0,7.342231750E-1,1.182742024E1
9.745349458E0,1.627475647E1,1.163979492E0,1.470841370E0,1.638248823E1
9.755272458E0,2.057681030E1,1.293310547E0,1.875749359E0,2.070256530E1
9.765196458E0,2.401156769E1,1.538800049E0,2.442470856E0,2.418447751E1
9.775119458E0,2.673290863E1,1.539847870E0,3.034340057E0,2.694859467E1
9.785042458E0,2.848262009E1,4.849914551E-1,3.034340057E0,2.864789841E1
9.794965458E0,2.880549866E1,-1.904938660E0,2.835254059E0,2.900731304E1
9.804888458E0,2.854219620E1,-4.191134491E0,2.498155060E0,2.895623164E1
9.814812458E0,2.821063568E1,-5.971681824E0,1.609752502E0,2.888065533E1
9.824735458E0,2.680535797E1,-7.723339233E0,1.423539734E-1,2.789619059E1
9.834658458E0,2.412488205E1,-8.204588470E0,-1.179397430E0,2.550913923E1
9.844581458E0,2.139605667E1,-6.753805389E0,-1.642085266E0,2.249670137E1
9.854504458E0,1.939786194E1,-3.943100281E0,-1.446292419E0,1.984733860E1
9.864428458E0,1.809916260E1,-6.304888916E-1,-1.595981140E0,1.818032890E1
9.874351458E0,1.716480560E1,2.317031708E0,-2.483186188E0,1.749758272E1
9.884274458E0,1.572554855E1,4.497098236E0,-3.326233063E0,1.669073384E1
9.894197458E0,1.279658936E1,5.658982086E0,-3.182531891E0,1.434940022E1
9.904120458E0,9.161099396E0,6.169570312E0,-1.846709747E0,1.119819972E1
9.914044458E0,5.651946716E0,6.256090393E0,-2.845582581E-1,8.435884192E0
9.923967458E0,2.580184479E0,5.673651581E0,5.367837524E-1,6.255862131E0
9.933890458E0,1.221459961E-1,4.387526093E0,6.165678406E-1,4.432320020E0
9.943813458E0,-2.049238586E0,2.749931488E0,2.740800476E-1,3.440439194E0
9.953736458E0,-4.093387756E0,1.119072876E0,-5.001100159E-1,4.272968225E0
9.963660458E0,-5.964796143E0,-1.606159973E-1,-1.561103668E0,6.167790138E0
9.973583458E0,-6.962770844E0,-8.476872253E-1,-2.412383423E0,7.417435219E0
9.983506458E0,-6.627468109E0,-1.087488556E0,-2.666405182E0,7.226041897E0
9.993429458E0,-5.491031342E0,-1.092278595E0,-2.357447662E0,6.074706347E0
1.000335246E1,-4.011208649E0,-7.427554321E-1,-1.697470093E0,4.418470909E0
1.001327646E1,-1.864672394E0,-7.813751221E-2,-9.530680847E-1,2.095578054E0
1.002319946E1,3.968247986E-1,6.846762085E-1,-5.553451538E-1,9.667779844E-1
1.003312246E1,2.328258362E0,1.283580780E0,-7.168592834E-1,2.753589267E0
1.004304546E1,3.737727356E0,1.564097443E0,-1.335073700E0,4.266078806E0
1.005296846E1,4.745431824E0,1.741478577E0,-2.188000031E0,5.508104480E0
1.006289246E1,5.727539520E0,1.670526123E0,-2.992127838E0,6.674443459E0
1.007281546E1,7.155270538E0,1.173409882E0,-3.476520538E0,8.041205275E0
1.008273846E1,9.137747955E0,4.321513367E-1,-3.263513489E0,9.712657348E0
1.009266146E1,1.114327744E1,-1.451980591E-1,-2.298170929E0,1.137872155E1
1.010258446E1,1.294313461E1,-5.213658142E-1,-1.393152924E0,1.302833186E1
1.011250846E1,1.434796326E1,-5.152285767E-1,-8.975335693E-1,1.438523815E1
1.012243146E1,1.612671432E1,-9.954299927E-2,-1.043180695E0,1.616072553E1
1.013235446E1,1.879880768E1,2.475851440E-1,-1.420246582E0,1.885400671E1
1.014227746E1,2.160083084E1,-3.312611389E-1,-1.733844452E0,2.167283654E1
1.015220046E1,2.291315186E1,-1.690434723E0,-1.754202118E0,2.304229421E1
1.016212446E1,2.317450836E1,-3.051853638E0,-1.264720001E0,2.340878393E1
1.017204746E1,2.392849045E1,-4.585414581E0,-4.314028931E-1,2.436769974E1
1.018197046E1,2.476689697E1,-6.408323822E0,1.020877075E-1,2.558273288E1
1.019189346E1,2.501088959E1,-8.172106018E0,2.993774414E-3,2.631212503E1
1.020181646E1,2.431094513E1,-9.237740021E0,-1.080752563E-1,2.600710622E1
1.021174046E1,2.274639862E1,-9.080267487E0,3.451821899E-1,2.449426583E1
1.022166346E1,2.139560760E1,-7.158264313E0,1.829046478E0,2.263533043E1
1.023158646E1,2.063967957E1,-3.316652985E0,3.558250580E0,2.120513397E1
1.024150946E1,2.021890457E1,7.030879211E-1,4.114344177E0,2.064524794E1
1.025143246E1,1.905282944E1,3.705244904E0,2.736010437E0,1.960165561E1
1.026135646E1,1.648821259E1,5.764213257E0,7.640112305E-1,1.748344994E1
1.027127946E1,1.281440231E1,7.110064545E0,-6.668632507E-1,1.466992267E1
1.028120246E1,8.831335144E0,7.566315765E0,-1.186881866E0,1.168975206E1
1.029112546E1,5.178032227E0,6.968758392E0,-1.200353851E0,8.764500022E0
1.030104946E1,2.192041626E0,5.525010681E0,-7.770341492E-1,5.994545153E0
1.031097246E1,-1.704954529E-1,3.841162262E0,-2.806663513E-1,3.855174422E0
1.032089546E1,-2.156565399E0,2.696342926E0,4.879852295E-2,3.453030668E0
1.033081846E1,-3.662284241E0,2.046095123E0,-1.796264648E-2,4.195134535E0
1.034074146E1,-4.687053223E0,1.276844788E0,-7.575746155E-1,4.916576026E0
1.035066446E1,-5.292993164E0,6.267466736E-1,-1.862726440E0,5.646090490E0
1.036058846E1,-5.376968536E0,5.384303284E-1,-2.906056824E0,6.135704045E0
1.037051146E1,-4.837939453E0,7.123686218E-1,-3.938609619E0,6.278994580E0
1.038043446E1,-3.751049652E0,8.446934509E-1,-4.813240814E0,6.160451903E0
1.039035746E1,-2.422113190E0,1.012943573E0,-5.176834717E0,5.804507272E0
1.040028146E1,-8.840615845E-1,1.089284821E0,-5.080884247E0,5.271004746E0
1.041020446E1,7.545808411E-1,1.110989685E0,-4.803810425E0,4.988014126E0
1.042012746E1,2.290387115E0,1.157243500E0,-4.307442627E0,5.013895456E0
1.043005046E1,3.579506378E0,1.125060425E0,-3.795058136E0,5.336768041E0
1.043997346E1,4.714895325E0,1.031355286E0,-3.460354156E0,5.938685253E0
1.044989746E1,5.622907104E0,1.102008362E0,-3.395688629E0,6.660496078E0
1.045982046E1,6.311924286E0,1.186582489E0,-3.503464508E0,7.315916194E0
1.046974346E1,6.749614105E0,1.071621552E0,-3.548670502E0,7.700566580E0
1.047966646E1,7.302713928E0,8.987310791E-1,-3.218307495E0,8.030868658E0
1.048958946E1,8.511001282E0,8.614585876E-1,-2.478545837E0,8.906314793E0
1.049951346E1,1.082084793E1,7.376660156E-1,-1.601070557E0,1.096349981E1
1.050943646E1,1.422342224E1,3.574566650E-1,-6.963519287E-1,1.424494372E1
1.051935946E1,1.786819290E1,6.167175293E-2,4.076023865E-1,1.787294773E1
1.052928246E1,2.032069290E1,1.954934692E-1,1.131497040E0,2.035310942E1
1.053920546E1,2.154993668E1,5.598358154E-2,7.641609192E-1,2.156355367E1
1.054912946E1,2.267469772E1,-1.321152649E0,-7.664062500E-2,2.271328323E1
1.055905246E1,2.314157684E1,-3.712280273E0,-7.508386230E-1,2.344946401E1
1.056897546E1,2.308694046E1,-6.067332916E0,-7.354206848E-1,2.388221498E1
1.057889846E1,2.334754852E1,-8.572673035E0,3.161425781E-1,2.487365456E1
1.058882146E1,2.475611938E1,-1.115420471E1,1.692829742E0,2.720565019E1
1.059874546E1,2.572954514E1,-1.306318497E1,3.003953247E0,2.901172228E1
1.060866846E1,2.543211365E1,-1.236368958E1,4.361779633E0,2.861255574E1
1.061859146E1,2.690175751E1,-8.404422913E0,5.438191223E0,2.870388136E1
1.062851446E1,2.901326660E1,-2.839894409E0,6.033802643E0,2.976980708E1
1.063843671E1,2.951846603E1,2.338736572E0,4.897964630E0,3.001332343E1
1.064836071E1,2.777833466E1,6.062542877E0,1.935774536E0,2.849802669E1
1.065828371E1,2.367641464E1,8.018525391E0,-2.093247070E0,2.508487678E1
1.066820671E1,1.742885651E1,8.518336029E0,-5.513784027E0,2.016752097E1
1.067812971E1,1.065035248E1,7.574099579E0,-6.929090881E0,1.479220378E1
1.068805271E1,5.033582611E0,5.704487457E0,-6.230194244E0,9.833282838E0
1.069797671E1,9.725276184E-1,4.060156860E0,-4.271517334E0,5.972984516E0
1.070789971E1,-1.920506287E0,3.312461700E0,-1.481618958E0,4.105598817E0
1.071782271E1,-3.647165680E0,3.257525940E0,9.732760620E-1,4.986036406E0
1.072774571E1,-4.362378387E0,3.376977539E0,2.396516418E0,6.014782909E0
1.073766871E1,-4.386178894E0,3.317700806E0,2.318678284E0,5.968414606E0
1.074759271E1,-4.202211456E0,2.922522583E0,8.304730225E-1,5.185499476E0
1.075751571E1,-3.956272888E0,2.403402100E0,-1.194515991E0,4.780722254E0
1.076743871E1,-3.846850433E0,2.083217926E0,-2.811603241E0,5.200304603E0
1.077736171E1,-4.102818146E0,1.816173248E0,-4.063150635E0,6.053164056E0
1.078728471E1,-4.342020721E0,1.462758179E0,-4.904700623E0,6.711847259E0
1.079720871E1,-3.800596619E0,1.160087585E0,-4.938230896E0,6.338490534E0
1.080713171E1,-2.812501373E0,8.623567200E-1,-4.079915771E0,5.029864391E0
1.081705471E1,-1.834285583E0,6.292913818E-1,-2.646496582E0,3.280938190E0
1.082697771E1,-6.481521606E-1,5.563929749E-1,-1.275198212E0,1.534863136E0
1.083690171E1,7.123686218E-1,6.098318481E-1,-3.626957703E-1,1.005441275E0
1.084682471E1,2.132615204E0,5.754034424E-1,-1.407073975E-2,2.208921618E0
1.085674771E1,3.370391235E0,5.864804077E-1,-1.627116394E-1,3.424904586E0
1.086667071E1,4.134851532E0,7.032376099E-1,-7.988887024E-1,4.269632711E0
1.087659371E1,4.808450775E0,7.080276489E-1,-1.805245972E0,5.184729022E0
1.088651771E1,5.602549438E0,5.980064392E-1,-2.679128723E0,6.238902358E0
1.089644071E1,6.684349823E0,5.086422729E-1,-3.099005585E0,7.385329047E0
1.090636371E1,8.412356415E0,4.460723877E-1,-2.930755463E0,8.919419746E0
1.091628671E1,1.040456360E1,8.382568359E-1,-2.116598511E0,1.065070925E1
1.092620971E1,1.246951950E1,1.430874481E0,-1.256038055E0,1.261403781E1
1.093613371E1,1.491782822E1,1.633702698E0,-7.366181946E-1,1.502508534E1
1.094605671E1,1.756851608E1,1.364263000E0,-7.551795959E-1,1.763758110E1
1.095597971E1,1.973720627E1,9.021739197E-1,-1.241218872E0,1.979676371E1
1.096590271E1,2.125774429E1,2.487826538E-1,-1.686243439E0,2.132597013E1
1.097582571E1,2.205214233E1,-8.313711548E-1,-1.793121185E0,2.214053846E1
1.098574971E1,2.183404587E1,-2.253114624E0,-1.840422821E0,2.202701161E1
1.099567271E1,2.146162033E1,-3.776496735E0,-1.568288727E0,2.184771394E1
1.100559571E1,2.132974457E1,-5.397924957E0,-7.749385071E-1,2.201581538E1
1.101551871E1,2.154529633E1,-7.293283539E0,5.792953491E-2,2.274632134E1
1.102544171E1,2.172746750E1,-9.362281036E0,9.708810425E-1,2.367863510E1
1.103536571E1,2.062665665E1,-9.820478210E0,2.789149933E0,2.301478034E1
1.104528871E1,2.055450668E1,-7.153324585E0,5.492079163E0,2.244595133E1
1.105521171E1,2.254671387E1,-2.348166962E0,7.522157593E0,2.388411709E1
1.106513471E1,2.366533768E1,2.206262054E0,7.656877441E0,2.497085445E1
1.107505771E1,2.327165634E1,5.337001648E0,5.428311768E0,2.448510045E1
1.108498171E1,2.159963333E1,7.249724121E0,2.179767151E0,2.288785802E1
1.109490471E1,1.853625366E1,8.257129211E0,-7.960446167E-1,2.030779579E1
1.110482771E1,1.437640411E1,8.636889496E0,-2.933000793E0,1.702584356E1
1.111475071E1,9.938283234E0,8.178991699E0,-4.054019623E0,1.349446012E1
1.112467471E1,5.729485474E0,7.003186798E0,-4.547992401E0,1.012698692E1
1.113459771E1,2.211351471E0,5.308560791E0,-4.651277618E0,7.396301541E0
1.114452071E1,-2.927911377E-1,3.405867462E0,-4.385430450E0,5.560365101E0
1.115444371E1,-2.001487885E0,2.001338196E0,-3.990551605E0,4.892423780E0
1.116436671E1,-3.136577454E0,1.029559021E0,-3.729943542E0,4.981022860E0
1.117429071E1,-3.959566040E0,3.504212952E-1,-3.781885529E0,5.486676267E0
1.118421371E1,-4.407285004E0,1.041833496E-1,-4.194277954E0,6.084980101E0
1.119413671E1,-4.377946014E0,1.243913269E-1,-4.771926727E0,6.477126616E0
1.120405971E1,-4.013753357E0,3.224295044E-1,-5.203329620E0,6.579423678E0
1.121398271E1,-3.521576843E0,6.093827820E-1,-5.371579742E0,6.451877228E0
1.122390671E1,-2.544259186E0,8.520281982E-1,-5.364544373E0,5.998128306E0
1.123382971E1,-7.092251587E-1,1.006506958E0,-5.019661560E0,5.168467738E0
1.124375271E1,1.733694763E0,1.146914978E0,-4.318369904E0,4.792643334E0
1.125367571E1,4.319567413E0,1.077309723E0,-3.491788788E0,5.657901361E0
1.126359871E1,7.283254395E0,8.153544617E-1,-2.644550629E0,7.791292929E0
1.127352271E1,1.069106781E1,6.358776855E-1,-1.652713165E0,1.083673070E1
1.128344571E1,1.435904022E1,7.105723572E-1,-5.843847656E-1,1.438848341E1
1.129336871E1,1.800650528E1,1.133143616E0,1.936972046E-1,1.804316395E1
1.130329171E1,2.074356354E1,1.627116394E0,1.926493835E-1,2.080817267E1
1.131321471E1,2.209136078E1,1.803300018E0,-4.294569397E-1,2.216899965E1
1.132313871E1,2.238729538E1,1.366208954E0,-8.988807678E-1,2.244694874E1
1.133306171E1,2.182581299E1,1.092727661E-1,-1.067430267E0,2.185217290E1
1.134298471E1,2.088292374E1,-1.692680054E0,-1.159937897E0,2.098349650E1
1.135290771E1,1.991129425E1,-3.736829224E0,-1.056053925E0,2.028641864E1
1.136283171E1,1.862052841E1,-5.405559082E0,-3.490740967E-1,1.939242120E1
1.137275471E1,1.736059845E1,-6.346203003E0,7.978408813E-2,1.848434572E1
1.138267771E1,1.565699112E1,-7.037615204E0,9.430389404E-2,1.716619620E1
1.139260071E1,1.343576019E1,-7.111411743E0,5.004093933E-1,1.520993881E1
1.140252371E1,1.191387497E1,-6.004912720E0,1.790426788E0,1.346124146E1
1.141244771E1,1.177840668E1,-3.553460541E0,3.962859192E0,1.292525430E1
1.142237071E1,1.227312790E1,-5.141807556E-1,6.146368561E0,1.373578890E1
1.143229371E1,1.221430023E1,2.309397583E0,7.143744507E0,1.433720799E1
1.144221671E1,1.194411209E1,4.384981384E0,6.590794373E0,1.432928630E1
1.145213971E1,1.136870865E1,5.601651306E0,5.232069855E0,1.371133067E1
1.146206371E1,1.037657181E1,6.193670197E0,3.475173340E0,1.257424442E1
1.147198671E1,8.580905914E0,5.935606842E0,1.459165649E0,1.053529968E1
1.148190971E1,6.401438141E0,4.482877808E0,-6.912625122E-1,7.845536793E0
1.149183271E1,4.106410675E0,2.421963501E0,-2.650538177E0,5.454710667E0
1.150175571E1,1.448388062E0,5.400769043E-1,-4.494852905E0,4.753231919E0
1.151167971E1,-7.807763672E-1,-1.021026764E0,-5.990093536E0,6.126444969E0
1.152160271E1,-2.260149994E0,-1.908980255E0,-6.673422546E0,7.299798086E0
1.153152571E1,-3.038082275E0,-1.961970062E0,-6.632258148E0,7.554211976E0
1.154144871E1,-2.954256592E0,-1.636995850E0,-6.323150940E0,7.168655748E0
1.155137171E1,-2.229613495E0,-1.221909027E0,-5.987698517E0,6.505134244E0
1.156129571E1,-9.089099121E-1,-7.075785828E-1,-5.601351929E0,5.718559968E0
1.157121871E1,9.042695618E-1,-4.640350342E-3,-5.044060822E0,5.124477978E0
1.158114171E1,2.948269043E0,6.774911499E-1,-4.286186829E0,5.246206452E0
1.159106471E1,5.099445648E0,8.689430237E-1,-3.483256531E0,6.236383885E0
1.160098871E1,7.169790344E0,6.514453125E-1,-2.673440552E0,7.679684822E0
1.161091171E1,9.187294922E0,4.071533203E-1,-1.745520172E0,9.360502256E0
1.162083471E1,1.109822113E1,3.626957703E-1,-7.198530579E-1,1.112745474E1
1.163075771E1,1.291768753E1,6.253994751E-1,2.363584900E-1,1.293497742E1
1.164068129E1,1.459120743E1,8.050259399E-1,8.512797546E-1,1.463817196E1
1.165060529E1,1.644345566E1,8.409512329E-1,1.503922577E0,1.653348772E1
1.166052829E1,1.835977066E1,7.400610352E-1,2.244582367E0,1.851126735E1
1.167045129E1,1.943932571E1,4.552033997E-1,2.517913971E0,1.960700092E1
1.168037429E1,1.952165451E1,5.044509888E-2,1.893562317E0,1.961334030E1
1.169029729E1,1.941208237E1,-7.864645386E-1,7.282356262E-1,1.944165105E1
1.170022129E1,1.900477936E1,-2.187401276E0,-2.336640930E-1,1.913167430E1
1.171014429E1,1.808688812E1,-3.458857269E0,-6.921606445E-1,1.842765047E1
1.172006729E1,1.734263580E1,-4.151466980E0,-8.102650452E-1,1.785100065E1
1.172999029E1,1.732317627E1,-4.691244507E0,-7.515870667E-1,1.796288101E1
1.173991329E1,1.723680588E1,-5.549709320E0,-2.755769348E-1,1.811029246E1
1.174983729E1,1.593660965E1,-5.784870300E0,1.336420898E0,1.700665377E1
1.175976029E1,1.480586105E1,-4.245022430E0,3.971541138E0,1.590618986E1
1.176968329E1,1.573872116E1,-1.022224274E0,6.677164764E0,1.712707843E1
1.177960629E1,1.673774368E1,3.018922119E0,8.039631500E0,1.881227336E1
1.178953029E1,1.642384644E1,6.566694489E0,7.267836456E0,1.912290917E1
1.179945329E1,1.473236389E1,8.703500977E0,5.299878845E0,1.791318483E1
1.180937629E1,1.127186005E1,9.606872406E0,2.939886475E0,1.509932975E1
1.181929929E1,7.551047516E0,9.418863373E0,1.071471863E0,1.211946194E1
1.182922229E1,4.308939514E0,8.226293335E0,3.517684937E-1,9.293148166E0
1.183914629E1,1.984722748E0,6.185287628E0,3.438349915E-1,6.505008065E0
1.184906929E1,8.213420105E-1,3.508853302E0,4.945715332E-1,3.637479236E0
1.185899229E1,-1.501377869E-1,8.818162537E-1,3.978726196E-1,9.790014718E-1
1.186891529E1,-1.282083893E0,-1.445993042E0,-3.138972473E-1,1.957847407E0
1.187883829E1,-2.180365906E0,-3.279230804E0,-1.735041962E0,4.303222137E0
1.188876229E1,-2.681823120E0,-4.201762390E0,-3.522325287E0,6.103585656E0
1.189868529E1,-2.969225464E0,-4.219874725E0,-5.203179932E0,7.327804852E0
1.190860829E1,-3.023263092E0,-3.688030701E0,-6.450685730E0,8.022034440E0
1.191853129E1,-2.615211639E0,-2.930456085E0,-7.390132141E0,8.369047607E0
1.192845529E1,-1.309626617E0,-2.219584351E0,-7.831564178E0,8.244699755E0
1.193837829E1,1.412313080E0,-1.591640167E0,-7.419770508E0,7.718869156E0
1.194830129E1,4.689897308E0,-1.063089294E0,-6.251450043E0,7.887073174E0
1.195822429E1,7.684120789E0,-7.324269104E-1,-4.864883423E0,9.124102816E0
1.196814729E1,1.035950729E1,-6.418652344E-1,-3.750001831E0,1.103602719E1
1.197807129E1,1.265094223E1,-7.122189331E-1,-3.089126129E0,1.304209705E1
1.198799429E1,1.458626770E1,-8.249345398E-1,-2.706970825E0,1.485824396E1
1.199791729E1,1.602462662E1,-9.225315857E-1,-2.638712769E0,1.626660775E1
1.200784029E1,1.709490097E1,-1.180145874E0,-2.904110870E0,1.737993796E1
1.201776329E1,1.797551971E1,-1.516795807E0,-3.131787415E0,1.830923458E1
1.202768729E1,1.839449844E1,-1.813329163E0,-3.563489685E0,1.882403236E1
1.203761029E1,1.822999054E1,-2.297272797E0,-4.080963593E0,1.882190961E1
1.204753329E1,1.740670258E1,-3.375181274E0,-4.346661072E0,1.825591974E1
1.205745629E1,1.607043137E1,-4.870870972E0,-4.306394806E0,1.733577759E1
1.206737929E1,1.522768387E1,-6.547534332E0,-3.758085022E0,1.699634563E1
1.207730329E1,1.490061401E1,-8.356073456E0,-2.644101562E0,1.728709156E1
1.208722629E1,1.464539474E1,-9.688303070E0,-1.354982300E0,1.761212028E1
1.209714929E1,1.426099411E1,-1.097218323E1,1.137634277E-1,1.799382394E1
1.210707229E1,1.343246704E1,-1.170281387E1,2.699486389E0,1.801871944E1
1.211699629E1,1.327230011E1,-9.942773895E0,5.858966217E0,1.758806948E1
1.212691929E1,1.426713135E1,-5.811065826E0,7.701634369E0,1.722308610E1
1.213684229E1,1.560549820E1,-8.342152405E-1,7.760312347E0,1.744849383E1
1.214676529E1,1.603794891E1,3.416495361E0,6.703060913E0,1.771494486E1
1.215668829E1,1.553933578E1,6.329437866E0,4.997657318E0,1.750740755E1
1.216661229E1,1.384605698E1,7.776478729E0,3.670367432E0,1.629903409E1
1.217653529E1,1.149549500E1,8.157735901E0,2.993175659E0,1.441021029E1
1.218645829E1,9.288634186E0,7.526498566E0,2.708467712E0,1.225816883E1
1.219638129E1,7.270979919E0,6.019133148E0,2.136357422E0,9.677868354E0
1.220630429E1,5.253475342E0,4.095034332E0,1.150208130E0,6.759533127E0
1.221622829E1,3.361110535E0,2.565065918E0,1.688488770E-1,4.231446222E0
1.222615129E1,1.945504303E0,1.800755310E0,-1.104253693E0,2.871773476E0
1.223607429E1,1.072070618E0,1.351090393E0,-2.947221222E0,3.414805059E0
1.224599729E1,6.655160522E-1,1.174457703E0,-5.040767670E0,5.218390672E0
1.225592129E1,4.891827393E-1,1.302441559E0,-7.048093414E0,7.184098729E0
1.226584429E1,5.948629761E-1,1.664837952E0,-8.527317352E0,8.708655958E0
1.227576729E1,1.263971558E0,2.196083221E0,-9.110953674E0,9.456737411E0
1.228569029E1,2.417772217E0,2.593806152E0,-8.849896545E0,9.533840869E0
1.229561329E1,3.946243744E0,2.456242218E0,-8.056995392E0,9.301674057E0
1.230553729E1,5.858517151E0,2.181413727E0,-7.118147736E0,9.473585184E0
1.231546029E1,8.136330414E0,1.733545074E0,-6.063141632E0,1.029401465E1
1.232538329E1,9.679022369E0,9.440867615E-1,-4.693938904E0,1.079851084E1
1.233530629E1,1.017524048E1,1.422042847E-1,-3.417842560E0,1.073486789E1
1.234522929E1,1.082863174E1,-5.777984619E-1,-2.299817505E0,1.108522788E1
1.235515329E1,1.249092499E1,-1.294508057E0,-1.480271759E0,1.264476819E1
1.236507629E1,1.472727448E1,-2.009571075E0,-1.078357544E0,1.490281330E1
1.237499929E1,1.706915451E1,-2.392774200E0,-1.149459686E0,1.727433535E1
1.238492229E1,1.970816666E1,-2.235601044E0,-1.757495270E0,1.991227096E1
1.239484529E1,2.167552551E1,-1.776356049E0,-2.046394501E0,2.184425731E1
1.240476929E1,2.152044800E1,-1.332079926E0,-2.423310699E0,2.169738587E1
1.241469229E1,1.986084915E1,-1.777852936E0,-2.886746979E0,2.014813635E1
1.242461529E1,1.822460175E1,-3.683540039E0,-3.276087341E0,1.887954778E1
1.243453829E1,1.720746689E1,-6.459367676E0,-3.277883606E0,1.866989203E1
1.244446229E1,1.701152435E1,-8.712332611E0,-1.867815857E0,1.920378703E1
1.245438529E1,1.687590637E1,-9.292376404E0,-4.122427368E-1,1.926952047E1
1.246430829E1,1.569141953E1,-9.366771698E0,6.245013428E-1,1.828515958E1
1.247423129E1,1.346539856E1,-1.021116577E1,1.669777679E0,1.698154947E1
1.248415429E1,1.094987961E1,-9.755812683E0,3.331771545E0,1.503916375E1
1.249407829E1,1.021296204E1,-6.425388336E0,5.299130402E0,1.317842904E1
1.250400129E1,1.047865952E1,-1.711241455E0,7.093000031E0,1.276876274E1
1.251392429E1,1.090257797E1,2.933000793E0,7.967481537E0,1.381844644E1
1.252384729E1,1.126108246E1,6.124813385E0,7.881709900E0,1.504814500E1
1.253377129E1,1.084464844E1,7.589068451E0,7.362290039E0,1.514607785E1
1.254369429E1,9.367071075E0,7.745044098E0,6.499334564E0,1.378292706E1
1.255361729E1,6.964866486E0,6.766678619E0,5.551804962E0,1.118569815E1
1.256354029E1,4.524341583E0,4.797673187E0,4.047133942E0,7.737352772E0
1.257346329E1,2.234253845E0,2.842738495E0,2.170486450E0,4.217115581E0
1.258338729E1,1.516346741E-1,1.209784241E0,1.577719116E-1,1.229415698E0
1.259331029E1,-1.299447784E0,-9.819580078E-2,-1.856439514E0,2.268165477E0
1.260323329E1,-2.116448822E0,-1.193168793E0,-3.714076538E0,4.438172137E0
1.261315629E1,-2.870580597E0,-1.825903015E0,-5.611979828E0,6.562657417E0
1.262307929E1,-3.711382141E0,-1.814526672E0,-7.261549530E0,8.354457853E0
1.263300329E1,-3.896996155E0,-1.406175842E0,-8.422535248E0,9.386320340E0
1.264292621E1,-3.097508698E0,-7.752378845E-1,-8.629405060E0,9.201205660E0
1.265284921E1,-1.486259308E0,-6.107299805E-2,-7.849227448E0,7.988934107E0
1.266277221E1,5.203179932E-1,6.224057007E-1,-6.406677246E0,6.457835009E0
1.267269521E1,2.655028839E0,1.291364594E0,-4.790937195E0,5.627599831E0
1.268261921E1,4.576433258E0,1.845362549E0,-3.480711823E0,6.038580884E0
1.269254221E1,6.272556152E0,2.232756958E0,-2.493065643E0,7.109538707E0
1.270246521E1,8.011340332E0,2.467618561E0,-1.612446899E0,8.536433698E0
1.271238821E1,1.005593857E1,2.653531952E0,-8.301736450E-1,1.043323155E1
1.272231221E1,1.230007187E1,3.043321381E0,-2.061213684E-1,1.267265004E1
1.273223521E1,1.501078491E1,3.666774902E0,4.707710266E-1,1.545931846E1
1.274215821E1,1.801174438E1,4.288282471E0,7.881111145E-1,1.853195676E1
1.275208121E1,2.009930328E1,4.723726959E0,3.426374817E-1,2.064976972E1
1.276200421E1,2.098590958E1,4.650828552E0,-5.789959717E-1,2.150287988E1
1.277192821E1,2.124082947E1,3.725901947E0,-1.661095734E0,2.162901803E1
1.278185121E1,2.078577576E1,1.892514496E0,-2.464475098E0,2.101674862E1
1.279177421E1,1.998299515E1,-6.270460510E-1,-2.362237701E0,2.013190127E1
1.280169721E1,1.951207443E1,-3.000809784E0,-1.290466461E0,1.978360967E1
1.281162021E1,1.942914688E1,-5.049299927E0,-1.977388000E-1,2.007551441E1
1.282154421E1,1.985740631E1,-6.957681427E0,2.990780640E-1,2.104317856E1
1.283146721E1,2.101539825E1,-8.992998962E0,2.601589966E-1,2.286019853E1
1.284139021E1,2.142779068E1,-1.043210632E1,5.861810303E-1,2.383951895E1
1.285131321E1,2.085523132E1,-9.464368744E0,1.850601654E0,2.297693791E1
1.286123721E1,2.007939468E1,-5.905220032E0,3.375929718E0,2.120025037E1
1.287116021E1,1.915701279E1,-1.245410156E0,4.519401855E0,1.972225085E1
1.288108321E1,1.795291672E1,3.057691498E0,5.055586853E0,1.890014959E1
1.289100621E1,1.617805756E1,6.549180908E0,4.775369568E0,1.809490181E1
1.290092921E1,1.443029205E1,8.382418671E0,4.537663879E0,1.729418009E1
1.291085321E1,1.289403671E1,8.148904266E0,4.867428131E0,1.601101746E1
1.292077621E1,1.089359665E1,6.253845062E0,5.252876587E0,1.361520248E1
1.293069921E1,8.209528198E0,3.791166229E0,4.258644104E0,9.995266091E0
1.294062221E1,4.738097076E0,2.158211975E0,1.403930511E0,5.392445059E0
1.295054621E1,1.432521057E0,9.059161377E-1,-2.945125580E0,3.398023736E0
1.296046921E1,-4.266128540E-1,8.143066406E-2,-7.786956940E0,7.799059422E0
1.297039221E1,-1.806443481E0,5.463638306E-1,-1.176897629E1,1.191933531E1
1.298031521E1,-2.726879425E0,1.553619232E0,-1.402538406E1,1.437223025E1
1.299023821E1,-3.079246674E0,2.195634155E0,-1.412492706E1,1.462245308E1
1.300016221E1,-2.907553711E0,2.591560822E0,-1.229722778E1,1.289929716E1
1.301008521E1,-1.827699280E0,2.689457245E0,-9.448950806E0,9.992814231E0
1.302000821E1,-3.511697388E-1,2.350412292E0,-6.807543640E0,7.210437472E0
1.302993121E1,7.367678833E-1,1.988015900E0,-3.877985687E0,4.419706678E0
1.303985421E1,1.748064880E0,1.867217102E0,-1.038839722E0,2.760691670E0
1.304977821E1,2.589764557E0,1.962568817E0,1.361867981E0,3.523242998E0
1.305970121E1,3.515589294E0,2.108814697E0,3.060086517E0,5.115720576E0
1.306962421E1,4.892276459E0,2.292333069E0,4.059558105E0,6.757897000E0
1.307954721E1,6.874005432E0,2.642454987E0,4.191733246E0,8.473791751E0
1.308947121E1,9.323960724E0,3.127895508E0,3.758683777E0,1.052842237E1
1.309939421E1,1.189381668E1,3.507805481E0,3.000809784E0,1.275823005E1
1.310931721E1,1.438104446E1,3.456611938E0,1.429078217E0,1.485950438E1
1.311924021E1,1.609498032E1,2.753524017E0,-4.623884583E-1,1.633536314E1
1.312916321E1,1.710597794E1,1.706152039E0,-1.953138428E0,1.730145039E1
1.313908721E1,1.795186890E1,6.695576477E-1,-2.819686432E0,1.818429366E1
1.314901021E1,1.854358841E1,-1.384620667E-1,-3.217259674E0,1.882112118E1
1.315893321E1,1.867471573E1,-1.062340851E0,-3.254532166E0,1.898593046E1
1.316885621E1,1.838881027E1,-2.015558624E0,-2.745590515E0,1.870157980E1
1.317877921E1,1.796893341E1,-2.606230316E0,-1.451830902E0,1.821490646E1
1.318870321E1,1.782223846E1,-3.518583069E0,-3.513194275E-1,1.816964601E1
1.319862621E1,1.884985153E1,-5.926775208E0,-3.731739807E-1,1.976316842E1
1.320854921E1,1.963556763E1,-8.978928223E0,-9.517208862E-1,2.161209015E1
1.321847221E1,1.865795059E1,-1.034049683E1,-7.047344971E-1,2.134342160E1
1.322839621E1,1.752031631E1,-8.122259674E0,1.401535492E0,1.936225420E1
1.323831921E1,1.877785126E1,-2.931503906E0,4.044589233E0,1.943090618E1
1.324824221E1,2.006726990E1,2.419119415E0,5.613027649E0,2.097745312E1
1.325816521E1,2.006831772E1,6.243965607E0,5.017416229E0,2.160784460E1
1.326808821E1,1.805470505E1,7.426057434E0,3.140319672E0,1.977322207E1
1.327801221E1,1.407208694E1,6.320606232E0,1.012943573E0,1.545961671E1
1.328793521E1,9.429640961E0,4.027075653E0,-4.522096252E-1,1.026352573E1
1.329785821E1,4.864584045E0,1.444496155E0,-1.595382385E0,5.319397713E0
1.330778121E1,8.111631775E-1,-4.191284180E-1,-3.084635468E0,3.216928706E0
1.331770521E1,-1.665436707E0,-1.403631134E0,-4.344864807E0,4.860217071E0
1.332762821E1,-2.693349152E0,-1.549427948E0,-4.874313812E0,5.780466396E0
1.333755121E1,-2.856060791E0,-1.142274628E0,-5.108576660E0,5.963172818E0
1.334747421E1,-2.862198029E0,-5.433700562E-1,-5.185516663E0,5.947857735E0
1.335739721E1,-2.472558289E0,1.296304321E-1,-5.270988922E0,5.823544690E0
1.336732121E1,-1.464704132E0,8.246351624E-1,-5.106181641E0,5.375729931E0
1.337724421E1,-4.968168640E-1,1.373992767E0,-4.527485046E0,4.757394662E0
1.338716721E1,4.138893127E-1,1.705104218E0,-3.778742065E0,4.166242474E0
1.339709021E1,1.412911835E0,1.855840759E0,-2.905458069E0,3.725875919E0
1.340701321E1,2.154469757E0,1.928140411E0,-1.974244537E0,3.501015120E0
1.341693721E1,2.417323151E0,1.769320679E0,-1.249451752E0,3.245778267E0
1.342686021E1,2.399061127E0,1.563798065E0,-7.917036438E-1,2.971153537E0
1.343678321E1,2.669548645E0,1.463057556E0,-4.668791199E-1,3.079773286E0
1.344670621E1,3.591182098E0,1.413211212E0,-3.450325012E-1,3.874635753E0
1.345663021E1,5.302273865E0,1.461860046E0,-4.896318054E-1,5.521854963E0
1.346655321E1,7.568411407E0,1.588047638E0,-8.027806091E-1,7.774779948E0
1.347647621E1,1.021326141E1,1.664688263E0,-1.035097504E0,1.039967896E1
1.348639921E1,1.313638275E1,1.777553558E0,-1.233584747E0,1.331337597E1
1.349632221E1,1.694835571E1,1.927541656E0,-1.839524689E0,1.715651565E1
1.350624621E1,2.052486832E1,1.885179749E0,-2.734513550E0,2.079186587E1
1.351616921E1,2.206651245E1,1.939516754E0,-3.908971252E0,2.249383812E1
1.352609221E1,2.128917892E1,1.941313019E0,-5.160368958E0,2.199152662E1
1.353601521E1,2.057651093E1,1.036444702E0,-5.589676208E0,2.134740030E1
1.354593921E1,1.983615051E1,-9.151968384E-1,-5.078788605E0,2.049645204E1
1.355586221E1,1.916479660E1,-3.118914185E0,-3.727398834E0,1.977145813E1
1.356578521E1,1.911629745E1,-5.001848602E0,-2.206112366E0,1.988261174E1
1.357570821E1,1.867726044E1,-7.065008240E0,-8.460406494E-1,1.998675020E1
1.358563121E1,1.729219070E1,-8.414152679E0,1.132993927E0,1.926399491E1
1.359555521E1,1.595891327E1,-7.192992096E0,4.315974884E0,1.802924533E1
1.360547821E1,1.694102097E1,-2.980003052E0,7.466024323E0,1.875153670E1
1.361540121E1,1.833522171E1,1.976340179E0,9.303752747E0,2.065541311E1
1.362532421E1,1.810320419E1,5.793552246E0,9.029822388E0,2.104350118E1
1.363524733E1,1.723336304E1,7.840695190E0,7.259902954E0,2.027736407E1
1.364517133E1,1.544697784E1,8.229736176E0,4.981940002E0,1.819773085E1
1.365509433E1,1.191342590E1,7.588619385E0,3.128793640E0,1.446741893E1
1.366501733E1,7.644453278E0,6.051765289E0,1.533261566E0,9.869773050E0
1.367494033E1,3.608845367E0,4.181404724E0,-3.878434753E-1,5.536996741E0
1.368486433E1,-1.276844788E-1,2.721490631E0,-2.670147400E0,3.814774137E0
1.369478733E1,-2.274220734E0,1.809886322E0,-4.709207153E0,5.533931736E0
1.370471033E1,-2.818488922E0,1.472338257E0,-6.139183502E0,6.913843636E0
1.371463333E1,-2.808759155E0,1.402134247E0,-7.228468323E0,7.880727297E0
1.372455633E1,-2.707270203E0,1.252744904E0,-7.831713867E0,8.380598060E0
1.373448033E1,-2.248324585E0,9.461824036E-1,-7.685917053E0,8.063717848E0
1.374440333E1,-1.404379578E0,5.957611084E-1,-6.890920258E0,7.057761351E0
1.375432633E1,-2.430944824E-1,6.286926270E-2,-5.712870026E0,5.718385384E0
1.376424933E1,7.786807251E-1,-4.619393921E-1,-4.490212555E0,4.580582983E0
1.377417333E1,1.802850952E0,-6.418652344E-1,-3.511547699E0,3.999153633E0
1.378409633E1,2.953208771E0,-5.831872559E-1,-3.149001617E0,4.356347163E0
1.379401933E1,3.680995331E0,-3.782633972E-1,-3.523223419E0,5.109394591E0
1.380394233E1,4.282444611E0,-1.526824951E-2,-4.181853790E0,5.985604906E0
1.381386533E1,5.245841217E0,4.941224670E-1,-4.704417114E0,7.063607256E0
1.382378933E1,6.509363708E0,9.301657104E-1,-4.960085449E0,8.236472048E0
1.383371233E1,8.534053345E0,1.110839996E0,-4.884043579E0,9.895348082E0
1.384363533E1,1.189097260E1,1.093476105E0,-4.662204895E0,1.281901220E1
1.385355833E1,1.601444778E1,7.463479614E-1,-4.245321808E0,1.658440021E1
1.386348233E1,2.005694138E1,1.031355286E-1,-3.619473267E0,2.038117075E1
1.387340533E1,2.309262863E1,-4.638853455E-1,-2.875370636E0,2.327557611E1
1.388332833E1,2.465702545E1,-1.068029022E0,-2.806513824E0,2.483920510E1
1.389325133E1,2.472872635E1,-2.433190155E0,-3.957320709E0,2.516129385E1
1.390317433E1,2.322240875E1,-3.935166779E0,-5.369933167E0,2.415785562E1
1.391309833E1,2.107078308E1,-4.797972565E0,-6.198160858E0,2.248145099E1
1.392302133E1,2.026411057E1,-5.908662872E0,-6.772666168E0,2.216789302E1
1.393294433E1,2.042188248E1,-7.217391357E0,-6.910529480E0,2.273542257E1
1.394286733E1,2.021531204E1,-7.807015228E0,-6.248306580E0,2.255326280E1
1.395279033E1,1.950444031E1,-7.078480225E0,-4.430636444E0,2.121694166E1
1.396271433E1,1.891721146E1,-5.098248138E0,-1.824106750E0,1.967689988E1
1.397263733E1,2.011442184E1,-2.436333618E0,1.249302063E0,2.029991240E1
1.398256033E1,2.123304565E1,6.643185425E-1,3.823498993E0,2.158477916E1
1.399248333E1,2.070808731E1,3.754342804E0,4.811145172E0,2.158858698E1
1.400240733E1,1.856469452E1,6.374943237E0,4.541106720E0,2.014719420E1
1.401233033E1,1.530387543E1,8.181087341E0,3.139571228E0,1.763507019E1
1.402225333E1,1.205592957E1,8.516689453E0,1.722617798E0,1.486091683E1
1.403217633E1,8.435558167E0,7.802075500E0,1.519490204E0,1.159050793E1
1.404209933E1,4.685556335E0,6.094426575E0,1.866768036E0,7.910834112E0
1.405202333E1,1.072819061E0,3.590283966E0,2.068997498E0,4.280400722E0
1.406194633E1,-2.371368713E0,1.225501556E0,1.699266357E0,3.164292937E0
1.407186933E1,-5.621110840E0,-5.158273315E-1,6.885681152E-1,5.686571107E0
1.408179233E1,-8.709039459E0,-1.576222229E0,-7.189549255E-1,8.879681357E0
1.409171633E1,-1.090856552E1,-1.925146637E0,-2.085163879E0,1.127168575E1
1.410163933E1,-1.137065460E1,-1.701062622E0,-3.282074890E0,1.195648007E1
1.411156233E1,-1.057835220E1,-1.269809418E0,-4.519401855E0,1.157319940E1
1.412148533E1,-9.316027222E0,-9.235794067E-1,-5.367388458E0,1.079121036E1
1.413140833E1,-7.467970276E0,-5.083428955E-1,-5.040168915E0,9.023984443E0
1.414133233E1,-4.984933777E0,1.875599670E-1,-4.061653748E0,6.432866753E0
1.415125533E1,-2.886746979E0,1.057401123E0,-2.712359619E0,4.099792673E0
1.416117833E1,-1.050814819E0,1.624122620E0,-1.255888367E0,2.306348122E0
1.417110133E1,8.978329468E-1,1.919458466E0,-1.646575928E-2,2.119126217E0
1.418102533E1,3.039579163E0,2.215542755E0,8.476872253E-1,3.855676960E0
1.419094833E1,5.107528839E0,2.575693817E0,9.240284729E-1,5.794383324E0
1.420087133E1,7.350314941E0,2.822380829E0,3.625460815E-1,7.881903510E0
1.421079433E1,1.028601013E1,3.289559326E0,-3.366499329E-1,1.080446844E1
1.422071733E1,1.407014099E1,3.949836273E0,-1.054257660E0,1.465201465E1
1.423064133E1,1.794677948E1,4.091142426E0,-1.961520996E0,1.851139932E1
1.424056433E1,2.095447495E1,3.764222260E0,-2.979404297E0,2.149735424E1
1.425048733E1,2.408611267E1,2.906056824E0,-3.542533264E0,2.451806542E1
1.426041033E1,2.760664169E1,1.568588104E0,-3.719016266E0,2.790014724E1
1.427033433E1,2.973805939E1,-4.191284180E-2,-4.938829651E0,3.014541377E1
1.428025733E1,2.944871109E1,-1.435215454E0,-6.849606171E0,3.026885417E1
1.429018033E1,2.743255371E1,-2.042652283E0,-7.736212463E0,2.857562624E1
1.430010333E1,2.604838211E1,-2.114502869E0,-7.692952423E0,2.724281281E1
1.431002633E1,2.559347809E1,-2.156266022E0,-6.968459015E0,2.661268541E1
1.431995033E1,2.473561203E1,-2.126627655E0,-5.712271271E0,2.547553907E1
1.432987333E1,2.292452820E1,-1.574126587E0,-3.912414093E0,2.330920101E1
1.433979633E1,2.023477158E1,-1.627116394E-1,-1.761836243E0,2.031197978E1
1.434971933E1,1.776400955E1,1.426982574E0,5.343887329E-2,1.782131225E1
1.435964333E1,1.544967224E1,2.651436310E0,1.440604248E0,1.574159545E1
1.436956633E1,1.204619980E1,4.086651764E0,1.666484528E0,1.282921755E1
1.437948933E1,8.391998749E0,5.257067871E0,5.860313416E-1,9.919971690E0
1.438941233E1,5.457650757E0,5.714366913E0,-1.023571472E0,7.967913124E0
1.439933533E1,3.383114777E0,5.769452362E0,-2.202070770E0,7.041389197E0
1.440925933E1,2.050585785E0,5.279072113E0,-2.307301941E0,6.115320652E0
1.441918233E1,1.044527893E0,4.316124573E0,-1.608105927E0,4.722920126E0
1.442910533E1,-1.291813660E-1,2.964884491E0,-6.117778015E-1,3.030099000E0
1.443902833E1,-2.139800262E0,7.562274170E-1,-3.652404785E-2,2.269792738E0
1.444895233E1,-4.888384552E0,-1.800306244E0,-1.329235840E-1,5.211053135E0
1.445887533E1,-7.665858765E0,-3.766766968E0,-5.782475281E-1,8.560858263E0
1.446879833E1,-1.014126114E1,-4.731211395E0,-1.235530701E0,1.125860004E1
1.447872133E1,-1.145986908E1,-4.764442291E0,-1.928290100E0,1.255972979E1
1.448864433E1,-1.145163620E1,-4.312232666E0,-2.407743073E0,1.247126894E1
1.449856833E1,-1.032418076E1,-3.769311676E0,-2.948418732E0,1.137934936E1
1.450849133E1,-8.087980957E0,-3.147953796E0,-3.703748016E0,9.436249172E0
1.451841433E1,-4.786745911E0,-2.279010773E0,-4.179608459E0,6.750996474E0
1.452833733E1,-9.503736877E-1,-1.263073425E0,-4.379891968E0,4.656395416E0
1.453826133E1,2.870430908E0,-3.953279114E-1,-4.450994110E0,5.311026862E0
1.454818433E1,6.093079376E0,3.335064697E-1,-4.437522125E0,7.545094132E0
1.455810733E1,8.217162323E0,9.491761780E-1,-4.153562622E0,9.256066903E0
1.456803033E1,9.893077240E0,1.370250549E0,-3.213667145E0,1.049181683E1
1.457795333E1,1.139580231E1,1.340911560E0,-1.866169281E0,1.162518567E1
1.458787733E1,1.328247894E1,7.237449646E-1,-4.635859680E-1,1.331025791E1
1.459780033E1,1.578048431E1,9.355545044E-2,9.366023254E-1,1.580853130E1
1.460772333E1,1.822070984E1,-4.071533203E-1,1.869612122E0,1.832090310E1
1.461764633E1,2.000799316E1,-1.240919495E0,1.893712006E0,2.013568516E1
1.462757033E1,2.095387619E1,-2.371069336E0,1.306333466E0,2.112802415E1
1.463749292E1,2.141327087E1,-3.471730499E0,6.899153137E-1,2.170384909E1
1.464741592E1,2.113769394E1,-4.133504333E0,1.167572021E-2,2.153806165E1
1.465733892E1,2.132031418E1,-4.447401581E0,-8.147557068E-1,2.179447188E1
1.466726192E1,2.317316116E1,-5.074297943E0,-1.517095184E0,2.377068522E1
1.467718592E1,2.569272171E1,-6.364914093E0,-1.943109283E0,2.654060576E1
1.468710892E1,2.758224243E1,-7.645950165E0,-1.862576752E0,2.868291902E1
1.469703192E1,2.701207809E1,-7.978708191E0,-9.764195251E-1,2.818271709E1
1.470695492E1,2.476749573E1,-6.410120087E0,1.206042023E0,2.561197028E1
1.471687892E1,2.300506073E1,-2.780617676E0,4.027075653E0,2.351982126E1
1.472680192E1,2.129995651E1,1.586700439E0,5.886209564E0,2.215520771E1
1.473672492E1,1.970741821E1,5.358856201E0,6.329288177E0,2.138128998E1
1.474664792E1,1.857786713E1,7.995623016E0,5.725443878E0,2.102017702E1
1.475657092E1,1.706032288E1,9.279054108E0,4.782704315E0,2.000074304E1
1.476649492E1,1.453941513E1,9.221723328E0,4.008514252E0,1.767775325E1
1.477641792E1,1.158171570E1,7.902666321E0,3.055296478E0,1.435002126E1
1.478634092E1,8.384963379E0,5.937103729E0,1.086590424E0,1.033138376E1
1.479626392E1,5.405110016E0,3.817810822E0,-2.025887146E0,6.920629486E0
1.480618792E1,2.483335876E0,1.397493896E0,-5.204826508E0,5.933815403E0
1.481611092E1,-8.574169922E-1,-1.017733612E0,-7.655829620E0,7.770628854E0
1.482603392E1,-4.324207764E0,-2.617007904E0,-8.822503510E0,1.016779579E1
1.483595692E1,-7.024741974E0,-2.945424957E0,-8.476722565E0,1.139637457E1
1.484587992E1,-8.493188324E0,-2.454296265E0,-7.487878876E0,1.158560090E1
1.485580392E1,-8.503965912E0,-2.037862244E0,-6.749913483E0,1.104679369E1
1.486572692E1,-7.128775635E0,-1.867965546E0,-6.440656586E0,9.787277179E0
1.487564992E1,-4.811893616E0,-1.500330048E0,-6.252348175E0,8.031012895E0
1.488557292E1,-1.941163330E0,-7.388635254E-1,-5.960904236E0,6.312401579E0
1.489549692E1,8.321195984E-1,2.647993469E-1,-5.507646790E0,5.576442852E0
1.490541992E1,3.297492828E0,1.243763580E0,-5.123545532E0,6.218611229E0
1.491534292E1,5.452411652E0,2.189496918E0,-4.799170074E0,7.586482912E0
1.492526592E1,7.407346344E0,2.978805542E0,-4.240531769E0,9.040142255E0
1.493518892E1,9.302405548E0,3.293750610E0,-3.420387268E0,1.044426116E1
1.494511292E1,1.109043732E1,3.006497955E0,-2.364333344E0,1.173144927E1
1.495503592E1,1.311692322E1,2.080972595E0,-1.132395172E0,1.332915753E1
1.496495892E1,1.543230835E1,7.985893250E-1,1.576222229E-1,1.545376105E1
1.497488192E1,1.804976532E1,-2.335144043E-1,1.343605957E0,1.810121084E1
1.498480592E1,2.016546570E1,-6.301895142E-1,1.965712280E0,2.027084533E1
1.499472892E1,2.119637192E1,-1.021475830E0,1.705253906E0,2.128937496E1
1.500465192E1,2.169468567E1,-2.330952759E0,6.920109558E-1,2.183052006E1
1.501457492E1,2.177357162E1,-4.658312988E0,-1.666035461E-1,2.226692745E1
1.502449792E1,2.088906097E1,-6.783294067E0,-3.700305176E-1,2.196594795E1
1.503442192E1,1.961625778E1,-8.048163757E0,-1.422042847E-1,2.120355469E1
1.504434492E1,1.956686050E1,-8.990304565E0,3.053649902E-2,2.153342840E1
1.505426792E1,2.140907959E1,-1.005444168E1,1.022373962E-1,2.365271525E1
1.506419092E1,2.255030640E1,-1.083641556E1,5.312452698E-1,2.502451682E1
1.507411492E1,2.177866104E1,-1.002480331E1,1.305135956E0,2.401062553E1
1.508403792E1,2.076451996E1,-7.574398956E0,2.436483307E0,2.223675470E1
1.509396092E1,2.025677582E1,-4.535268860E0,3.999981995E0,2.114013922E1
1.510388392E1,1.922721680E1,-1.610950012E0,5.554050293E0,2.007806017E1
1.511380692E1,1.755504410E1,1.600621490E0,6.378386078E0,1.874634288E1
1.512373092E1,1.587703354E1,4.360881500E0,6.194568329E0,1.759176393E1
1.513365392E1,1.355910370E1,6.018983459E0,4.635111237E0,1.554225567E1
1.514357692E1,1.021984772E1,6.873556366E0,2.137405243E0,1.250038262E1
1.515349992E1,6.613846436E0,6.795867920E0,-5.818400574E-1,9.500806456E0
1.516342392E1,3.115770721E0,5.691763916E0,-2.600691833E0,6.990550885E0
1.517334692E1,1.438508606E-1,4.465962982E0,-3.310815125E0,5.561206274E0
1.518326992E1,-1.923350372E0,3.334316254E0,-3.528761902E0,5.221982583E0
1.519319292E1,-3.337908783E0,2.125430145E0,-3.954177246E0,5.594158206E0
1.520311692E1,-3.952680359E0,1.129251709E0,-4.298461304E0,5.947744196E0
1.521303992E1,-3.869154053E0,5.707630920E-1,-4.341571655E0,5.843403805E0
1.522296292E1,-3.678600311E0,3.198847961E-1,-4.299509125E0,5.667469034E0
1.523288592E1,-3.267555084E0,2.140548706E-1,-4.468507690E0,5.539882372E0
1.524280892E1,-2.586621094E0,3.589535522E-1,-4.667294312E0,5.348185910E0
1.525273292E1,-1.968855743E0,6.173162842E-1,-4.600383453E0,5.041924261E0
1.526265592E1,-1.161434784E0,6.900650024E-1,-4.377646637E0,4.581365576E0
1.527257892E1,-2.041754150E-1,6.138734436E-1,-3.970643005E0,4.023000631E0
1.528250192E1,9.734257507E-1,5.788462830E-1,-3.412603455E0,3.595619981E0
1.529242592E1,2.134710846E0,5.427713013E-1,-2.787503357E0,3.552712491E0
1.530234892E1,3.246448975E0,4.264631653E-1,-2.287842407E0,3.994436713E0
1.531227192E1,4.588558044E0,3.086581421E-1,-2.063459015E0,5.040634671E0
1.532219492E1,5.867797852E0,2.924917603E-1,-2.065704346E0,6.227659071E0
1.533211792E1,7.408543854E0,2.142045593E-1,-2.083367615E0,7.698884740E0
1.534204192E1,9.476792908E0,7.708969116E-2,-1.936672668E0,9.672964781E0
1.535196492E1,1.156929153E1,6.496490479E-2,-1.802252197E0,1.170900679E1
1.536188792E1,1.397344208E1,2.459385681E-1,-1.793270874E0,1.409018771E1
1.537181092E1,1.672561890E1,5.447172546E-1,-1.978735199E0,1.685106636E1
1.538173492E1,1.955099350E1,7.535330200E-1,-2.468516693E0,1.972061697E1
1.539165792E1,2.190529770E1,6.035449219E-1,-3.003504181E0,2.211848483E1
1.540158092E1,2.343212265E1,-8.247848511E-2,-3.651656342E0,2.371509580E1
1.541150392E1,2.412158890E1,-1.536554718E0,-4.149371338E0,2.452405623E1
1.542142692E1,2.376053970E1,-3.767814789E0,-4.316423950E0,2.444158733E1
1.543135092E1,2.282049454E1,-6.207441559E0,-4.176315308E0,2.401559725E1
1.544127392E1,2.225437180E1,-8.413853302E0,-3.503314819E0,2.404835142E1
1.545119692E1,2.215587662E1,-1.085782104E1,-2.331401825E0,2.478327220E1
1.546111992E1,2.057486435E1,-1.198542618E1,-3.306623840E-1,2.381354281E1
1.547104392E1,1.864193390E1,-9.827962646E0,2.116149445E0,2.117991118E1
1.548096692E1,1.915297119E1,-5.002147980E0,4.087998962E0,2.021310281E1
1.549088992E1,2.084610031E1,1.341210938E-1,4.884342957E0,2.141108808E1
1.550081292E1,2.076212494E1,4.619992676E0,3.465293884E0,2.155036951E1
1.551073592E1,1.888697433E1,7.556885376E0,2.094145203E-1,2.034375016E1
1.552065992E1,1.599319199E1,8.496182098E0,-3.589535522E0,1.846217932E1
1.553058292E1,1.189740921E1,8.196355591E0,-5.894741821E0,1.560373584E1
1.554050592E1,7.563172302E0,7.053931274E0,-5.733078003E0,1.182487654E1
1.555042892E1,3.891457672E0,5.144951019E0,-4.084406433E0,7.635203973E0
1.556035292E1,6.641688538E-1,3.268902283E0,-1.624272308E0,3.710135164E0
1.557027592E1,-1.778900757E0,1.589394836E0,1.178199921E0,2.660604988E0
1.558019892E1,-3.429069214E0,2.260299683E-1,3.651057587E0,5.013963175E0
1.559012192E1,-4.423601074E0,-5.635780334E-1,5.155728607E0,6.816700385E0
1.560004592E1,-4.854854279E0,-9.898915100E-1,5.320386200E0,7.270213517E0
1.560996892E1,-5.013224945E0,-1.312021637E0,4.173171844E0,6.653509478E0
1.561989192E1,-4.777315521E0,-1.437011719E0,2.013013916E0,5.379588395E0
1.562981492E1,-4.512965240E0,-1.137783966E0,-1.727407837E-1,4.657386283E0
1.563973783E1,-3.909420319E0,-6.676116943E-1,-2.459834747E0,4.666911140E0
1.564966183E1,-3.183280334E0,-1.742376709E-1,-4.615951080E0,5.609869591E0
1.565958483E1,-2.309098206E0,2.755769348E-1,-6.014193420E0,6.448131487E0
1.566950783E1,-1.257235565E0,6.373745728E-1,-6.610852661E0,6.759457117E0
1.567943083E1,5.792953491E-2,9.036708069E-1,-6.209387512E0,6.275067333E0
1.568935483E1,1.944755859E0,1.140029297E0,-5.116959229E0,5.591512666E0
1.569927783E1,4.309089203E0,1.390757904E0,-3.672313385E0,5.829952221E0
1.570920083E1,7.024292908E0,1.658401337E0,-2.163750458E0,7.534772849E0
1.571912383E1,9.924212494E0,1.854493561E0,-9.057664490E-1,1.013654541E1
1.572904683E1,1.267384460E1,1.857487335E0,-1.222956848E-1,1.280982250E1
1.573897083E1,1.542452454E1,1.871109009E0,2.164498901E-1,1.553910733E1
1.574889383E1,1.842204117E1,2.082020416E0,7.978408813E-2,1.853949232E1
1.575881683E1,2.150068909E1,2.300715637E0,-8.171507263E-1,2.163886917E1
1.576873983E1,2.382685181E1,2.105521545E0,-2.478096771E0,2.404772446E1
1.577866383E1,2.495700165E1,1.009351044E0,-4.099225616E0,2.531154621E1
1.578858683E1,2.497226990E1,-9.407936096E-1,-4.705914001E0,2.542921515E1
1.579850983E1,2.423280762E1,-2.783312073E0,-4.242926788E0,2.475839694E1
1.580843283E1,2.375095963E1,-4.268822937E0,-3.057242432E0,2.432442525E1
1.581835683E1,2.429717377E1,-5.706283722E0,-1.633103943E0,2.501162441E1
1.582827983E1,2.527568893E1,-7.190447388E0,-5.502557373E-1,2.628432548E1
1.583820283E1,2.443174393E1,-8.090076599E0,2.580633545E-1,2.573763873E1
1.584812583E1,2.168854843E1,-7.396419067E0,1.226399689E0,2.294785838E1
1.585804883E1,1.953303085E1,-4.663252716E0,2.742896118E0,2.026841630E1
1.586797283E1,1.901660477E1,-6.873706055E-1,3.929328918E0,1.943047506E1
1.587789583E1,1.847218689E1,2.805316315E0,3.506009216E0,1.901009176E1
1.588781883E1,1.642324768E1,5.353617096E0,1.304537201E0,1.732299332E1
1.589774183E1,1.295810349E1,6.823111267E0,-1.927541656E0,1.477100911E1
1.590766583E1,8.831933899E0,7.494614868E0,-4.620741119E0,1.247090842E1
1.591758883E1,4.919819183E0,7.120243378E0,-5.188061371E0,1.009051373E1
1.592751183E1,2.183509369E0,5.561235352E0,-3.612288208E0,6.981667272E0
1.593743483E1,4.376898193E-1,3.320095825E0,-1.392703857E0,3.626876439E0
1.594735783E1,-1.245260468E0,1.038540344E0,6.688092041E-1,1.754008389E0
1.595728183E1,-2.998414764E0,-7.926017761E-1,1.929936676E0,3.652856998E0
1.596720483E1,-4.835544434E0,-1.786235504E0,2.030527496E0,5.540412364E0
1.597712783E1,-6.266269226E0,-2.073338470E0,9.157955933E-1,6.663598427E0
1.598705083E1,-6.992109833E0,-1.950444031E0,-8.469387817E-1,7.308292354E0
1.599697483E1,-6.761289825E0,-1.587149506E0,-2.619552612E0,7.422677384E0
1.600689783E1,-5.635480957E0,-9.093589783E-1,-4.262536011E0,7.124239792E0
1.601682083E1,-3.761078796E0,-1.496887207E-4,-5.556744690E0,6.709927368E0
1.602674383E1,-1.467099152E0,9.647438049E-1,-6.215973816E0,6.459213653E0
1.603666783E1,1.227297821E0,1.836381226E0,-6.274651794E0,6.652053148E0
1.604659083E1,3.748055878E0,2.550695801E0,-5.901777191E0,7.442106284E0
1.605651383E1,5.395679626E0,2.937641144E0,-5.052443390E0,7.954261646E0
1.606643683E1,6.347849579E0,3.031795349E0,-4.116140442E0,8.150434924E0
1.607635983E1,7.268584900E0,2.777923279E0,-3.408711548E0,8.495204448E0
1.608628383E1,8.102949829E0,2.211650848E0,-2.585573273E0,8.788309539E0
1.609620683E1,9.064699860E0,1.619033203E0,-1.569186859E0,9.340899285E0
1.610612983E1,1.041264679E1,1.121168518E0,-7.153623962E-1,1.049723656E1
1.611605283E1,1.201356766E1,8.110134888E-1,-6.092330933E-2,1.204106567E1
1.612597683E1,1.418974228E1,6.210585022E-1,5.388793945E-1,1.421354603E1
1.613589983E1,1.662023804E1,4.236190796E-1,1.090781708E0,1.666137960E1
1.614582283E1,1.838087677E1,2.733316040E-1,1.143023071E0,1.841841043E1
1.615574583E1,1.963287323E1,-2.008822632E-1,7.418572998E-1,1.964791127E1
1.616566883E1,1.999467087E1,-1.247505798E0,3.424877930E-1,2.003647753E1
1.617559283E1,1.915910843E1,-2.135758667E0,9.460327148E-1,1.930098129E1
1.618551583E1,1.932720886E1,-3.022065582E0,2.335443420E0,1.970096898E1
1.619543883E1,2.093800919E1,-4.358785858E0,3.794309692E0,2.172086621E1
1.620536183E1,2.256781998E1,-6.207591248E0,4.547393646E0,2.384364646E1
1.621528583E1,2.347403549E1,-7.864495697E0,4.578528900E0,2.517624995E1
1.622520883E1,2.442081665E1,-8.018824768E0,3.542533264E0,2.594662557E1
1.623513183E1,2.495041534E1,-6.561754761E0,1.850601654E0,2.586512281E1
1.624505483E1,2.469115448E1,-4.102069702E0,-1.380130005E-1,2.502996470E1
1.625497883E1,2.336326584E1,-1.432521057E0,-2.461631012E0,2.353622600E1
1.626490183E1,2.049058960E1,9.517208862E-1,-5.510041809E0,2.123983511E1
1.627482483E1,1.722063950E1,2.748135223E0,-9.428293762E0,1.982411146E1
1.628474783E1,1.397838181E1,3.968697052E0,-1.274614426E1,1.932899138E1
1.629467083E1,1.002809647E1,4.887187042E0,-1.381252670E1,1.775480808E1
1.630459483E1,5.432053986E0,5.869594116E0,-1.185085602E1,1.429692743E1
1.631451783E1,1.827848969E0,5.781427460E0,-8.354576569E0,1.032302693E1
1.632444083E1,-6.619235229E-1,4.432283020E0,-4.650678864E0,6.458489716E0
1.633436383E1,-2.621348877E0,2.949616241E0,-1.035097504E0,4.079599582E0
1.634428783E1,-3.943699036E0,1.891915741E0,2.140848083E0,4.869839604E0
1.635421083E1,-4.497846680E0,8.408015442E-1,4.636458435E0,6.514162940E0
1.636413383E1,-4.581971741E0,-1.538800049E-1,5.873785400E0,7.451140786E0
1.637405683E1,-4.507576447E0,-9.780661011E-1,5.833219757E0,7.436485155E0
1.638398083E1,-4.763244781E0,-1.419498138E0,4.621339874E0,6.786770811E0
1.639390383E1,-4.973557434E0,-1.416953430E0,2.571053467E0,5.775322199E0
1.640382683E1,-4.607718201E0,-1.432071991E0,3.424877930E-1,4.837271451E0
1.641374983E1,-3.801195374E0,-1.372196503E0,-1.713037720E0,4.389363022E0
1.642367283E1,-2.269730072E0,-1.078058167E0,-3.154689789E0,4.033106950E0
1.643359683E1,-1.472937012E-1,-2.383044434E-1,-3.432212677E0,3.443627201E0
1.644351983E1,2.160606995E0,7.688012695E-1,-3.319048004E0,4.034272875E0
1.645344283E1,4.581971741E0,1.322799225E0,-3.355422363E0,5.831219603E0
1.646336583E1,7.482490082E0,1.578317871E0,-3.485052795E0,8.403828777E0
1.647328983E1,1.071771240E1,1.543590088E0,-3.557502136E0,1.139771253E1
1.648321283E1,1.333367249E1,1.052162018E0,-3.517385559E0,1.382989038E1
1.649313583E1,1.510928009E1,1.498384094E-1,-3.458857269E0,1.550085449E1
1.650305883E1,1.668011353E1,-8.319699097E-1,-3.040926361E0,1.697544092E1
1.651298183E1,1.784933212E1,-1.412911835E0,-2.292333069E0,1.805130931E1
1.652290583E1,1.910072983E1,-1.780996399E0,-1.749262390E0,1.926317074E1
1.653282883E1,2.090462860E1,-2.506387939E0,-1.202299805E0,2.108864629E1
