"Time (s)","Acceleration x (m/s^2)","Acceleration y (m/s^2)","Acceleration z (m/s^2)","Absolute acceleration (m/s^2)"
3.817458346E-3,-4.105961609E-1,-9.058712311E0,-1.067729645E0,9.130657399E0
1.373945834E-2,-2.897973633E-1,-7.851772156E0,-9.386979675E-1,7.912993262E0
2.366145834E-2,-3.338058472E-1,-4.086053009E0,-9.160949707E-1,4.200772016E0
3.358445835E-2,4.505630493E-2,2.192041626E0,-8.523275757E-1,2.352347520E0
4.350645834E-2,7.008425903E-1,7.278614044E0,-3.598516846E-1,7.321126688E0
5.342845834E-2,-6.870712280E-2,4.688101044E0,3.088078308E-1,4.698763065E0
6.335045834E-2,-9.542655945E-1,1.403032379E0,-4.610412598E-2,1.697424011E0
7.327345834E-2,-9.370513916E-1,-1.056802368E-1,-4.073030090E-1,1.027194901E0
8.319545834E-2,-1.348246307E0,-3.315305786E0,-5.171745300E-1,3.616142981E0
9.311745834E-2,-2.287393341E0,-1.055170761E1,1.273851013E-1,1.079754272E1
1.030404583E-1,-1.784439240E0,-1.430455353E1,-2.082170105E-1,1.441692857E1
1.129624583E-1,-6.713539124E-1,-1.752226227E1,-4.272116089E-1,1.754032214E1
1.228844583E-1,6.203100586E-1,-1.456770630E1,-1.181642761E0,1.462870914E1
1.328074583E-1,-5.119354248E-2,-2.037383240E1,-6.083349609E-1,2.038297669E1
1.427294583E-1,4.112098846E0,-2.524006302E1,3.974235535E-1,2.557592781E1
1.526514583E-1,6.779701538E0,-2.111598907E1,-6.819818115E-1,2.218816006E1
1.625744583E-1,4.100572815E0,-1.392958328E1,2.092648315E-1,1.452211347E1
1.724964583E-1,-3.022215271E-1,-1.343845459E1,8.068222046E-1,1.346604477E1
1.824184583E-1,-1.385369110E0,-1.446112793E1,-1.901046753E-2,1.452734766E1
1.923414583E-1,-9.355545044E-1,-1.386910904E1,-3.580554199E-1,1.390523827E1
2.022634583E-1,-1.415905609E0,-1.497396149E1,-7.740403748E-1,1.506065901E1
2.121854583E-1,-6.906637573E-1,-1.314117279E1,-1.136287079E0,1.320827722E1
2.221074583E-1,-1.050216064E0,-1.104358475E1,-1.197210388E0,1.115782374E1
2.320304583E-1,-1.387614441E0,-1.059811111E1,-1.072519684E0,1.074224053E1
2.419524583E-1,-1.098565521E0,-1.066562073E1,-6.638694763E-1,1.074258043E1
2.518744583E-1,-7.441026306E-1,-1.044842239E1,-1.330732727E-1,1.047573042E1
2.617974583E-1,-8.542735291E-1,-1.021580612E1,1.428030396E-1,1.025245681E1
2.717194583E-1,-1.137185211E0,-9.944869537E0,4.954696655E-2,1.000979896E1
2.816414583E-1,-1.519939270E0,-9.816735992E0,-1.893562317E-1,9.935510893E0
2.915644583E-1,-1.804347839E0,-9.837243347E0,-4.168830872E-1,1.001003593E1
3.014864583E-1,-1.850302277E0,-9.966125336E0,-5.520520020E-1,1.015145478E1
3.114084583E-1,-1.792672119E0,-1.009306137E1,-6.301895142E-1,1.027037974E1
3.213314583E-1,-1.772464142E0,-1.020023849E1,-7.066804504E-1,1.037718130E1
3.312534583E-1,-1.772613831E0,-1.010773087E1,-7.018904114E-1,1.028596292E1
3.411754583E-1,-1.616189117E0,-1.000205063E1,-6.399192810E-1,1.015197423E1
3.510974583E-1,-1.496438141E0,-9.848919067E0,-5.764512634E-1,9.978618640E0
3.610204583E-1,-1.479822693E0,-9.627828827E0,-4.713697815E-1,9.752289608E0
3.709424583E-1,-1.306632843E0,-9.245673523E0,-3.487747192E-1,9.344057581E0
3.808644583E-1,-9.131011963E-1,-8.930578766E0,-2.725831604E-1,8.981274546E0
3.907874583E-1,-6.246510315E-1,-8.970695343E0,-2.924917603E-1,8.997172627E0
4.007094583E-1,-7.911048889E-1,-9.313332825E0,-4.044589233E-1,9.355618754E0
4.106314583E-1,-1.003213806E0,-9.398056641E0,-6.463558960E-1,9.473525347E0
4.205544583E-1,-1.030457153E0,-9.409582672E0,-7.545808411E-1,9.495866483E0
4.304764583E-1,-1.037342834E0,-9.599986725E0,-7.876620483E-1,9.687942856E0
4.403984583E-1,-1.131646729E0,-9.785001984E0,-7.104226685E-1,9.875808246E0
4.503214583E-1,-1.305734711E0,-9.747729492E0,-5.927673340E-1,9.852641600E0
4.602434583E-1,-1.403481445E0,-9.802066498E0,-5.304968262E-1,9.916233896E0
4.701654583E-1,-1.465153198E0,-9.878557434E0,-5.131329346E-1,9.999793812E0
4.800874583E-1,-1.465602264E0,-9.792037354E0,-5.372328186E-1,9.915674694E0
4.900104583E-1,-1.358125763E0,-9.893675995E0,-5.469625854E-1,1.000142482E1
4.999324583E-1,-1.312770081E0,-1.012793884E1,-5.492079163E-1,1.022742098E1
5.098544583E-1,-1.167272644E0,-1.025846741E1,-6.065386963E-1,1.034246432E1
5.197774583E-1,-1.134939880E0,-1.008931915E1,-6.358776855E-1,1.017284571E1
5.296994583E-1,-1.271905060E0,-9.788444824E0,-7.447013855E-1,9.898786527E0
5.396214583E-1,-1.423988800E0,-9.668993225E0,-8.762777710E-1,9.812493914E0
5.495444583E-1,-1.435215454E0,-9.692943420E0,-9.924362183E-1,9.848752469E0
5.594664583E-1,-1.517244873E0,-9.570048981E0,-1.040186920E0,9.745247987E0
5.693884583E-1,-1.687890015E0,-9.737850037E0,-1.069376221E0,9.940737475E0
5.793114583E-1,-1.638193359E0,-9.601333923E0,-1.169817352E0,9.810084772E0
5.892334583E-1,-1.881138153E0,-9.905651093E0,-1.265169067E0,1.016175463E1
5.991554583E-1,-1.722468109E0,-1.025861710E1,-1.259331207E0,1.047816951E1
6.090776667E-1,-1.576371918E0,-1.014365616E1,-1.103654938E0,1.032457083E1
6.189996667E-1,-1.548829193E0,-1.022224274E1,-1.038240967E0,1.039091251E1
6.289216667E-1,-1.485061798E0,-1.030097900E1,-1.177152100E0,1.047383712E1
6.388436667E-1,-1.310674438E0,-1.020368134E1,-1.357527008E0,1.037669793E1
6.487666667E-1,-1.205443268E0,-9.976902924E0,-1.543290710E0,1.016727258E1
6.586886667E-1,-1.158291321E0,-9.701475677E0,-1.716181183E0,9.919957004E0
6.686106667E-1,-1.057101746E0,-9.360335083E0,-1.829345856E0,9.595824260E0
6.785336667E-1,-8.939410400E-1,-8.959917755E0,-1.752405853E0,9.173340887E0
6.884556667E-1,-6.155200195E-1,-8.564140778E0,-1.662891998E0,8.745775091E0
6.983776667E-1,-3.625460815E-1,-7.978109436E0,-1.537752228E0,8.133040744E0
7.083006667E-1,-1.695973206E-1,-7.114704895E0,-1.001118164E0,7.186795292E0
7.182226667E-1,9.190887451E-2,-6.060297546E0,-8.000862122E-1,6.113574367E0
7.281446667E-1,4.179309082E-1,-5.257666626E0,-1.763183441E0,5.561163587E0
7.380676667E-1,5.634283447E-1,-4.998854828E0,-3.337609406E0,6.037022249E0
7.479896667E-1,4.420307922E-1,-5.024900665E0,-4.567451935E0,6.804897875E0
7.579116667E-1,2.224374390E-1,-5.009333038E0,-4.714296570E0,6.882404235E0
7.678336667E-1,1.579216003E-1,-4.895868988E0,-4.928052063E0,6.948393305E0
7.777566667E-1,-2.261796570E-1,-4.731361084E0,-5.021607513E0,6.903149786E0
7.876786667E-1,-6.780899048E-1,-4.783153381E0,-5.125042419E0,7.043040678E0
7.976006667E-1,-1.251397705E0,-5.647006989E0,-5.943839722E0,8.293606862E0
8.075236667E-1,-2.023192749E0,-7.355703735E0,-6.471941528E0,1.000428476E1
8.174456667E-1,-2.144141235E0,-9.087602234E0,-5.037324829E0,1.060926470E1
8.273676667E-1,-1.227447510E0,-1.075199112E1,-3.638932800E0,1.141725765E1
8.372906667E-1,7.694000244E-2,-1.229019241E1,-4.315076752E0,1.302592172E1
8.472126667E-1,8.873547363E-1,-1.330957260E1,-5.531896362E0,1.444070631E1
8.571346667E-1,1.104553070E0,-1.365101257E1,-4.832700348E0,1.452326321E1
8.670576667E-1,7.060816956E-1,-1.327948517E1,-4.563110962E0,1.405934776E1
8.769796667E-1,7.484436035E-1,-1.363439713E1,-6.815028076E0,1.526111269E1
8.869016667E-1,1.379231873E0,-1.666619247E1,-9.477391663E0,1.922199794E1
8.968246667E-1,2.190395050E0,-2.157987442E1,-9.115743713E0,2.352839973E1
9.067466667E-1,2.146386566E0,-2.524994247E1,-7.175179138E0,2.633723155E1
9.166686667E-1,5.504054260E-1,-2.567610626E1,-6.259233856E0,2.643375470E1
9.265906667E-1,-1.228794708E0,-2.282693115E1,-6.311624908E0,2.371529741E1
9.365136667E-1,-2.540067902E0,-1.843715973E1,-5.536387024E0,1.941732178E1
9.464356667E-1,-3.372935944E0,-1.490196121E1,-3.805985413E0,1.574581436E1
9.563576667E-1,-3.351680145E0,-1.256876312E1,-2.761906586E0,1.329795827E1
9.662806667E-1,-2.698139191E0,-1.077654007E1,-2.309247894E0,1.134664694E1
9.762026667E-1,-2.062261505E0,-9.113797760E0,-2.123334503E0,9.582420443E0
9.861246667E-1,-1.678759003E0,-7.720195770E0,-2.054777069E0,8.163440655E0
9.960476667E-1,-9.599537659E-1,-7.213200073E0,-1.681752777E0,7.468604885E0
1.005969667E0,4.008663940E-1,-7.193590851E0,-1.322948914E0,7.325205596E0
1.015891667E0,1.559307404E0,-6.460565186E0,-1.059945831E0,6.730068890E0
1.025814667E0,2.081122284E0,-5.236410828E0,-7.129673767E-1,5.679735099E0
1.035736667E0,2.002835083E0,-3.883673859E0,-4.266128540E-1,4.390474865E0
1.045658667E0,1.614243164E0,-2.333497467E0,-1.835183716E-1,2.843355485E0
1.055581667E0,1.048868866E0,-8.568182373E-1,-1.016386414E-1,1.358158239E0
1.065503667E0,2.710862732E-1,8.023315430E-2,-2.664459229E-1,3.884823759E-1
1.075425667E0,-5.264552307E-1,4.757107544E-1,-4.279600525E-1,8.286167017E-1
1.085347667E0,-9.804611206E-1,2.044747925E-1,-4.909790039E-1,1.115425628E0
1.095270667E0,-7.390132141E-1,-5.057981873E-1,-5.333409119E-1,1.042317066E0
1.105192667E0,-1.872605896E-1,-1.637594604E0,-5.472619629E-1,1.736743583E0
1.115114667E0,1.667532349E-1,-2.585872650E0,-5.854325867E-1,2.656553278E0
1.125037667E0,2.891986084E-1,-2.827170868E0,-7.376660156E-1,2.936099811E0
1.134959667E0,4.459226990E-1,-2.206262054E0,-7.168592834E-1,2.362271479E0
1.144881667E0,2.546205139E-1,-1.108894043E0,-1.829196167E-1,1.152361571E0
1.154804667E0,-5.198689270E-1,-8.816665649E-2,6.427633667E-1,8.313734457E-1
1.164726667E0,-1.821861420E0,1.006207581E0,1.801952820E0,2.752937829E0
1.174648667E0,-3.613485718E0,2.224224701E0,3.538341980E0,5.524881765E0
1.184571667E0,-4.982688446E0,3.230432281E0,4.497547302E0,7.449215302E0
1.194493667E0,-5.133574677E0,2.706970825E0,3.000660095E0,6.533394295E0
1.204415667E0,-4.466711426E0,7.664062500E-1,6.480024719E-1,4.578077840E0
1.214337667E0,-3.773952026E0,-1.254690857E0,-1.545386353E0,4.266753101E0
1.224260667E0,-2.264341278E0,-4.609514465E0,-5.147645416E0,7.271390401E0
1.234182667E0,-4.034111023E-1,-1.141930344E1,-9.738448792E0,1.501334794E1
1.244104667E0,1.362167358E0,-2.242546600E1,-1.064646057E1,2.486170043E1
1.254027667E0,3.140619049E0,-3.130215683E1,-4.466262360E0,3.177477002E1
1.263949667E0,1.783690796E0,-3.433335342E1,3.537743225E0,3.456119699E1
1.273871667E0,3.978726196E-1,-3.209341141E1,-5.173242188E-1,3.210004646E1
1.283794667E0,-1.433718567E0,-2.881522842E1,-9.857900391E0,3.048854110E1
1.293716667E0,-1.677262115E0,-2.830239487E1,-9.767638092E0,2.998742265E1
1.303638667E0,8.794212341E-1,-2.928225723E1,-4.695884857E0,2.966943385E1
1.313561667E0,8.792715454E-1,-2.924588287E1,-1.987716522E0,2.932653748E1
1.323483667E0,1.707948303E-1,-2.509965500E1,-1.591939545E0,2.515066845E1
1.333405667E0,-4.613406372E-1,-2.026351181E1,-2.206112366E0,2.038846924E1
1.343328667E0,-1.755998383E0,-1.665361862E1,-2.779270477E0,1.697500774E1
1.353250667E0,-3.070564728E0,-1.377525421E1,-2.526895294E0,1.433775422E1
1.363172667E0,-3.583098907E0,-1.157198593E1,-1.953437805E0,1.227050836E1
1.373094667E0,-3.527414703E0,-1.002151016E1,-1.665586395E0,1.075395269E1
1.383017667E0,-2.763253784E0,-8.814719696E0,-1.432670746E0,9.348122820E0
1.392939667E0,-1.249302063E0,-7.683671722E0,-1.078058167E0,7.858866088E0
1.402861667E0,1.047821045E-1,-6.438261566E0,-8.580157471E-1,6.496028195E0
1.412784667E0,9.854008484E-1,-4.885241089E0,-7.894583130E-1,5.045774446E0
1.422706667E0,1.563798065E0,-3.161575470E0,-8.228388977E-1,3.621890072E0
1.432628667E0,1.937720490E0,-1.361269226E0,-7.969427490E-1,2.498586069E0
1.442551667E0,2.134411469E0,2.435435486E-1,-6.083349609E-1,2.232733124E0
1.452473667E0,2.089804230E0,1.316212921E0,-4.260140991E-1,2.506229476E0
1.462395667E0,1.788780212E0,1.749561768E0,-3.234773254E-1,2.522962268E0
1.472318667E0,1.120270386E0,1.686991882E0,-3.459306335E-1,2.054413627E0
1.482240667E0,1.615141296E-1,1.056502991E0,-5.122348022E-1,1.185187697E0
1.492162667E0,-2.212399292E-1,6.767427063E-1,-4.391867065E-1,8.365481218E-1
1.502084667E0,1.444496155E-1,7.014413452E-1,-3.861968994E-2,7.172009012E-1
1.512007667E0,6.529421997E-1,8.991801453E-1,5.897735596E-1,1.258050596E0
1.521929667E0,7.888595581E-1,5.022056580E-1,1.041683807E0,1.399862522E0
1.531851667E0,8.782237244E-1,-4.915777588E-1,1.272503815E0,1.622403021E0
1.541774667E0,9.035211182E-1,-1.617536316E0,1.424288177E0,2.336957628E0
1.551696667E0,4.944218445E-1,-2.584824829E0,1.463356934E0,3.011176825E0
1.561618667E0,-3.228785706E-1,-3.388054504E0,1.431922302E0,3.692365824E0
1.571541667E0,-1.345851288E0,-3.589236145E0,1.258133698E0,4.034455626E0
1.581463667E0,-2.617007904E0,-3.085683289E0,7.515870667E-1,4.115222333E0
1.591385667E0,-3.646566925E0,-2.517165527E0,-9.475296021E-2,4.431991737E0
1.601308667E0,-4.146078186E0,-2.628983002E0,-1.936223602E0,5.277355189E0
1.611230917E0,-4.406835938E0,-3.650458832E0,-5.384303284E0,7.857275260E0
1.621152917E0,-4.344415741E0,-5.657485199E0,-7.965834961E0,1.069278325E1
1.631074917E0,-3.590882721E0,-9.372609558E0,-6.436465302E0,1.192343634E1
1.640997917E0,-2.696791992E0,-1.815454742E1,-1.666783905E0,1.842928235E1
1.650919917E0,-1.376687164E0,-3.040058167E1,2.520907745E0,3.053597238E1
1.660841917E0,4.708608398E0,-3.500321045E1,-1.788780212E-1,3.531894296E1
1.670764917E0,6.612648926E0,-3.849664581E1,-8.734636230E0,4.002515128E1
1.680686917E0,4.561614075E0,-3.494453247E1,-8.641080780E0,3.628494109E1
1.690608917E0,3.229983215E0,-2.655567719E1,-1.919757843E0,2.682018368E1
1.700531917E0,4.215084686E0,-2.508708115E1,-1.951192474E0,2.551344217E1
1.710453917E0,4.090843048E0,-2.715308487E1,-3.767515411E0,2.771676726E1
1.720375917E0,7.720944214E-1,-2.392594574E1,-1.875899048E0,2.401178891E1
1.730298917E0,-3.589984589E0,-1.799378174E1,-8.934919739E-1,1.837015238E1
1.740220917E0,-6.384074249E0,-1.385803207E1,-2.037113800E0,1.539322220E1
1.750142917E0,-7.309599609E0,-1.141615997E1,-2.221230927E0,1.373655058E1
1.760065917E0,-6.437513123E0,-9.836494904E0,-1.154698792E0,1.181234678E1
1.769987917E0,-4.274062042E0,-8.792865143E0,-1.652563477E-1,9.778005595E0
1.779909917E0,-2.473306732E0,-7.909402313E0,3.332070923E-1,8.293787923E0
1.789831917E0,-1.393003235E0,-6.582860870E0,4.709207153E-1,6.745093148E0
1.799754917E0,-6.222560120E-1,-4.957391052E0,3.171903992E-1,5.006349802E0
1.809676917E0,-9.145980835E-2,-3.517684937E0,-8.801696777E-2,3.519974317E0
1.819598917E0,2.344125366E-1,-2.413281555E0,-5.278024292E-1,2.481421469E0
1.829521917E0,3.790118408E-1,-1.534010010E0,-8.598120117E-1,1.798920060E0
1.839443917E0,4.634362793E-1,-8.137078857E-1,-1.030606842E0,1.392495663E0
1.849365917E0,5.230123901E-1,-3.004252625E-1,-1.067579956E0,1.226182801E0
1.859288917E0,5.556445312E-1,1.368154907E-1,-1.153052216E0,1.287240745E0
1.869210917E0,7.704478455E-1,3.709286499E-1,-1.337618408E0,1.587577070E0
1.879132917E0,1.051114197E0,2.026785278E-1,-1.485211487E0,1.830784750E0
1.889055917E0,1.118025055E0,-2.814147949E-2,-1.374441833E0,1.771965666E0
1.898977917E0,1.166524200E0,1.034349060E-1,-1.038091278E0,1.564963575E0
1.908899917E0,1.031654663E0,3.564088440E-1,-5.944139099E-1,1.242846131E0
1.918821917E0,5.453160095E-1,2.740800476E-1,1.496887207E-3,6.103209511E-1
1.928744917E0,6.676116943E-2,1.791773987E-1,7.807763672E-1,8.038490713E-1
1.938666917E0,-2.390528870E-1,1.119671631E-1,1.491797791E0,1.514973127E0
1.948588917E0,-3.902384949E-1,1.526824951E-2,1.938319244E0,1.977271022E0
1.958511917E0,-4.894821167E-1,-4.625381470E-2,2.176473999E0,2.231316030E0
1.968433917E0,-6.716532898E-1,-1.579216003E-1,1.785337372E0,1.914023747E0
1.978355917E0,-9.383985901E-1,-3.204835510E-1,8.442443848E-1,1.302324922E0
1.988278917E0,-1.206790466E0,-9.357041931E-1,-8.981323242E-3,1.527077677E0
1.998200917E0,-1.826501770E0,-2.472707977E0,-2.037862244E0,3.688261919E0
2.008122917E0,-2.420167236E0,-4.999453583E0,-5.020859070E0,7.487374131E0
2.018045917E0,-1.283730469E0,-9.331145782E0,-7.480993195E0,1.202844565E1
2.027967917E0,1.611249390E0,-1.965053650E1,-7.388036499E0,2.105523195E1
2.037889917E0,4.064048767E0,-3.674873062E1,-1.848506012E0,3.701895014E1
2.047811917E0,6.182443542E0,-4.272415466E1,4.601580963E0,4.341371381E1
2.057734917E0,4.321663055E0,-3.902474762E1,-4.712350616E0,3.954508752E1
2.067656917E0,6.813830566E-1,-2.883513702E1,-1.037657181E1,3.065293873E1
2.077578917E0,-3.143014069E0,-2.838801682E1,-1.018287460E1,3.032241698E1
2.087501917E0,-1.934427338E0,-3.105906235E1,-4.936734009E0,3.150839104E1
2.097423917E0,-8.699908447E-1,-2.936832825E1,-2.067799988E0,2.945388573E1
2.107345917E0,-1.621877289E0,-2.426050003E1,-2.628833313E0,2.445635116E1
2.117268917E0,-3.394790497E0,-1.902124512E1,-2.210603027E0,1.944785680E1
2.127190917E0,-3.857328644E0,-1.468820572E1,-1.838177490E0,1.529709999E1
2.137112917E0,-3.720962219E0,-1.147528702E1,-1.792073364E0,1.219587221E1
2.147035917E0,-3.506757660E0,-9.073531494E0,-1.430575104E0,9.832236174E0
2.156957917E0,-2.896027679E0,-7.155120850E0,-6.909631348E-1,7.749849079E0
2.166879917E0,-2.007475433E0,-5.685177612E0,-6.885681152E-3,6.029199741E0
2.176802917E0,-9.723779297E-1,-4.338128815E0,3.068618774E-1,4.456348804E0
2.186724917E0,-2.353106689E-1,-3.056044922E0,2.460882568E-1,3.074953838E0
2.196646917E0,-7.125183105E-2,-1.933529205E0,-2.465373230E-1,1.950485238E0
2.206568917E0,-3.585044861E-1,-9.568103027E-1,-8.907975769E-1,1.355555880E0
2.216491917E0,-6.722520447E-1,-2.597099304E-1,-1.438807983E0,1.609204919E0
2.226413917E0,-9.211843872E-1,7.963439941E-2,-1.913919983E0,2.125561576E0
2.236335917E0,-1.033001862E0,6.182144165E-2,-2.310894470E0,2.532024484E0
2.246258917E0,-7.182064819E-1,-1.347198486E-1,-2.429298248E0,2.536820839E0
2.256180917E0,1.302291870E-2,-3.236270142E-1,-2.283351746E0,2.306208845E0
2.266102917E0,7.490423584E-1,-4.185296631E-1,-2.092049561E0,2.261172903E0
2.276025917E0,1.308429108E0,-3.632945251E-1,-1.741628265E0,2.208447114E0
2.285947917E0,1.890269165E0,-1.050814819E-1,-1.216071167E0,2.250108601E0
2.295869917E0,2.358046417E0,3.083587646E-1,-7.355703735E-1,2.489283392E0
2.305792917E0,2.239043884E0,4.793032837E-1,-4.011657715E-1,2.324646883E0
2.315714917E0,1.637145538E0,3.399430847E-1,9.759704590E-2,1.674912534E0
2.325636917E0,6.968009949E-1,2.591111755E-1,1.046324158E0,1.283535925E0
2.335558917E0,-2.929408264E-1,2.805166626E-1,1.972298584E0,2.013570369E0
2.345481917E0,-8.545729065E-1,2.342628479E-1,2.028132477E0,2.213254454E0
2.355403917E0,-1.243763580E0,3.779640198E-1,1.589694214E0,2.053517065E0
2.365325917E0,-1.639989624E0,5.915698242E-1,1.415755920E0,2.245859668E0
2.375248917E0,-2.067650299E0,3.336561584E-1,1.389261017E0,2.513274829E0
2.385170917E0,-2.777474213E0,-6.074368286E-1,-7.574249268E-2,2.844130698E0
2.395092917E0,-3.051254883E0,-2.409389648E0,-2.903661804E0,4.852480470E0
2.405015917E0,-2.874023438E0,-5.387446747E0,-4.588558044E0,7.638027108E0
2.414937917E0,-1.316961365E0,-1.092203751E1,-2.505489807E0,1.128285291E1
2.424859917E0,1.172511749E0,-2.365261414E1,-2.021845551E0,2.376781014E1
2.434782917E0,5.688171387E-3,-4.246519318E1,-2.346370697E0,4.252996731E1
2.444704917E0,5.890700226E0,-4.679089783E1,-4.612508240E0,4.738526882E1
2.454626917E0,3.140319672E0,-3.819666962E1,-8.227191467E0,3.919864611E1
2.464548917E0,-5.837261353E0,-3.397963898E1,-7.276368713E0,3.523684190E1
2.474471917E0,-4.003424835E0,-3.416854614E1,-5.787415009E0,3.488568658E1
2.484393917E0,3.070115662E-1,-3.488525574E1,-5.907016296E0,3.538316217E1
2.494315917E0,4.029620361E-1,-3.058814163E1,-4.894521790E0,3.097988267E1
2.504238917E0,-2.749332733E0,-2.446347794E1,-2.621348877E0,2.475665674E1
2.514160917E0,-4.964725800E0,-1.800755310E1,-9.674382019E-1,1.870444887E1
2.524082917E0,-5.880072327E0,-1.201266953E1,-6.474037170E-1,1.339024314E1
2.534005917E0,-6.079008636E0,-7.692952423E0,-3.008743286E-1,9.809505000E0
2.543927917E0,-5.265749817E0,-5.238805847E0,-5.553451538E-2,7.428074577E0
2.553849917E0,-3.337609406E0,-3.751498718E0,-5.298980713E-2,5.021572174E0
2.563772917E0,-1.354832611E0,-2.540666656E0,-5.254074097E-2,2.879812319E0
2.573694917E0,-3.532653809E-2,-1.649120636E0,-2.136058044E-1,1.663272159E0
2.583616917E0,9.446855164E-1,-1.113684082E0,-4.534071350E-1,1.529150414E0
2.593538917E0,1.877545624E0,-8.140072632E-1,-5.876779175E-1,2.129119707E0
2.603461917E0,2.451003113E0,-4.469705200E-1,-1.094673615E0,2.721306529E0
2.613384333E0,2.445015564E0,-9.894424438E-2,-2.080074463E0,3.211635229E0
2.623306333E0,1.914967804E0,-2.794688416E-1,-3.012335815E0,3.580415002E0
2.633229333E0,1.072819061E0,-6.921606445E-1,-3.327430573E0,3.563961463E0
2.643151333E0,5.776487732E-1,-8.475375366E-1,-2.955603790E0,3.128512705E0
2.653073333E0,7.825726318E-1,-7.423063660E-1,-2.363734589E0,2.598207049E0
2.662996333E0,1.321002960E0,-3.999682617E-1,-1.786385193E0,2.257475468E0
2.672918333E0,1.727856903E0,-1.601669312E-2,-1.176403656E0,2.090375941E0
2.682840333E0,1.922452240E0,2.966830444E-1,-5.809419250E-1,2.030107624E0
2.692763333E0,1.875599670E0,4.878355408E-1,-9.235794067E-2,1.940202986E0
2.702685333E0,1.572030945E0,5.101391602E-1,2.441423035E-1,1.670667148E0
2.712607333E0,9.563612366E-1,3.724255371E-1,4.809498596E-1,1.133419765E0
2.722529333E0,-3.278182983E-2,6.975494385E-2,8.207432556E-1,8.243542274E-1
2.732452333E0,-1.333427124E0,-2.692900085E-1,1.357826385E0,1.922039931E0
2.742374333E0,-2.614463196E0,-6.206094360E-1,1.883533173E0,3.281504394E0
2.752296333E0,-3.381468201E0,-7.515870667E-1,2.187700653E0,4.096979919E0
2.762219333E0,-3.429518280E0,-5.897735596E-1,2.383194122E0,4.217705859E0
2.772141333E0,-3.041674805E0,-5.221142578E-1,1.603764954E0,3.477995248E0
2.782063333E0,-2.634820862E0,-1.003213806E0,-4.480183411E-1,2.854722289E0
2.791986333E0,-2.300416260E0,-2.166594543E0,-2.862347717E0,4.263693392E0
2.801908333E0,-1.859732666E0,-4.368515625E0,-4.698728943E0,6.679864372E0
2.811830333E0,-9.041198730E-1,-7.929909668E0,-4.765789490E0,9.295894231E0
2.821753333E0,-2.615061951E-1,-1.361029724E1,-3.607947235E0,1.408282144E1
2.831675333E0,-4.475692749E-1,-2.607981674E1,-3.634591827E0,2.633566816E1
2.841597333E0,-3.113525391E-1,-4.695241196E1,-5.625002747E0,4.728918042E1
2.851520333E0,5.152435455E0,-5.325445679E1,-1.213706085E1,5.486249179E1
2.861442333E0,-3.427722015E0,-4.124328415E1,-1.395293472E1,4.367427335E1
2.871364333E0,-8.109087067E0,-3.430715790E1,-1.155701706E1,3.709855818E1
2.881286333E0,-1.447340240E0,-3.538970673E1,-1.052371582E1,3.694962423E1
2.891209333E0,2.031275940E0,-3.392260757E1,-9.116941223E0,3.518505370E1
2.901131333E0,1.277293854E0,-2.882765259E1,-6.711293793E0,2.962611175E1
2.911053333E0,-5.237608337E-1,-2.135803574E1,-3.058290253E0,2.158224166E1
2.920976333E0,-1.670975189E0,-1.405517212E1,-7.506889343E-1,1.417404513E1
2.930898333E0,-2.279759216E0,-8.895850983E0,-6.544390869E-1,9.206614867E0
2.940820333E0,-2.029030609E0,-5.582042084E0,-1.184786224E0,6.056391453E0
2.950743333E0,-1.859433289E0,-3.278931427E0,-1.114133148E0,3.930671206E0
2.960665333E0,-1.703158264E0,-1.366208954E0,-9.493258667E-1,2.380860050E0
2.970587333E0,-1.415755920E0,-2.395019531E-3,-9.589059448E-1,1.709933090E0
2.980510333E0,-8.469387817E-1,1.001267853E0,-1.110839996E0,1.718664630E0
2.990432333E0,-3.772155762E-2,1.451531525E0,-1.182690582E0,1.872731614E0
3.000354333E0,5.399272156E-1,1.050814819E0,-1.301992493E0,1.758100576E0
3.010276333E0,1.128652954E0,9.613009644E-1,-1.466500397E0,2.085325022E0
3.020199333E0,1.171164551E0,8.620573425E-1,-1.717678070E0,2.250597081E0
3.030121333E0,9.750723267E-1,1.487905884E-1,-1.867516479E0,2.111994906E0
3.040043333E0,1.061742096E0,-7.415579224E-1,-1.573677521E0,2.038054310E0
3.049966333E0,1.342109070E0,-1.550924835E0,-1.169517975E0,2.361016072E0
3.059888333E0,1.722318420E0,-2.069296875E0,-7.349716187E-1,2.790798018E0
3.069810333E0,2.186503143E0,-2.200873260E0,-3.472778320E-1,3.121736856E0
3.079733333E0,2.614912262E0,-1.932631073E0,-1.194515991E-1,3.253782059E0
3.089655333E0,2.694097595E0,-1.528471527E0,-1.073268127E-1,3.099339624E0
3.099577333E0,2.448308716E0,-1.061143341E0,-2.198927307E-1,2.677422935E0
3.109499333E0,1.732197876E0,-5.155279541E-1,-4.767585754E-1,1.869111364E0
3.119422333E0,5.046006775E-1,-1.172062683E-1,-7.176077271E-1,8.850536724E-1
3.129344333E0,-9.601034546E-1,1.299298096E-1,-6.682104492E-1,1.176939082E0
3.139266333E0,-2.321672058E0,1.525328064E-1,-2.050735474E-1,2.335697447E0
3.149189333E0,-3.544628906E0,8.711883545E-2,5.221142578E-1,3.583934580E0
3.159111333E0,-4.356540527E0,9.774673462E-2,1.318907318E0,4.552858037E0
3.169033333E0,-4.453389130E0,4.520599365E-2,2.040556641E0,4.898835548E0
3.178956333E0,-4.004472656E0,-7.888595581E-2,2.403701477E0,4.671167417E0
3.188878333E0,-3.274141388E0,-2.546205139E-1,1.863325195E0,3.775819675E0
3.198800333E0,-2.371368713E0,-9.400451660E-1,3.496728516E-1,2.574751559E0
3.208723333E0,-1.358724518E0,-2.311942291E0,-6.587800598E-1,2.761376584E0
3.218645333E0,-3.668870544E-1,-4.534819794E0,-1.005758514E0,4.659479248E0
3.228567333E0,7.780819702E-1,-7.938292236E0,-2.020648041E0,8.228299562E0
3.238490333E0,2.362986145E0,-1.439571396E1,-5.629343719E0,1.563680897E1
3.248412333E0,4.977149963E0,-3.114513336E1,-1.026834686E1,3.316971964E1
3.258334333E0,4.500541077E0,-4.955205597E1,-6.919510803E0,5.023485593E1
3.268256333E0,5.635331268E0,-4.967599823E1,-8.329129486E0,5.068368728E1
3.278179333E0,-7.185058594E-3,-4.854345337E1,-1.574665466E1,5.103355807E1
3.288101333E0,-2.244432678E0,-4.771747101E1,-1.475556564E1,4.999721227E1
3.298023333E0,1.356179810E0,-3.878030594E1,-7.292535095E0,3.948331826E1
3.307946333E0,-1.106648712E0,-2.874307846E1,-4.546046448E0,2.912139710E1
3.317868333E0,-5.936504974E0,-1.988464966E1,-2.797532501E0,2.093961727E1
3.327790333E0,-8.702303467E0,-1.193632828E1,-9.904902649E-1,1.480496840E1
3.337713333E0,-9.247769165E0,-8.178692322E0,-1.778601379E0,1.247299745E1
3.347635333E0,-6.844516754E0,-7.141948242E0,-2.237397308E0,1.014203042E1
3.357557333E0,-4.689747620E0,-5.851182404E0,-2.114502869E0,7.791096883E0
3.367479333E0,-3.280727692E0,-4.033512268E0,-1.808239746E0,5.504736722E0
3.377402333E0,-1.317560120E0,-2.187850342E0,-1.081950073E0,2.773674413E0
3.387324333E0,1.356928253E0,-1.935026093E0,-4.712200928E-1,2.409902205E0
3.397246333E0,3.512595520E0,-2.957400055E0,-6.246510315E-1,4.634083651E0
3.407169333E0,5.206622772E0,-3.279829559E0,-1.279090118E0,6.285083465E0
3.417091333E0,5.960754547E0,-2.507286072E0,-1.602417755E0,6.662193398E0
3.427013333E0,5.820795593E0,-1.442550201E0,-2.040257263E0,6.334450420E0
3.436936333E0,4.892126770E0,-3.442840576E-1,-2.479443970E0,5.495368800E0
3.446858333E0,3.732188873E0,2.377056885E-1,-2.678080902E0,4.599766853E0
3.456780333E0,2.604883118E0,1.407073975E-2,-2.529739380E0,3.631142434E0
3.466703333E0,1.772763519E0,-2.794688416E-1,-1.913620605E0,2.623497122E0
3.476625333E0,1.549727325E0,-5.824388123E-1,-1.071471863E0,1.972039986E0
3.486547333E0,1.917213135E0,-8.369096375E-1,-2.444416809E-1,2.106151866E0
3.496469333E0,2.680775299E0,-8.238867188E-1,3.694317627E-1,2.828749787E0
3.506392333E0,3.172053680E0,-7.994874573E-1,7.071295166E-1,3.346809959E0
3.516314333E0,2.955903168E0,-8.193960571E-1,8.827143860E-1,3.191858099E0
3.526236333E0,2.108964386E0,-6.963519287E-1,6.538403320E-1,2.315198473E0
3.536159333E0,7.804769897E-1,-4.113446045E-1,3.143463135E-1,9.365694421E-1
3.546081333E0,-8.431965637E-1,-1.420545959E-1,4.790039063E-2,8.564195238E-1
3.556003333E0,-2.706521759E0,3.532653809E-2,-2.145039368E-1,2.715238467E0
3.565926333E0,-4.565955048E0,2.495310974E-1,9.789642334E-2,4.573816238E0
3.575848333E0,-5.441484375E0,3.689826965E-1,7.574249268E-1,5.506322998E0
3.585770333E0,-5.511239319E0,2.112107849E-1,7.622149658E-1,5.567705136E0
3.595692333E0,-5.022805023E0,-2.395019531E-3,1.049317932E0,5.131241971E0
3.605615333E0,-3.553161163E0,-9.472302246E-1,-1.924996948E-1,3.682289435E0
3.615536708E0,-1.528920593E0,-2.843636627E0,-2.648891602E0,4.176181769E0
3.625458708E0,5.813909912E-1,-6.236181793E0,-3.204685822E0,7.035480798E0
3.635381708E0,1.444645844E0,-1.202943466E1,-5.505700836E0,1.330815696E1
3.645303708E0,2.445913696E-1,-2.570918747E1,-8.392447815E0,2.704543077E1
3.655225708E0,7.147636414E-1,-4.545492599E1,-3.741619263E0,4.561426201E1
3.665148708E0,1.907483368E0,-4.911960526E1,-3.878135376E0,4.930937079E1
3.675070708E0,-2.090852051E0,-4.105677200E1,-8.630452881E0,4.200612939E1
3.684992708E0,-9.913883972E-1,-3.356410309E1,-8.969348145E0,3.475602211E1
3.694915708E0,5.246889038E0,-3.459725464E1,-5.100044403E0,3.536255542E1
3.704837708E0,4.224664764E0,-3.206526993E1,-2.320324860E0,3.242550285E1
3.714759708E0,-4.376898193E-1,-2.381098480E1,-1.674418030E0,2.387379830E1
3.724682708E0,-5.659431152E0,-1.612701370E1,-4.926255798E-1,1.709831605E1
3.734604708E0,-9.249116364E0,-1.243763580E1,-3.544628906E-1,1.550376025E1
3.744526708E0,-1.031879196E1,-1.153112091E1,-1.811832275E0,1.557969683E1
3.754448708E0,-8.650062103E0,-1.064346680E1,-2.756068726E0,1.398938436E1
3.764371708E0,-5.249733124E0,-9.657916260E0,-2.646945648E0,1.130669561E1
3.774293708E0,-2.547702026E0,-9.145082703E0,-2.050436096E0,9.712240289E0
3.784215708E0,2.068698120E-1,-8.235873413E0,-1.621278534E0,8.396484388E0
3.794138708E0,2.607278137E0,-6.712491302E0,-1.241967316E0,7.307388151E0
3.804060708E0,3.799548798E0,-4.810396729E0,-9.354048157E-1,6.200924925E0
3.813982708E0,4.124672699E0,-3.007246399E0,-1.121318207E0,5.226261599E0
3.823905708E0,3.789819031E0,-1.529369659E0,-1.416204987E0,4.325197846E0
3.833827708E0,2.757864990E0,-4.013154602E-1,-1.627864838E0,3.227509463E0
3.843749708E0,1.515747986E0,3.402424622E-1,-1.933828583E0,2.480514035E0
3.853672708E0,1.048270111E0,7.161108398E-1,-1.822609863E0,2.221168988E0
3.863594708E0,1.082399139E0,2.441423035E-1,-1.181493073E0,1.620839055E0
3.873516708E0,1.762434998E0,-5.397775269E-1,-5.574407959E-1,1.925688744E0
3.883438708E0,2.802771606E0,-7.798782349E-1,-2.980302429E-1,2.924476152E0
3.893361708E0,3.406017151E0,-9.301657104E-1,-8.113128662E-2,3.531677132E0
3.903283708E0,3.316952362E0,-8.587641907E-1,5.837860107E-2,3.426814405E0
3.913205708E0,2.586321716E0,-5.056484985E-1,9.340576172E-2,2.636942370E0
3.923128708E0,1.210233307E0,-1.971400452E-1,4.379891968E-1,1.302061209E0
3.933050708E0,-3.939807129E-1,-1.353186035E-1,9.145980835E-1,1.004998299E0
3.942972708E0,-1.863774261E0,-1.025367737E-1,1.194965057E0,2.216327994E0
3.952895708E0,-3.019371185E0,8.981323242E-4,1.578766937E0,3.407214141E0
3.962817708E0,-3.514242096E0,6.047424316E-2,1.912273407E0,4.001292819E0
3.972739708E0,-3.421135712E0,5.343887329E-2,1.836381226E0,3.883210177E0
3.982661708E0,-2.730771332E0,1.763333130E-1,1.176703033E0,2.978730524E0
3.992584708E0,-2.145638123E0,5.827381897E-1,5.508544922E-2,2.224046123E0
4.002506708E0,-1.863774261E0,9.843530273E-1,-1.046922913E0,2.353434292E0
4.012428708E0,-1.831740875E0,7.303312683E-1,-1.581461334E0,2.527781309E0
4.022351708E0,-2.235002289E0,-5.596861267E-1,-2.698737946E0,3.548474361E0
4.032273708E0,-2.352058868E0,-2.588117981E0,-4.391417999E0,5.613830034E0
4.042195708E0,-1.488953705E0,-5.815257111E0,-4.025578766E0,7.227688621E0
4.052118708E0,-5.313949585E-2,-1.051368668E1,-2.054328003E0,1.071264183E1
4.062040708E0,1.467548218E0,-1.844254852E1,-3.725153503E0,1.887215044E1
4.071962708E0,1.935175781E0,-3.574416962E1,-6.609505463E0,3.640159515E1
4.081885708E0,1.725910950E0,-5.332885208E1,-6.611002350E0,5.376477085E1
4.091807708E0,4.237238617E0,-4.574532211E1,-6.451883240E0,4.639197650E1
4.101729708E0,-2.288141785E0,-2.956172607E1,-9.408983917E0,3.110723742E1
4.111651708E0,-4.969964905E0,-3.271417053E1,-1.097308136E1,3.486152635E1
4.121574708E0,-2.745291138E-1,-3.814951767E1,-9.324409790E0,3.927347301E1
4.131496708E0,1.102756805E0,-3.306219681E1,-7.010521545E0,3.381526789E1
4.141418708E0,-1.060993652E0,-2.372536285E1,-4.455185394E0,2.416334470E1
4.151341708E0,-3.650309143E0,-1.665691177E1,-3.134930878E0,1.733797157E1
4.161263708E0,-4.470902710E0,-1.281185760E1,-3.239263916E0,1.395082424E1
4.171185708E0,-3.414848785E0,-1.061038559E1,-3.378624115E0,1.164717028E1
4.181108708E0,-2.027084656E0,-8.530760193E0,-3.342399445E0,9.383739964E0
4.191030708E0,-1.043779449E0,-6.604865112E0,-2.896776123E0,7.287319850E0
4.200952708E0,-9.490264893E-2,-5.079986115E0,-2.419568481E0,5.627572929E0
4.210875708E0,7.598199463E-1,-3.984264679E0,-2.128573608E0,4.580667745E0
4.220797708E0,1.621128845E0,-3.134631500E0,-1.955084381E0,4.034393178E0
4.230719708E0,2.874322815E0,-2.498005371E0,-1.841919708E0,4.230180929E0
4.240641708E0,3.812272339E0,-1.644180908E0,-1.634600830E0,4.461913392E0
4.250564708E0,3.764072571E0,-2.362088013E-1,-1.299148407E0,3.988962710E0
4.260486708E0,3.409010925E0,9.925859070E-1,-1.230890350E0,3.757881494E0
4.270408708E0,2.883304138E0,1.458117828E0,-1.143921204E0,3.427551032E0
4.280331708E0,1.894310760E0,1.078656921E0,-1.041234741E0,2.415798791E0
4.290253708E0,1.119821320E0,3.662882996E-1,-7.876620483E-1,1.417243243E0
4.300175708E0,8.628057861E-1,-3.787124634E-1,-3.884422302E-1,1.019188069E0
4.310098708E0,8.024812317E-1,-1.072369995E0,1.287322998E-2,1.339447369E0
4.320020708E0,1.166673889E0,-1.509011993E0,3.442840576E-1,1.938240613E0
4.329942708E0,1.639540558E0,-1.737137604E0,6.421646118E-1,2.473482501E0
4.339865708E0,1.636846161E0,-1.899849243E0,8.913963318E-1,2.661443203E0
4.349787708E0,1.197958832E0,-1.826651459E0,8.650511169E-1,2.349483847E0
4.359709708E0,2.644999695E-1,-1.624272308E0,6.378236389E-1,1.764947523E0
4.369631708E0,-9.623487854E-1,-1.364562378E0,4.095483398E-1,1.719265980E0
4.379554708E0,-2.360441437E0,-1.066831512E0,3.454815674E-1,2.613268215E0
4.389476708E0,-3.611090698E0,-7.222480774E-1,4.293072510E-1,3.707549465E0
4.399398708E0,-4.318369904E0,-2.368075562E-1,5.432203674E-1,4.358839847E0
4.409321708E0,-4.210594025E0,2.374063110E-1,6.710545349E-1,4.270336987E0
4.419243708E0,-3.605103149E0,5.550457764E-1,6.394702148E-1,3.703210322E0
4.429165708E0,-3.418890381E0,6.086343384E-1,6.110293579E-1,3.525989800E0
4.439088708E0,-3.115621033E0,-1.151106262E-1,-2.790197754E-1,3.130207167E0
4.449010708E0,-2.655028839E0,-2.001338196E0,-1.207089844E0,3.537173816E0
4.458932708E0,-1.376836853E0,-5.344635773E0,-1.615141296E0,5.750608026E0
4.468854708E0,1.181642761E0,-1.130763565E1,-3.363355865E0,1.185626696E1
4.478777708E0,3.001258850E0,-2.542717392E1,-6.689289551E0,2.646309360E1
4.488699708E0,2.422113190E0,-4.756074692E1,-3.308420105E0,4.773716501E1
4.498621708E0,6.592590637E0,-5.131224564E1,-3.107537842E0,5.182726691E1
4.508544708E0,2.521656189E0,-3.762545746E1,-8.678053894E0,3.869550902E1
4.518466708E0,-6.083349609E0,-3.293421295E1,-7.984096985E0,3.442986102E1
4.528388708E0,-2.917882233E0,-3.791540451E1,-5.644761658E0,3.844418383E1
4.538311708E0,-5.399272156E-1,-3.557532074E1,-4.531975708E0,3.586688962E1
4.548233708E0,-2.375110931E0,-2.663276688E1,-2.744093628E0,2.687890387E1
4.558155708E0,-5.029091949E0,-1.945713867E1,-1.820963287E0,2.017889785E1
4.568078708E0,-6.445147247E0,-1.428853683E1,-1.985321503E0,1.580011739E1
4.578000708E0,-6.951993256E0,-1.098116455E1,-2.989283752E0,1.333611647E1
4.587922708E0,-6.303092651E0,-8.957522736E0,-3.337010651E0,1.144997077E1
4.597844708E0,-4.156257019E0,-7.749834137E0,-2.441722412E0,9.126686688E0
4.607767708E0,-1.898352356E0,-6.635850677E0,-9.306147766E-1,6.964502835E0
4.617690167E0,-4.983137512E-1,-4.957540741E0,-3.356021118E-1,4.993811728E0
4.627612167E0,9.277706909E-1,-3.057242432E0,-4.644841003E-1,3.228503557E0
4.637535167E0,1.894161072E0,-1.604064331E0,-6.292913818E-1,2.560639800E0
4.647457167E0,2.311193848E0,-3.998185730E-1,-8.367599487E-1,2.490309038E0
4.657379167E0,2.567011871E0,6.692582703E-1,-1.190773773E0,2.907816837E0
4.667302167E0,2.696642303E0,1.190175018E0,-2.030826874E0,3.579476788E0
4.677224167E0,3.127446442E0,8.093669128E-1,-2.575244751E0,4.131329274E0
4.687146167E0,4.073928223E0,-6.152206421E-2,-1.834285583E0,4.468252425E0
4.697069167E0,4.780458984E0,-6.836283875E-1,-4.796026611E-1,4.852850151E0
4.706991167E0,4.728816376E0,-9.104067993E-1,2.402503967E-1,4.821645477E0
4.716913167E0,3.878584442E0,-8.649014282E-1,3.733236694E-1,3.991345928E0
4.726835167E0,2.570005646E0,-6.592291260E-1,1.526824951E-1,2.657597412E0
4.736758167E0,1.088536377E0,-6.294410706E-1,-3.939807129E-1,1.317698109E0
4.746680167E0,-3.182382202E-1,-7.867639160E-1,-8.815168762E-1,1.223660503E0
4.756602167E0,-1.474882965E0,-1.088536377E0,-8.677455139E-1,2.028096024E0
4.766525167E0,-2.184706879E0,-1.310973816E0,-4.490661621E-1,2.587132952E0
4.776447167E0,-2.255359955E0,-1.359472961E0,1.673519897E-1,2.638715966E0
4.786369167E0,-2.086810455E0,-1.244212646E0,8.452922058E-1,2.572423351E0
4.796292167E0,-1.975591736E0,-9.803114319E-1,1.425036621E0,2.625776567E0
4.806214167E0,-2.007625122E0,-5.162763977E-1,1.804796906E0,2.748525390E0
4.816136167E0,-2.067201233E0,7.858657837E-2,1.996847534E0,2.875221185E0
4.826059167E0,-1.905986481E0,4.257147217E-1,1.997296600E0,2.793422846E0
4.835981167E0,-1.661395111E0,5.270539856E-1,1.869163055E0,2.555736713E0
4.845903167E0,-1.995650024E0,-3.427871704E-2,1.064885559E0,2.262250053E0
4.855825167E0,-2.689906311E0,-1.507365417E0,-1.634750519E0,3.490007983E0
4.865748167E0,-3.120860138E0,-3.559597778E0,-4.206702118E0,6.332996688E0
4.875670167E0,-2.104773102E0,-6.386319580E0,-4.709506531E0,8.209421377E0
4.885592167E0,-2.228865051E-1,-1.082938019E1,-2.327210541E0,1.107885655E1
4.895515167E0,4.596940613E-1,-1.877874939E1,-1.826202393E0,1.887293730E1
4.905437167E0,-6.168672180E-1,-3.549149506E1,-6.475084991E0,3.608259237E1
4.915359167E0,5.598358154E-1,-5.188615219E1,-9.319170685E0,5.271938114E1
4.925282167E0,2.571801910E0,-4.174055008E1,-7.597001953E0,4.250414244E1
4.935204167E0,-5.981112213E0,-2.788970306E1,-8.408165131E0,2.973729109E1
4.945126167E0,-5.314398651E0,-3.298869965E1,-8.870403900E0,3.457139284E1
4.955049167E0,1.028511200E0,-3.571348343E1,-7.942932587E0,3.660055890E1
4.964971167E0,2.372416534E0,-2.881058807E1,-6.865622864E0,2.971220494E1
4.974893167E0,6.331832886E-2,-2.051439011E1,-4.614154816E0,2.102699777E1
4.984816167E0,-2.442470856E0,-1.492441452E1,-4.014501801E0,1.564672609E1
4.994738167E0,-3.903732147E0,-1.168979095E1,-2.888243866E0,1.265828937E1
5.004660167E0,-4.193978577E0,-1.047057632E1,-2.176473999E0,1.148736105E1
5.014582167E0,-3.921694794E0,-9.395811310E0,-1.771566010E0,1.033437982E1
5.024505167E0,-3.974534912E0,-8.013735352E0,-2.501148834E0,9.288305957E0
5.034427167E0,-3.843407593E0,-7.242239685E0,-3.727249146E0,9.006342419E0
5.044349167E0,-2.534978485E0,-7.256759491E0,-4.012705536E0,8.671129105E0
5.054272167E0,-6.530918884E-1,-6.655459900E0,-3.554358673E0,7.573317706E0
5.064194167E0,9.677375793E-1,-5.120402069E0,-2.989283752E0,6.007566123E0
5.074116167E0,2.191592560E0,-3.550616455E0,-2.396965485E0,4.812005683E0
5.084039167E0,2.824775848E0,-1.761985931E0,-1.503174133E0,3.652873594E0
5.093961167E0,3.045267334E0,3.977229309E-1,-5.535488892E-1,3.120617413E0
5.103883167E0,3.429667969E0,2.092648315E0,4.236190796E-2,4.017909143E0
5.113806167E0,4.041595459E0,2.618055725E0,2.649490356E-1,4.822748970E0
5.123728167E0,4.378544769E0,2.256856842E0,2.034269714E-1,4.930156147E0
5.133650167E0,4.642146606E0,1.376387787E0,8.472381592E-2,4.842638390E0
5.143573167E0,4.499792633E0,1.508862305E-1,1.062789917E-1,4.503575870E0
5.153495167E0,3.717669067E0,-8.216413879E-1,7.349716187E-2,3.808091346E0
5.163417167E0,2.195334778E0,-1.275796967E0,6.750961304E-2,2.540021700E0
5.173339167E0,4.498146057E-1,-1.292262726E0,4.101470947E-2,1.368925980E0
5.183262167E0,-1.239123230E0,-1.145418091E0,2.155517578E-2,1.687564401E0
5.193184167E0,-2.622097321E0,-8.265811157E-1,2.197430420E-1,2.758064123E0
5.203106167E0,-3.491788788E0,-4.861889648E-1,4.686753845E-1,3.556490583E0
5.213029167E0,-3.770658875E0,-3.049159241E-1,8.783734131E-1,3.883604244E0
5.222951167E0,-3.297193451E0,-4.067042542E-1,1.344803467E0,3.584046507E0
5.232873167E0,-2.480342102E0,-5.050497437E-1,1.137933655E0,2.775259481E0
5.242796167E0,-1.887874146E0,-4.571493530E-1,2.052232361E-1,1.953246246E0
5.252718167E0,-1.356179810E0,-7.496411133E-1,-8.568182373E-1,1.770684321E0
5.262640167E0,-9.301657104E-1,-1.821711731E0,-1.302291870E0,2.424831127E0
5.272563167E0,-5.423222351E-1,-4.131109314E0,-1.942959595E0,4.597311123E0
5.282485167E0,3.019221497E-1,-8.692124634E0,-3.127446442E0,9.242570469E0
5.292407167E0,1.031954041E0,-1.865780090E1,-4.331542511E0,1.918178105E1
5.302330167E0,2.335144043E0,-4.112024002E1,-4.334087219E0,4.141390285E1
5.312252167E0,5.520070953E0,-5.232114761E1,-1.945055237E0,5.264747772E1
5.322174167E0,6.454577637E-1,-4.659750000E1,-8.655001831E0,4.739886790E1
5.332096167E0,-6.976991272E0,-3.728117340E1,-1.279269745E1,4.002770797E1
5.342019167E0,-6.566095734E0,-3.308405136E1,-6.529871063E0,3.435560047E1
5.351941167E0,-3.856430511E0,-2.967968079E1,9.057664490E-1,2.994287763E1
5.361863167E0,-3.507506104E0,-2.409374680E1,1.961371307E0,2.442658820E1
5.371786167E0,-5.289550323E0,-1.848266510E1,3.448828125E-1,1.922777148E1
5.381708167E0,-7.008425903E0,-1.352362747E1,-1.046324158E0,1.526765627E1
5.391630167E0,-6.779551849E0,-1.006791367E1,-1.516496429E0,1.223212861E1
5.401553167E0,-4.643194427E0,-8.447533264E0,-1.440005493E0,9.746470569E0
5.411475167E0,-1.072519684E0,-8.112679596E0,-1.293011169E0,8.284790075E0
5.421397167E0,1.248703308E0,-7.925269318E0,-1.535506897E0,8.168655651E0
5.431320167E0,2.122136993E0,-6.719676361E0,-1.998793488E0,7.324799739E0
5.441242167E0,2.594105530E0,-4.872068481E0,-2.161505127E0,5.927776919E0
5.451164167E0,3.083288269E0,-3.274740143E0,-2.099833374E0,4.963858353E0
5.461087167E0,3.536396027E0,-2.088756409E0,-1.665885773E0,4.432175042E0
5.471009167E0,3.885320435E0,-1.111289062E0,-8.252339172E-1,4.124522915E0
5.480931167E0,4.273313599E0,-6.171665955E-1,-4.228706360E-1,4.338308806E0
5.490854167E0,3.933220825E0,-9.267228699E-1,-1.170565796E0,4.207049515E0
5.500776167E0,2.559976501E0,-1.700314178E0,-2.242037659E0,3.804113676E0
5.510698167E0,1.086740112E0,-2.078427887E0,-2.670297089E0,3.554061493E0
5.520620167E0,7.572752380E-1,-1.418600006E0,-1.969753876E0,2.542798084E0
5.530543167E0,1.205443268E0,-5.779481506E-1,-1.179696808E0,1.782919543E0
5.540465167E0,1.449435883E0,9.415420532E-2,-6.679110718E-1,1.598697780E0
5.550387167E0,1.329984283E0,4.569996643E-1,-4.007167053E-1,1.462286143E0
5.560310167E0,1.092428284E0,3.385958862E-1,-2.740800476E-1,1.176081035E0
5.570232167E0,4.423301697E-1,-1.416055298E-1,4.520599365E-1,6.481252127E-1
5.580154167E0,-7.276368713E-1,-7.101232910E-1,1.780547333E0,2.050385161E0
5.590077167E0,-1.845811615E0,-1.004860382E0,3.146905975E0,3.784148798E0
5.599999167E0,-2.381547546E0,-7.069798279E-1,3.594175873E0,4.369174910E0
5.609921167E0,-2.815345459E0,-1.064286804E-1,2.799029388E0,3.971405625E0
5.619843667E0,-3.123105469E0,5.493576050E-1,1.312770081E0,3.432047032E0
5.629765667E0,-3.417692871E0,1.064137115E0,1.106199646E-1,3.581235700E0
5.639687667E0,-3.478616180E0,1.399739227E0,-3.305126953E-1,3.764210286E0
5.649610667E0,-3.121159515E0,1.212628326E0,-8.044271851E-1,3.443719976E0
5.659532667E0,-3.336860962E0,-6.915618896E-2,-1.050216064E0,3.498910893E0
5.669454667E0,-4.209246826E0,-1.382375336E0,1.019679565E0,4.546258553E0
5.679376667E0,-4.044439545E0,-2.365979919E0,8.526269531E-1,4.762596448E0
5.689299667E0,-1.685494995E0,-4.888683929E0,-5.095254364E0,7.259596475E0
5.699221667E0,1.107696533E0,-1.003902374E1,-1.393452301E0,1.019562154E1
5.709143667E0,1.469194794E0,-2.041679306E1,6.409671021E-1,2.047961941E1
5.719066667E0,5.388793945E-3,-4.158517319E1,-6.207591248E0,4.204593734E1
5.728988667E0,4.173171844E0,-5.152210922E1,-3.318898315E0,5.179727974E1
5.738910667E0,6.255491638E0,-4.556794098E1,-7.546556854E0,4.661028793E1
5.748833667E0,-1.544188843E0,-4.343861893E1,-1.187480621E1,4.505895201E1
5.758755667E0,5.544470215E-1,-4.199172775E1,-1.171763306E1,4.359949008E1
5.768677667E0,1.830243988E0,-3.372756317E1,-7.651937714E0,3.463308334E1
5.778600667E0,-4.101470947E0,-2.685400681E1,-4.690645752E0,2.756740653E1
5.788522667E0,-9.934241638E0,-2.203507782E1,-2.203268280E0,2.427113929E1
5.798444667E0,-1.165251846E1,-1.731733841E1,-1.133143616E0,2.090347843E1
5.808367667E0,-1.030157776E1,-1.232132767E1,-1.137634277E0,1.610067798E1
5.818289667E0,-8.493637390E0,-8.974437561E0,-1.871707764E0,1.249742756E1
5.828211667E0,-6.491101685E0,-6.680308228E0,-1.554217987E0,9.443331650E0
5.838133667E0,-3.883973236E0,-4.599185944E0,-3.329077148E-1,6.028978934E0
5.848056667E0,-1.491199036E0,-2.956950989E0,8.029302979E-1,3.407628321E0
5.857978667E0,3.294648743E-1,-1.760039978E0,1.362616425E0,2.250113630E0
5.867900667E0,2.351160736E0,-1.228944397E0,1.262474670E0,2.938044151E0
5.877823667E0,4.291276245E0,-8.981323242E-1,9.357041931E-1,4.482994069E0
5.887745667E0,4.601281586E0,-7.933502197E-2,6.292913818E-1,4.644792129E0
5.897667667E0,3.726201324E0,8.161029053E-1,-3.665876770E-1,3.832099527E0
5.907590667E0,3.049159241E0,7.209008789E-1,-1.663191376E0,3.547291319E0
5.917512667E0,2.878663788E0,-4.550537109E-1,-2.060465240E0,3.569215052E0
5.927434667E0,2.689008179E0,-1.485660553E0,-1.629661102E0,3.477606587E0
5.937357667E0,2.586471405E0,-1.599423981E0,-9.681866455E-1,3.191453709E0
5.947279667E0,2.262694702E0,-1.002465363E0,-7.297325134E-1,2.580161557E0
5.957201667E0,1.963317261E0,-5.319937134E-1,-9.496252441E-1,2.244865270E0
5.967124667E0,1.818418579E0,-3.529660034E-1,-1.048569489E0,2.128550939E0
5.977046667E0,1.139879608E0,-3.013233948E-1,-1.154249725E0,1.649973860E0
5.986968667E0,8.038284302E-2,-3.293151855E-1,-1.350491638E0,1.392385564E0
5.996890667E0,-1.113684082E0,-4.044589233E-1,-1.226549377E0,1.705374631E0
6.006813667E0,-2.478545837E0,-5.959107971E-1,-6.379733276E-1,2.627795485E0
6.016735667E0,-3.820654907E0,-1.105600891E0,1.713935852E-1,3.981096961E0
6.026657667E0,-4.707410889E0,-1.647623749E0,1.181044006E0,5.125353279E0
6.036580667E0,-4.633165283E0,-1.677411804E0,1.886377258E0,5.276206029E0
6.046502667E0,-3.973786469E0,-1.223106537E0,1.974094849E0,4.602610017E0
6.056424667E0,-3.418591003E0,-6.900650024E-1,1.709145813E0,3.883829755E0
6.066347667E0,-2.418370972E0,-3.058140564E-1,1.167572021E0,2.702825340E0
6.076269667E0,-1.266965332E0,-1.841171265E-1,3.177891541E-1,1.319124791E0
6.086191667E0,-7.164102173E-1,-4.840933228E-1,-1.527423706E0,1.755167548E0
6.096114667E0,-9.289682007E-1,-1.562001801E0,-4.162394257E0,4.541845164E0
6.106036667E0,-8.509803772E-1,-4.198918304E0,-4.940326538E0,6.539259043E0
6.115958667E0,7.411088562E-1,-8.680149536E0,-4.470303955E0,9.791723840E0
6.125880667E0,2.818339233E0,-1.578647186E1,-1.703457642E0,1.612629833E1
6.135803667E0,3.005599823E0,-3.187486588E1,-1.756148071E0,3.206438462E1
6.145725667E0,5.273084564E0,-5.278353607E1,-6.745572510E0,5.347344995E1
6.155647667E0,7.799231415E0,-5.774481903E1,-1.548679504E1,6.029206379E1
6.165570667E0,-1.826352081E0,-4.533891724E1,-1.627161301E1,4.820496207E1
6.175492667E0,-3.170556793E0,-3.352233994E1,-5.748046875E0,3.415903611E1
6.185414667E0,2.272274780E-1,-3.058948883E1,-3.083587646E0,3.074535692E1
6.195337667E0,-1.712888031E0,-2.576711700E1,-1.991458740E0,2.590066046E1
6.205259667E0,-4.082759857E0,-1.927332092E1,-6.343807983E-1,1.971122184E1
6.215181667E0,-6.713688812E0,-1.473445953E1,-2.716850281E-1,1.619418809E1
6.225104667E0,-8.085286560E0,-1.167272644E1,-1.116677856E0,1.424329213E1
6.235026667E0,-7.760012970E0,-9.849667511E0,-1.929038544E0,1.268680185E1
6.244948667E0,-6.625073090E0,-8.879385223E0,-2.058968353E0,1.126829295E1
6.254871667E0,-4.922214203E0,-7.948770447E0,-1.569336548E0,9.480187840E0
6.264793667E0,-3.080144806E0,-7.144043884E0,-8.207432556E-1,7.822932605E0
6.274715667E0,-9.834548950E-1,-6.354585571E0,-2.272274780E-1,6.434250045E0
6.284637667E0,1.136736145E0,-5.206173706E0,2.406994629E-1,5.334261894E0
6.294560667E0,1.992356873E0,-3.565435638E0,2.885998535E-1,4.094521593E0
6.304482667E0,1.728156281E0,-1.797462158E0,-1.025367737E-1,2.495577715E0
6.314404667E0,1.369951172E0,-2.736309814E-1,-7.887098694E-1,1.604276593E0
6.324327667E0,1.246008911E0,7.325765991E-1,-1.511257324E0,2.091197117E0
6.334249667E0,1.182241516E0,8.675958252E-1,-1.725162506E0,2.264200342E0
6.344171667E0,1.091230774E0,2.471360779E-1,-1.493594055E0,1.866195071E0
6.354094667E0,1.039588165E0,-6.740483093E-1,-1.130449219E0,1.677200081E0
6.364016667E0,1.158291321E0,-1.180295563E0,-6.331832886E-1,1.770778777E0
6.373938667E0,1.448986816E0,-1.081201630E0,-1.803749084E-1,1.816891539E0
6.383861667E0,1.656455383E0,-4.972659302E-1,-1.676513672E-2,1.729566105E0
6.393783667E0,1.318907318E0,-1.694476318E-1,-6.541397095E-2,1.331355701E0
6.403705667E0,8.497828674E-1,-4.909790039E-2,-1.222956848E-1,8.599405562E-1
6.413628667E0,3.763174438E-1,-3.562591553E-2,-8.652008057E-2,3.877753844E-1
6.423550667E0,-1.447489929E-1,-1.978884888E-1,1.420545959E-1,2.833577830E-1
6.433472667E0,-7.083270264E-1,-5.093907166E-1,4.537065125E-1,9.833898911E-1
6.443394667E0,-1.176703033E0,-9.066645813E-1,6.985972595E-1,1.641556829E0
6.453317667E0,-1.554966431E0,-1.220711517E0,8.894503784E-1,2.167759024E0
6.463239667E0,-1.871258698E0,-1.231938171E0,9.669891357E-1,2.440153430E0
6.473161667E0,-2.072739716E0,-9.611512756E-1,8.848100281E-1,2.450091935E0
6.483084667E0,-2.381547546E0,-5.159770203E-1,5.493576050E-2,2.437420550E0
6.493006667E0,-2.760110321E0,-2.249821472E-1,-1.322350159E0,3.068784107E0
6.502928667E0,-3.070415039E0,-5.077441406E-1,-3.759731598E0,4.880659209E0
6.512851667E0,-3.762425995E0,-1.437311096E0,-6.079158325E0,7.292316401E0
6.522773667E0,-3.154839478E0,-2.826123047E0,-5.519621887E0,6.957457106E0
6.532695667E0,-2.453398132E-1,-5.776038666E0,-3.527714081E0,6.772560884E0
6.542618667E0,1.382824402E0,-1.199246155E1,-4.546046448E-1,1.208048023E1
6.552540667E0,-5.378315735E-1,-2.531191360E1,1.201701050E0,2.534613025E1
6.562462667E0,-3.787124634E-1,-5.398508743E1,2.463876343E-1,5.398697801E1
6.572385667E0,1.255963211E1,-6.798891632E1,-6.099066925E0,6.940774970E1
6.582307667E0,6.588848419E0,-5.368810501E1,-1.548933975E1,5.626495525E1
6.592229667E0,-4.334386597E0,-3.640534470E1,-8.339158630E0,3.759890419E1
6.602151667E0,-3.998784485E0,-2.951846603E1,-5.402265930E-1,2.979298507E1
6.612074667E0,-5.853427734E0,-2.496149231E1,4.408332825E-1,2.564240723E1
6.621997542E0,-7.845036163E0,-2.069371719E1,-1.040336609E0,2.215528885E1
6.631919542E0,-8.278235321E0,-1.635918091E1,-2.566712494E0,1.851323832E1
6.641842542E0,-7.733368378E0,-1.221564743E1,-3.745361481E0,1.493501795E1
6.651764542E0,-6.802154846E0,-8.678053894E0,-3.842509460E0,1.167659235E1
6.661686542E0,-5.248236237E0,-6.662644958E0,-2.981350250E0,8.990176347E0
6.671609542E0,-3.040028229E0,-5.024301910E0,-1.736838226E0,6.123886702E0
6.681531542E0,-1.069525909E0,-3.074157257E0,-7.310797119E-1,3.335986519E0
6.691453542E0,1.127455444E0,-1.421743469E0,-4.715194702E-2,1.815140099E0
6.701376542E0,2.744243317E0,-1.728904724E-1,9.250762939E-2,2.751239749E0
6.711298542E0,3.039878540E0,6.680607605E-1,-1.216969299E-1,3.114799650E0
6.721220542E0,2.836152191E0,1.160985718E0,-3.406915283E-1,3.083458741E0
6.731143542E0,2.622247009E0,1.262324982E0,-9.044192505E-1,3.047559338E0
6.741065542E0,2.246827698E0,4.311035156E-1,-1.692680054E0,2.845918254E0
6.750987542E0,2.183659058E0,-1.101110229E0,-2.133363647E0,3.245312168E0
6.760909542E0,2.396815796E0,-2.314487000E0,-1.867516479E0,3.819580321E0
6.770832542E0,2.390079803E0,-2.600841522E0,-1.048120422E0,3.684482937E0
6.780754542E0,2.376607819E0,-2.483784943E0,-1.502874756E-1,3.440935729E0
6.790676542E0,2.582579498E0,-2.151775360E0,6.616241455E-1,3.426018181E0
6.800599542E0,2.903661804E0,-1.730251923E0,1.226399689E0,3.595702961E0
6.810521542E0,2.988684998E0,-1.414708099E0,1.307381287E0,3.555683176E0
6.820443542E0,2.510130157E0,-1.047521667E0,1.069675598E0,2.922714652E0
6.830366542E0,1.563049622E0,-6.990463257E-1,7.453001404E-1,1.867421266E0
6.840288542E0,1.362167358E-1,-5.081932068E-1,5.629792786E-1,7.705588898E-1
6.850210542E0,-1.329984283E0,-5.560935974E-1,6.530918884E-1,1.582601434E0
6.860133542E0,-2.295925598E0,-6.164181519E-1,8.650511169E-1,2.529734991E0
6.870055542E0,-2.940485229E0,-5.596861267E-1,9.449848938E-1,3.138900826E0
6.879977542E0,-3.258274384E0,-2.897973633E-1,8.446934509E-1,3.378437730E0
6.889899542E0,-3.247496796E0,3.577560425E-2,6.409671021E-1,3.310340490E0
6.899822542E0,-2.922971649E0,3.402424622E-1,3.573069763E-1,2.964320575E0
6.909744542E0,-2.568658447E0,3.852987671E-1,-5.164260864E-2,2.597908451E0
6.919666542E0,-2.410587158E0,-3.022215271E-1,-1.271306305E0,2.741986145E0
6.929589542E0,-3.182232513E0,-1.514400787E0,-4.205953674E0,5.487263419E0
6.939511542E0,-4.484973450E0,-3.817361755E0,-7.299570465E0,9.379283906E0
6.949433542E0,-3.624263306E0,-7.884853363E0,-7.124883728E0,1.122809713E1
6.959356542E0,-1.202748871E0,-1.488085510E1,-1.788181458E0,1.503609146E1
6.969278542E0,-6.770420837E-1,-2.722792923E1,2.614313507E0,2.736152684E1
6.979200542E0,-4.118385773E0,-4.884597427E1,-1.651216278E0,4.904708778E1
6.989123542E0,7.581883392E0,-5.378585175E1,-1.203557190E1,5.563504107E1
6.999045542E0,3.611839142E0,-3.715318954E1,-1.415636169E1,3.992251810E1
7.008967542E0,-7.079078979E0,-2.959780106E1,-5.189109192E0,3.087183248E1
7.018890542E0,-8.949888611E-1,-3.508044983E1,-6.178851013E0,3.563168765E1
7.028812542E0,3.033142548E0,-3.728102371E1,-6.730603638E0,3.800494321E1
7.038734542E0,1.186133423E0,-3.106460083E1,-3.494183807E0,3.128299311E1
7.048656542E0,-1.981429596E0,-2.263353333E1,-2.358495483E0,2.284218455E1
7.058579542E0,-4.025578766E0,-1.576476700E1,-1.960622864E0,1.638832526E1
7.068501542E0,-5.099295959E0,-1.091934311E1,-1.464704132E0,1.214002601E1
7.078423542E0,-5.290897522E0,-8.057893524E0,-1.268911285E0,9.722827803E0
7.088346542E0,-4.722379761E0,-6.646628265E0,-1.186582489E0,8.239327394E0
7.098268542E0,-3.595523071E0,-5.654341736E0,-8.443940735E-1,6.753692914E0
7.108190542E0,-2.592009888E0,-4.697681122E0,-3.020718384E-1,5.373822715E0
7.118113542E0,-1.441801758E0,-3.500171356E0,5.972579956E-2,3.785968701E0
7.128035542E0,-4.848417664E-1,-2.066752167E0,4.056564331E-2,2.123247896E0
7.137957542E0,6.676116943E-2,-9.002279663E-1,-4.667294312E-1,1.016220354E0
7.147880542E0,7.613168335E-1,-7.514373779E-2,-1.094523926E0,1.335377297E0
7.157802542E0,1.640738068E0,4.546046448E-1,-1.534309387E0,2.291897049E0
7.167724542E0,1.937271423E0,7.238946533E-1,-1.952839050E0,2.844402291E0
7.177647542E0,1.955234070E0,1.999841309E-1,-2.265089722E0,2.998927370E0
7.187569542E0,1.965412903E0,-4.258644104E-1,-1.988464966E0,2.828109138E0
7.197491542E0,2.054178314E0,-3.421884155E-1,-9.662406921E-1,2.295727016E0
7.207413542E0,2.270777893E0,2.701881409E-1,3.909869385E-1,2.319979452E0
7.217336542E0,1.899549866E0,8.267308044E-1,1.338067474E0,2.466211281E0
7.227258542E0,1.250349884E0,8.821156311E-1,1.787433014E0,2.352959753E0
7.237180542E0,5.785469055E-1,3.579057312E-1,1.915566559E0,2.032783381E0
7.247103542E0,6.586303711E-2,-3.215313721E-1,1.600771179E0,1.634071214E0
7.257025542E0,-2.559677124E-1,-1.024319916E0,1.137783966E0,1.552193001E0
7.266947542E0,-3.969744873E-1,-1.606609039E0,9.211843872E-1,1.894033269E0
7.276870542E0,-3.429368591E-1,-2.151625671E0,6.906637573E-1,2.285632329E0
7.286792542E0,-3.939807129E-1,-2.492017822E0,3.694317627E-1,2.549873223E0
7.296714542E0,-6.466552734E-1,-2.423310699E0,7.888595581E-2,2.509346684E0
7.306637542E0,-9.087602234E-1,-2.038311310E0,-3.155438232E-1,2.253913495E0
7.316559542E0,-1.230590973E0,-1.373992767E0,-9.803114319E-1,2.088832394E0
7.326481542E0,-1.686393127E0,-5.397775269E-1,-1.907483368E0,2.602647567E0
7.336404542E0,-2.219284973E0,3.347039795E-1,-1.912722473E0,2.948857373E0
7.346326542E0,-2.460583191E0,8.675958252E-1,-1.833387451E0,3.188808822E0
7.356248542E0,-2.598596191E0,3.308120728E-1,-2.848276978E0,3.869731326E0
7.366170542E0,-2.425256653E0,-1.335672455E0,-4.014501801E0,4.876691034E0
7.376093542E0,-1.060544586E0,-3.225941620E0,-3.619772644E0,4.963286023E0
7.386015542E0,1.004860382E0,-5.978567505E0,1.573228455E-1,6.064467353E0
7.395937542E0,3.083887024E0,-1.068358337E1,1.662442932E0,1.124335490E1
7.405860542E0,2.986289978E0,-1.951342163E1,-4.316873016E0,2.020710133E1
7.415782542E0,1.742077332E0,-4.405937805E1,-1.461201416E1,4.645185234E1
7.425704542E0,2.419418793E0,-7.544640839E1,-1.896361496E1,7.783079608E1
7.435627542E0,5.662873993E0,-6.458694077E1,-1.490495499E1,6.652592534E1
7.445549542E0,-9.339079285E-1,-3.340333740E1,-1.734892273E-1,3.341684055E1
7.455471542E0,-5.959257660E0,-2.412173859E1,-1.819466400E0,2.491347993E1
7.465394542E0,-7.968679047E0,-2.243175293E1,-4.545447693E0,2.423519094E1
7.475316542E0,-8.850794678E0,-1.916150345E1,-3.049159241E0,2.132597367E1
7.485238542E0,-8.558751984E0,-1.522633667E1,-2.476899261E0,1.764167208E1
7.495161542E0,-7.190597076E0,-1.221430023E1,-2.943179626E0,1.447605343E1
7.505083542E0,-5.608237610E0,-9.734556885E0,-2.862647095E0,1.159347555E1
7.515005542E0,-4.096082153E0,-7.110064545E0,-2.006726990E0,8.447358170E0
7.524927542E0,-2.869233398E0,-4.890929260E0,-1.565145264E0,5.882462836E0
7.534850542E0,-1.588496704E0,-3.935915222E0,-1.327289886E0,4.447071942E0
7.544772542E0,2.727328491E-1,-4.342320099E0,-9.960287476E-1,4.463429210E0
7.554694542E0,2.504292297E0,-5.166506195E0,-7.168592834E-1,5.786030885E0
7.564617542E0,3.709436188E0,-5.181325378E0,-7.674540710E-1,6.418335864E0
7.574539542E0,3.619772644E0,-4.173620911E0,-8.602610779E-1,5.591235518E0
7.584461542E0,3.280278625E0,-3.081192627E0,-4.987628174E-1,4.527995165E0
7.594384542E0,3.326981506E0,-2.383194122E0,2.643502808E-1,4.101012221E0
7.604306542E0,2.918930054E0,-2.234403534E0,8.232879639E-1,3.767029982E0
7.614228542E0,1.636097717E0,-2.769091644E0,6.584806824E-1,3.283029254E0
7.624150833E0,1.074765015E-1,-3.511847076E0,-5.463638306E-2,3.513916081E0
7.634072833E0,-1.020577698E0,-3.606300659E0,-7.990383911E-1,3.832159395E0
7.643994833E0,-1.578617249E0,-2.558180237E0,-1.363364868E0,3.300769956E0
7.653917833E0,-1.518741760E0,-1.030307465E0,-1.700912933E0,2.502241957E0
7.663839833E0,-1.124761047E0,2.237846375E-1,-2.265838165E0,2.539525461E0
7.673761833E0,-7.602690125E-1,8.414002991E-1,-2.591111755E0,2.828395935E0
7.683684833E0,-8.075706482E-1,1.043629761E0,-2.088157654E0,2.470169188E0
7.693606833E0,-8.277786255E-1,1.354084167E0,-6.849755859E-1,1.728569622E0
7.703528833E0,-8.006849670E-1,1.586850128E0,9.110055542E-1,1.997278365E0
7.713450833E0,-1.179696808E0,1.419947205E0,1.798959045E0,2.577632299E0
7.723373833E0,-1.793719940E0,8.514294434E-1,2.113155670E0,2.899618976E0
7.733295833E0,-2.404449921E0,3.614982605E-1,2.222278748E0,3.294022350E0
7.743217833E0,-2.569556580E0,2.368075562E-1,1.763632507E0,3.125555703E0
7.753140833E0,-2.503094788E0,2.168989563E-1,9.021739197E-1,2.669540495E0
7.763062833E0,-2.242337036E0,-1.302291870E-1,-2.073188782E-1,2.255663127E0
7.772984833E0,-1.667981415E0,-1.060843964E0,-1.790277100E0,2.666954069E0
7.782907833E0,-6.179150391E-1,-3.076701965E0,-4.172124023E0,5.220587404E0
7.792829833E0,1.550475769E0,-6.860383759E0,-5.857918396E0,9.153362680E0
7.802751833E0,4.122127991E0,-1.477218109E1,-4.299209747E0,1.592772670E1
7.812674833E0,5.713019714E0,-3.118944122E1,-5.547463989E-1,3.171320832E1
7.822596833E0,5.284760284E0,-5.063445511E1,4.965923309E0,5.115112051E1
7.832518833E0,7.198530579E0,-5.229989182E1,-3.002156982E0,5.287826087E1
7.842441833E0,1.194515991E0,-3.546649704E1,-1.602073471E1,3.893537237E1
7.852363833E0,-4.164938965E0,-2.999911652E1,-1.244556931E1,3.274424993E1
7.862285833E0,-2.864742737E0,-3.411660416E1,-3.118614807E0,3.437841166E1
7.872208833E0,-4.856800232E0,-3.076282837E1,1.045276337E0,3.116139792E1
7.882130833E0,-5.795797577E0,-2.445299973E1,2.420466614E-1,2.513163448E1
7.892052833E0,-6.365213470E0,-1.964903961E1,-1.057101746E0,2.068134822E1
7.901974833E0,-6.758595428E0,-1.595442261E1,-1.725162506E0,1.741259310E1
7.911897833E0,-6.408772888E0,-1.286454803E1,-2.069446564E0,1.452072915E1
7.921819833E0,-4.713398438E0,-1.077309723E1,-2.082319794E0,1.194201844E1
7.931741833E0,-2.718197479E0,-9.432335358E0,-1.636247406E0,9.951625667E0
7.941664833E0,-1.095272369E0,-7.673642578E0,-8.695417786E-1,7.800033005E0
7.951586833E0,3.893403625E-1,-5.729635162E0,-6.032455444E-2,5.743164987E0
7.961508833E0,1.360520782E0,-3.746259613E0,3.082090759E-1,3.997558095E0
7.971431833E0,1.444196777E0,-2.075583801E0,3.454815674E-1,2.552079537E0
7.981353833E0,1.023122406E0,-9.741741943E-1,-2.377056885E-1,1.432584662E0
7.991275833E0,6.664141846E-1,4.939727783E-3,-8.369096375E-1,1.069836440E0
8.001198833E0,5.947132874E-1,7.294331360E-1,-1.459165649E0,1.736352783E0
8.011120833E0,5.234614563E-1,9.169931030E-1,-1.883233795E0,2.159040939E0
8.021042833E0,4.309538269E-1,6.400689697E-1,-1.853595428E0,2.007791199E0
8.030965833E0,4.438270569E-1,6.101312256E-1,-9.626481628E-1,1.223083830E0
8.040887833E0,7.647596741E-1,8.529263306E-1,1.960922241E-1,1.162236140E0
8.050809833E0,1.322499847E0,1.126108246E0,1.098266144E0,2.055070352E0
8.060732833E0,1.519041138E0,1.132245483E0,1.541045380E0,2.442188911E0
8.070654833E0,1.328936462E0,7.649093628E-1,1.486558685E0,2.135653338E0
8.080576833E0,9.747729492E-1,2.517764282E-1,9.848020935E-1,1.408335484E0
8.090498833E0,3.844006348E-1,-3.309617615E-1,3.447331238E-1,6.133029123E-1
8.100421833E0,-3.457809448E-1,-9.641450500E-1,-4.790039063E-2,1.025394844E0
8.110343833E0,-1.097667389E0,-1.615590363E0,4.864883423E-2,1.953809772E0
8.120265833E0,-1.732497253E0,-2.057621155E0,4.128414917E-1,2.721358052E0
8.130188833E0,-2.132615204E0,-2.202819214E0,8.511300659E-1,3.181962050E0
8.140110833E0,-2.283052368E0,-2.202519836E0,1.173559570E0,3.382405034E0
8.150032833E0,-2.248324585E0,-1.997895355E0,1.187929688E0,3.233840786E0
8.159955833E0,-2.135010223E0,-1.578168182E0,6.059399414E-1,2.723241943E0
8.169877833E0,-2.058219910E0,-1.033899994E0,-1.600172424E-1,2.308857707E0
8.179799833E0,-1.938468933E0,-8.422984314E-1,-5.495072937E-1,2.183823875E0
8.189722833E0,-2.248474274E0,-1.274599457E0,-2.376158752E0,3.510893156E0
8.199644833E0,-3.447181549E0,-2.477198639E0,-6.589447174E0,7.838391913E0
8.209566833E0,-2.851570129E0,-4.463118896E0,-7.659871216E0,9.312599504E0
8.219489833E0,-4.722679138E-1,-7.512876892E0,1.660646667E0,7.708703103E0
8.229411833E0,2.536175995E0,-1.283101776E1,4.765190735E0,1.392028190E1
8.239333833E0,2.813100128E0,-2.703453140E1,-2.316732330E0,2.727905184E1
8.249256833E0,1.944905548E0,-4.934548553E1,-5.367987213E0,4.967469061E1
8.259178833E0,7.481891327E0,-5.234135559E1,-6.455924835E0,5.326607897E1
8.269100833E0,1.859283600E0,-3.781047272E1,-5.306315460E0,3.822624447E1
8.279023833E0,-4.686753845E0,-3.510469940E1,-8.268655243E0,3.636861616E1
8.288945833E0,-4.755011902E0,-3.784085953E1,-7.594906311E0,3.888731657E1
8.298867833E0,-5.374723206E0,-3.427213074E1,-6.249055023E0,3.524935863E1
8.308789833E0,-6.645580444E0,-2.867227570E1,-7.038513336E0,3.026225046E1
8.318712833E0,-8.637637939E0,-2.293021637E1,-6.207890625E0,2.527729254E1
8.328634833E0,-9.174272003E0,-1.668939423E1,-5.520220642E0,1.982866567E1
8.338557833E0,-7.895032196E0,-1.154579041E1,-4.443060608E0,1.467574860E1
8.348479833E0,-5.585335236E0,-8.050259399E0,-2.858306122E0,1.020649597E1
8.358401833E0,-3.025209045E0,-5.587580566E0,-1.307381287E0,6.487078864E0
8.368323833E0,-9.285191345E-1,-3.594774628E0,-2.010319519E-1,3.718193950E0
8.378246833E0,1.400936737E0,-1.960173798E0,6.735992432E-1,2.501727603E0
8.388168833E0,3.831282806E0,-8.948391724E-1,1.100062408E0,4.085290980E0
8.398090833E0,5.443580017E0,2.215393066E-1,1.309776306E0,5.603316611E0
8.408013833E0,6.062991943E0,1.395697632E0,1.333127747E0,6.362788129E0
8.417935833E0,5.571563873E0,1.672771454E0,6.295907593E-1,5.851228320E0
8.427857833E0,4.577481079E0,5.710624695E-1,-7.688012695E-1,4.676590720E0
8.437780833E0,3.581751709E0,-1.118474121E0,-1.819167023E0,4.170047760E0
8.447702833E0,2.561623077E0,-2.091600494E0,-2.088457031E0,3.911311569E0
8.457624833E0,1.335223389E0,-2.157463531E0,-1.949994965E0,3.199992305E0
8.467547833E0,2.091151428E-1,-1.585353241E0,-1.792372742E0,2.402014589E0
8.477469833E0,-5.861810303E-1,-9.375004578E-1,-1.639091492E0,1.977153567E0
8.487391833E0,-1.166823578E0,-3.282673645E-1,-1.436412964E0,1.879499648E0
8.497314833E0,-1.521585846E0,3.100053406E-1,-9.951306152E-1,1.844345884E0
8.507236833E0,-1.652264099E0,8.286767578E-1,-3.230282593E-1,1.876440534E0
8.517158833E0,-1.559457092E0,1.068178711E0,4.836442566E-1,1.951108390E0
8.527081833E0,-1.313817902E0,9.151968384E-1,1.242117004E0,2.026464257E0
8.537003833E0,-9.776170349E-1,5.267546082E-1,1.707648926E0,2.036975782E0
8.546925833E0,-6.879693604E-1,-3.622467041E-2,1.778152313E0,1.906945127E0
8.556848833E0,-6.268963623E-1,-4.441264343E-1,1.542242889E0,1.723009132E0
8.566770833E0,-8.159532166E-1,-5.974076843E-1,1.209933929E0,1.576900665E0
8.576692833E0,-1.008901978E0,-6.054908752E-1,8.252339172E-1,1.437189416E0
8.586614833E0,-1.189276886E0,-6.271957397E-1,4.987628174E-1,1.434056608E0
8.596537833E0,-1.363813934E0,-6.310876465E-1,3.522175598E-1,1.543475712E0
8.606459833E0,-1.501826935E0,-7.551795959E-1,1.434017944E-1,1.687111270E0
8.616381292E0,-1.558109894E0,-1.427132263E0,-3.101550293E-1,2.135558260E0
8.626304292E0,-1.597478027E0,-2.491868134E0,-1.510808258E0,3.323234033E0
8.636226292E0,-2.468217316E0,-4.099225616E0,-4.650080109E0,6.672255420E0
8.646148292E0,-2.845881958E0,-7.070397034E0,-9.079369354E0,1.185430328E1
8.656071292E0,-1.147813110E0,-1.158171570E1,-7.021448822E0,1.359243749E1
8.665993292E0,2.879412231E0,-1.802880890E1,3.972439270E0,1.868446517E1
8.675915292E0,5.073998566E0,-2.971231293E1,-5.191055145E0,3.058617424E1
8.685838292E0,8.029302979E-1,-4.657998642E1,-8.967551880E0,4.744214180E1
8.695760292E0,5.701942749E0,-4.855438065E1,-7.776329041E0,4.950263957E1
8.705682292E0,5.450166321E-1,-3.559238525E1,-1.076875626E1,3.718979756E1
8.715605292E0,-5.836363220E0,-3.044039886E1,-8.653654633E0,3.218022308E1
8.725527292E0,-3.647015991E0,-3.288346848E1,-8.783285065E0,3.423111627E1
8.735449292E0,-3.435356140E0,-3.257735504E1,-6.274202728E0,3.335343091E1
8.745372292E0,-3.576512604E0,-2.891507080E1,-4.575834503E0,2.949255878E1
8.755294292E0,-3.685036926E0,-2.421050400E1,-2.845582581E0,2.465411408E1
8.765216292E0,-3.727997589E0,-1.854104370E1,-1.847907257E0,1.900218484E1
8.775139292E0,-3.930227051E0,-1.319356384E1,-2.005828857E0,1.391187122E1
8.785061292E0,-4.375401306E0,-9.001381531E0,-1.689237213E0,1.015000140E1
8.794983292E0,-4.888384552E0,-6.235732727E0,-1.612147522E0,8.085770576E0
8.804906292E0,-4.567751312E0,-4.821773071E0,-1.293310547E0,6.766572232E0
8.814828292E0,-2.789149933E0,-4.483775940E0,-7.394622803E-1,5.332017300E0
8.824750292E0,-5.001100159E-1,-4.572541351E0,-5.528004456E-1,4.632907594E0
8.834673292E0,4.656816101E-1,-4.030817871E0,-5.607339478E-1,4.096190258E0
8.844595292E0,7.958949280E-1,-3.177741852E0,-3.676354980E-1,3.296459900E0
8.854517292E0,1.155596924E0,-2.620750122E0,2.180964661E-1,2.872507880E0
8.864440292E0,1.080602875E0,-1.995949402E0,3.435356140E-1,2.295546407E0
8.874362292E0,7.765850830E-1,-1.289718018E0,-3.222798157E-1,1.539584761E0
8.884284292E0,7.017407227E-1,-8.921447754E-1,-1.284628601E0,1.714244144E0
8.894207292E0,9.825567627E-1,-5.813909912E-1,-1.735940094E0,2.077720214E0
8.904129292E0,1.653311920E0,1.094224548E-1,-1.488504639E0,2.227343628E0
8.914051292E0,2.404749298E0,5.228627014E-1,-1.442849579E0,2.852721420E0
8.923974292E0,2.732268219E0,4.414320374E-1,-1.451232147E0,3.125096256E0
8.933896292E0,2.258952484E0,5.586383057E-1,-7.623646545E-1,2.448702299E0
8.943818292E0,1.177900543E0,8.634045410E-1,-1.601669312E-2,1.460538813E0
8.953741292E0,-3.483256531E-1,1.119072876E0,6.804849243E-1,1.355254439E0
8.963663292E0,-1.781595154E0,1.061143341E0,1.021924896E0,2.311803836E0
8.973585292E0,-2.795137482E0,5.718109131E-1,9.903405762E-1,3.020022470E0
8.983507292E0,-3.222648468E0,-2.683918762E-1,9.364526367E-1,3.366666139E0
8.993430292E0,-3.240162048E0,-1.165177002E0,1.053808594E0,3.600944334E0
9.003352292E0,-3.008743286E0,-1.878443756E0,1.120719452E0,3.719825157E0
9.013274292E0,-2.396815796E0,-2.223027191E0,9.454339600E-1,3.403001796E0
9.023197292E0,-1.694925385E0,-2.008672943E0,6.695576477E-1,2.712166384E0
9.033119292E0,-1.196461945E0,-1.345701599E0,3.073109436E-1,1.826711251E0
9.043041292E0,-5.882766724E-1,-6.870712280E-1,-7.394622803E-2,9.075265066E-1
9.052964292E0,1.032852173E-2,-4.845423889E-1,-6.881190491E-1,8.416625397E-1
9.062886292E0,1.829196167E-1,-8.494834900E-1,-1.879940643E0,2.071052536E0
9.072808292E0,-7.173083496E-1,-1.521136780E0,-5.251379700E0,5.514107101E0
9.082731292E0,-1.565893707E0,-3.578608246E0,-7.792345734E0,8.716599802E0
9.092653292E0,8.800199890E-1,-7.176825714E0,-4.645589447E0,8.594344875E0
9.102575292E0,4.486620026E0,-1.301139267E1,1.729353790E0,1.387143695E1
9.112498292E0,5.177583160E0,-2.257919632E1,-2.072590027E0,2.325775362E1
9.122420292E0,2.355202332E0,-4.072820526E1,-5.734125824E0,4.119725574E1
9.132342292E0,5.637576599E0,-5.702272064E1,-4.322561188E0,5.746353169E1
9.142265292E0,3.626209259E0,-4.797942627E1,-1.118608841E1,4.939942624E1
9.152187292E0,-6.649322662E0,-3.511353104E1,-8.433462524E0,3.671916181E1
9.162109292E0,-5.717660065E0,-3.392859512E1,-6.932982788E0,3.509853920E1
9.172032292E0,-5.789510651E0,-3.223082565E1,-3.425776062E0,3.292537771E1
9.181954292E0,-6.178551636E0,-2.529874100E1,-1.677262115E0,2.609624503E1
9.191876292E0,-6.771169281E0,-1.933828583E1,-1.214424591E0,2.052541983E1
9.201799292E0,-8.095465393E0,-1.548425034E1,-1.260379028E0,1.751819408E1
9.211721292E0,-8.575816498E0,-1.257385254E1,-1.409319305E0,1.528504423E1
9.221643292E0,-7.315736847E0,-1.045156586E1,-1.912722473E0,1.290014503E1
9.231566292E0,-4.738097076E0,-8.985514526E0,-2.282004547E0,1.041136782E1
9.241488292E0,-2.556683350E0,-7.992629242E0,-2.310146027E0,8.703765083E0
9.251410292E0,-8.038284302E-1,-6.736291809E0,-1.838776245E0,7.028859478E0
9.261333292E0,1.119222565E0,-5.544320526E0,-1.274749146E0,5.798028512E0
9.271255292E0,2.415826263E0,-4.121678925E0,-1.530866547E0,5.016772476E0
9.281177292E0,2.982847137E0,-2.585273895E0,-1.748513947E0,4.317211968E0
9.291100292E0,2.518512726E0,-8.216413879E-1,-1.585053864E0,3.087134055E0
9.301022292E0,1.814676361E0,8.173004150E-1,-1.455722809E0,2.465797875E0
9.310944292E0,1.146166534E0,1.210532684E0,-1.829495544E0,2.475104251E0
9.320867292E0,8.220904541E-1,8.279283142E-1,-2.167342987E0,2.461437310E0
9.330789292E0,4.498146057E-1,3.171903992E-1,-2.499951324E0,2.559824126E0
9.340711292E0,3.396437073E-1,-2.785707092E-1,-2.741698608E0,2.776665401E0
9.350634292E0,8.756790161E-1,-4.743635559E-1,-2.603386230E0,2.787374103E0
9.360556292E0,1.676064606E0,-4.400848389E-1,-2.085163879E0,2.711231387E0
9.370478292E0,2.069446564E0,-5.813909912E-1,-1.267414398E0,2.495388511E0
9.380401292E0,2.061213684E0,-5.679190063E-1,-3.441343689E-1,2.165539728E0
9.390323292E0,1.613644409E0,-5.105882263E-1,4.912783813E-1,1.762357246E0
9.400245292E0,7.737409973E-1,-4.415817261E-1,1.122366028E0,1.432960241E0
9.410168292E0,-5.628295898E-1,-2.978805542E-1,1.219214630E0,1.375497832E0
9.420090292E0,-2.385439453E0,-3.161425781E-1,1.563348999E0,2.869551813E0
9.430012292E0,-3.927233276E0,-4.227209473E-1,2.246378632E0,4.544014873E0
9.439935292E0,-4.850064240E0,-4.249662781E-1,2.677631836E0,5.556386570E0
9.449857292E0,-5.041516113E0,-4.029620361E-1,2.857857056E0,5.809183254E0
9.459779292E0,-4.269421692E0,-1.942959595E-1,2.493963776E0,4.948289383E0
9.469702292E0,-2.491868134E0,3.188369751E-2,1.926344147E0,3.149797634E0
9.479624292E0,-4.574487305E-1,-3.906875610E-2,8.433462524E-1,9.602180014E-1
9.489546292E0,7.789801025E-1,-5.355862427E-1,-5.782475281E-1,1.108166426E0
9.499469292E0,-0.000000000E0,-1.303190002E0,-1.547332306E0,2.023003076E0
9.509391292E0,-1.546883240E0,-2.504741364E0,-2.313289490E0,3.744046650E0
9.519313292E0,-2.304008789E0,-4.994663544E0,-4.410428467E0,7.050319119E0
9.529236292E0,-1.030157776E0,-8.580756226E0,-2.808609467E0,9.087292753E0
9.539158292E0,5.195695496E-1,-1.548574722E1,-1.713486786E0,1.558891775E1
9.549080292E0,-1.749861145E0,-3.271102707E1,-7.395820313E0,3.358230880E1
9.559003292E0,-1.032403107E0,-5.297289230E1,-5.076243896E0,5.322557118E1
9.568925292E0,9.013656006E0,-4.649421478E1,-5.494474182E0,4.767753401E1
9.578847292E0,2.648741913E0,-2.969180557E1,-6.888225861E0,3.059520890E1
9.588770292E0,-2.864443359E0,-3.236389893E1,-1.235051697E1,3.475862855E1
9.598692292E0,-2.166893921E0,-3.828184250E1,-1.081456100E1,3.983904648E1
9.608614292E0,-3.309767303E0,-3.460219437E1,-7.756270752E0,3.561497088E1
9.618537292E0,-5.704188080E0,-2.689068054E1,-5.302872620E0,2.799583754E1
9.628459292E0,-8.289012909E0,-2.088292374E1,-4.015848999E0,2.282391908E1
9.638381292E0,-9.546847229E0,-1.633822449E1,-4.004023590E0,1.934197705E1
9.648304292E0,-8.407566376E0,-1.276350815E1,-3.276985474E0,1.563115307E1
9.658226292E0,-6.442752228E0,-1.026744873E1,-2.413580933E0,1.235940665E1
9.668148292E0,-4.479584656E0,-8.431666260E0,-1.944755859E0,9.743805722E0
9.678071292E0,-2.216590576E0,-7.080725555E0,-1.896705780E0,7.658161724E0
9.687993292E0,-5.553451538E-2,-5.697901154E0,-1.689386902E0,5.943331536E0
9.697915292E0,1.411115570E0,-4.075574799E0,-1.402283936E0,4.535190991E0
9.707838292E0,2.108365631E0,-2.635269928E0,-1.238075409E0,3.594813479E0
9.717760292E0,2.551144867E0,-1.202000427E0,-9.845027161E-1,2.987037120E0
9.727682292E0,2.817740479E0,4.927752686E-1,-8.167016602E-1,2.974809317E0
9.737605292E0,3.190914459E0,2.126927032E0,-1.183289337E0,4.013219075E0
9.747527292E0,3.268453217E0,2.620301056E0,-2.052082672E0,4.664740866E0
9.757449292E0,2.844684448E0,1.556762695E0,-2.942131805E0,4.378570459E0
9.767372292E0,1.560205536E0,2.767744446E-1,-2.984643402E0,3.379192455E0
9.777294292E0,2.348616028E-1,-5.511538696E-1,-2.595153351E0,2.663409746E0
9.787216292E0,1.028361511E-1,-8.518785095E-1,-1.782343597E0,1.978135730E0
9.797139292E0,5.845344543E-1,-1.045126648E0,-1.358574829E0,1.810993044E0
9.807061292E0,1.116378479E0,-1.730850677E0,-1.388811951E0,2.484138404E0
9.816983292E0,1.468596039E0,-2.125579834E0,-9.803114319E-1,2.763308607E0
9.826906292E0,1.652114410E0,-2.016456757E0,-3.631448364E-1,2.632005708E0
9.836828292E0,1.243164825E0,-1.763782196E0,2.921923828E-1,2.177558910E0
9.846750292E0,-2.993774414E-4,-1.372944946E0,9.298663330E-1,1.658200625E0
9.856673292E0,-1.787582703E0,-8.617579651E-1,1.222208405E0,2.330637701E0
9.866595292E0,-3.541485443E0,-6.230044556E-1,1.613345032E0,3.941209952E0
9.876517292E0,-4.627177734E0,-5.188211060E-1,2.053878937E0,5.089043900E0
9.886440292E0,-5.083728333E0,-2.508782959E-1,2.085612946E0,5.500637694E0
9.896362292E0,-4.984335022E0,3.161425781E-1,1.787582703E0,5.304620030E0
9.906284292E0,-4.011508026E0,8.430468750E-1,4.683760071E-1,4.125809104E0
9.916207292E0,-2.646646271E0,1.003513184E0,-9.192384338E-1,2.976033348E0
9.926129292E0,-1.348246307E0,6.584806824E-1,-1.355431366E0,2.022018571E0
9.936051292E0,-1.132844238E0,-1.453477478E-1,-6.601272583E-1,1.319177787E0
9.945974292E0,-1.228046265E0,-1.529669037E0,3.995191956E-1,2.001899243E0
9.955896292E0,-1.383123779E-1,-4.023932190E0,6.264472961E-1,4.074751133E0
9.965818292E0,2.215692444E0,-7.956404572E0,-4.561015320E-1,8.271740767E0
9.975741292E0,3.131937103E0,-1.531839523E1,-7.227270813E0,1.722485721E1
9.985663292E0,-7.828720093E-1,-3.017874298E1,-1.079734680E1,3.206169232E1
9.995585292E0,-3.025358734E0,-4.948125320E1,-3.614084473E0,4.970521925E1
1.000550829E1,5.056185608E0,-4.801834534E1,-1.105900269E0,4.829647520E1
1.001543029E1,1.113534393E0,-3.638004730E1,-7.204218750E0,3.710321507E1
1.002535329E1,-3.928430786E0,-3.733416321E1,-1.130973129E1,3.920691690E1
1.003527529E1,-2.376607819E0,-3.935256592E1,-1.139954453E1,4.103927783E1
1.004519729E1,-8.672964478E-1,-3.575794098E1,-1.018751495E1,3.719096674E1
1.005512029E1,-2.687810669E0,-2.920411972E1,-7.025340729E0,3.015726027E1
1.006504229E1,-5.720953217E0,-2.280777100E1,-4.317771149E0,2.390746476E1
1.007496429E1,-7.850574646E0,-1.744801666E1,-3.857777710E0,1.951787019E1
1.008488729E1,-9.446256409E0,-1.297861084E1,-3.812272339E0,1.649877328E1
1.009480929E1,-9.013955383E0,-9.058862000E0,-3.124153290E0,1.315578603E1
1.010473129E1,-7.498656464E0,-6.019133148E0,-2.301763458E0,9.887260876E0
1.011465429E1,-5.236859894E0,-3.702849884E0,-1.471440125E0,6.580344585E0
1.012457629E1,-2.212848358E0,-1.722767487E0,-3.812571716E-1,2.830191283E0
1.013449829E1,7.819738770E-1,-4.456233215E-1,3.540138245E-1,9.671551462E-1
1.014442129E1,2.586321716E0,7.188052368E-1,8.671467590E-1,2.820936811E0
1.015434329E1,3.013383636E0,2.254461823E0,9.078620911E-1,3.871342484E0
1.016426529E1,3.003803558E0,3.353027344E0,2.264790344E-1,4.507429527E0
1.017418829E1,3.102897491E0,3.465443573E0,-5.456153870E-1,4.683478211E0
1.018411029E1,2.849025421E0,2.162852325E0,-9.469308472E-1,3.700210002E0
1.019403229E1,2.570754089E0,2.173480225E-1,-7.647596741E-1,2.690887235E0
1.020395529E1,2.608625336E0,-1.345701599E0,-3.968247986E-1,2.961977187E0
1.021387729E1,2.866688690E0,-2.334994354E0,-1.064286804E-1,3.698841676E0
1.022379929E1,2.858006744E0,-2.848726044E0,1.703457642E-1,4.038868691E0
1.023372229E1,2.504142609E0,-2.914439392E0,4.468208313E-1,3.868376407E0
1.024364429E1,2.035018158E0,-2.532134399E0,3.803590393E-1,3.270730273E0
1.025356629E1,1.234931946E0,-2.019600220E0,-4.670288086E-2,2.367704187E0
1.026348929E1,6.990463257E-2,-1.445843353E0,-4.240681458E-1,1.508371125E0
1.027341129E1,-1.322649536E0,-8.825646973E-1,-7.135661316E-1,1.742842180E0
1.028333329E1,-2.566712494E0,-6.099815369E-1,-7.803273010E-1,2.751181782E0
1.029325629E1,-3.443139954E0,-5.439688110E-1,-6.036946106E-1,3.537734019E0
1.030317829E1,-3.938609619E0,-5.486091614E-1,-1.643582153E-1,3.980029066E0
1.031310029E1,-3.941004639E0,-5.578898621E-1,4.213737488E-1,4.002538507E0
1.032302329E1,-3.679348755E0,-4.983137512E-1,8.634045410E-1,3.812006198E0
1.033294529E1,-3.050955505E0,-3.132984924E-1,1.075962524E0,3.250258574E0
1.034286729E1,-2.158511353E0,-5.553451538E-2,1.244362335E0,2.492126193E0
1.035279029E1,-1.349892883E0,-1.502874756E-1,1.170565796E0,1.793048076E0
1.036271229E1,-1.122216339E0,-7.375163269E-1,-1.781295776E-1,1.354632788E0
1.037263429E1,-2.051184540E0,-1.641935577E0,-4.087998962E0,4.859531456E0
1.038255729E1,-2.833607483E0,-4.043990479E0,-7.530689850E0,9.005247358E0
1.039247929E1,-1.396446075E0,-8.334518280E0,-4.007316742E0,9.352691809E0
1.040240129E1,1.169368286E0,-1.574575653E1,1.856140137E-1,1.579020974E1
1.041232429E1,1.841171265E-2,-3.260040710E1,-7.542515259E0,3.346156629E1
1.042224629E1,5.942642212E-2,-4.958663406E1,-4.760700073E0,4.981467730E1
1.043216829E1,5.155878296E0,-4.587959290E1,-7.633825378E0,4.679524992E1
1.044209129E1,-2.527044983E0,-3.823768433E1,-9.749525757E0,3.954187289E1
1.045201329E1,-5.576952667E0,-3.881653061E1,-1.284224442E1,4.126437557E1
1.046193629E1,-2.638413391E0,-3.874213531E1,-1.219214630E1,4.070089318E1
1.047185829E1,6.915618896E-2,-3.305860428E1,-7.114106140E0,3.381547879E1
1.048178029E1,-9.214837646E-1,-2.593955841E1,-3.136427765E0,2.614473182E1
1.049170329E1,-2.912942505E0,-1.977986755E1,-1.916464691E0,2.008485079E1
1.050162529E1,-3.725602570E0,-1.471754471E1,-2.173180847E0,1.533652346E1
1.051154729E1,-4.692442017E0,-1.051518356E1,-2.035916290E0,1.169329092E1
1.052147029E1,-5.749693451E0,-7.594756622E0,-2.120939484E0,9.758979825E0
1.053139229E1,-5.938600616E0,-5.827830963E0,-1.915865936E0,8.538216049E0
1.054131429E1,-4.791535950E0,-4.183200989E0,-1.104852448E0,6.455903206E0
1.055123729E1,-3.420087891E0,-2.605332184E0,-4.340972900E-1,4.321249521E0
1.056115929E1,-2.248025208E0,-1.576371918E0,-2.353106689E-1,2.755709866E0
1.057108129E1,-7.117698669E-1,-9.413923645E-1,-1.670526123E-1,1.191949035E0
1.058100429E1,7.828720093E-1,-2.353106689E-1,-6.885681152E-3,8.175005238E-1
1.059092629E1,1.879940643E0,4.950205994E-1,-3.981719971E-2,1.944429897E0
1.060084829E1,3.008743286E0,6.328839111E-1,-6.105802917E-1,3.134627011E0
1.061077129E1,3.816313934E0,3.558100891E-1,-1.717229004E0,4.199967657E0
1.062069392E1,3.500321045E0,-3.109034729E-1,-2.500849457E0,4.313137651E0
1.063061592E1,2.675236816E0,-1.243164825E0,-2.054926758E0,3.595146004E0
1.064053892E1,2.194586334E0,-1.618284760E0,-7.283853149E-1,2.822339439E0
1.065046092E1,1.924398193E0,-1.314416656E0,7.280859375E-1,2.441538180E0
1.066038292E1,1.590442657E0,-6.956034851E-1,1.479673004E0,2.280965641E0
1.067030592E1,1.113235016E0,-2.492317200E-1,1.604513397E0,1.968723417E0
1.068022792E1,6.674620056E-1,-2.146536255E-1,1.420096893E0,1.583747737E0
1.069014992E1,1.347198486E-1,-2.872526550E-1,8.680448914E-1,9.242107221E-1
1.070007292E1,-3.941304016E-1,-3.351530457E-1,1.219963074E-1,5.315537945E-1
1.070999492E1,-9.497749329E-1,-5.074447632E-1,-4.722679138E-1,1.175844204E0
1.071991692E1,-1.487307129E0,-9.304650879E-1,-6.840774536E-1,1.883032060E0
1.072983992E1,-1.812880096E0,-1.548529816E0,-6.551875305E-1,2.472599752E0
1.073976192E1,-1.886976013E0,-1.939067688E0,-5.742059326E-1,2.765931023E0
1.074968392E1,-1.861977997E0,-1.712289276E0,-4.321513367E-1,2.566252404E0
1.075960692E1,-1.843566284E0,-1.110839996E0,-4.996609497E-1,2.209607025E0
1.076952892E1,-1.723665619E0,-4.285588074E-1,-8.689430237E-1,1.977308220E0
1.077945192E1,-1.543290710E0,1.437011719E-1,-1.296154633E0,2.020498225E0
1.078937392E1,-1.383423157E0,3.016227722E-1,-2.074535980E0,2.511679809E0
1.079929592E1,-1.493144989E0,-1.071771240E-1,-4.471651154E0,4.715573447E0
1.080921892E1,-2.351460114E0,-1.433718567E0,-7.718249817E0,8.194894376E0
1.081914092E1,-3.057841187E0,-3.861819305E0,-7.241341553E0,8.757914624E0
1.082906292E1,-2.151775360E0,-8.286767578E0,-2.509980469E0,8.921919975E0
1.083898592E1,-4.552033997E-1,-1.621682693E1,1.029858398E0,1.625586953E1
1.084890792E1,-3.738326111E0,-3.165063217E1,3.775149536E-1,3.187287431E1
1.085882992E1,-6.155349884E0,-5.528169113E1,-2.687660980E0,5.568821445E1
1.086875292E1,1.079944244E1,-5.597609711E1,-1.252595215E1,5.836823521E1
1.087867492E1,5.492827606E0,-3.585613678E1,-1.233270401E1,3.831356533E1
1.088859692E1,-3.405418396E0,-2.858201340E1,-7.884104919E0,2.984438766E1
1.089851992E1,-1.896256714E0,-3.014311707E1,-4.014950867E0,3.046839553E1
1.090844192E1,-2.509980469E0,-3.165736816E1,-4.998705139E0,3.214772176E1
1.091836392E1,-5.081033936E0,-2.842484024E1,-5.744753723E0,2.944130846E1
1.092828692E1,-6.063441010E0,-2.222667938E1,-4.860392761E0,2.354599777E1
1.093820892E1,-4.868475952E0,-1.689581497E1,-4.232747955E0,1.808554055E1
1.094813092E1,-3.284469910E0,-1.327244980E1,-3.530558167E0,1.412127853E1
1.095805392E1,-2.343676300E0,-1.074091415E1,-2.372266846E0,1.124667531E1
1.096797592E1,-1.665736084E0,-8.623567200E0,-1.467548218E0,8.904733894E0
1.097789892E1,-5.592370605E-1,-6.867718506E0,-7.770341492E-1,6.934124720E0
1.098782092E1,-1.751358032E-2,-5.573210449E0,-1.987866211E-1,5.576782007E0
1.099774292E1,-2.287243652E-1,-4.158801727E0,3.353027344E-2,4.165221593E0
1.100766592E1,-5.438191223E-1,-2.768792267E0,-2.797682190E-1,2.835528189E0
1.101758792E1,-6.370751953E-1,-1.540596313E0,-5.801934814E-1,1.765198652E0
1.102750992E1,-9.695338440E-1,-8.253836060E-1,-1.037941589E0,1.642734523E0
1.103743292E1,-1.219663696E0,-2.902464294E-1,-1.408870239E0,1.885931566E0
1.104735492E1,-1.241817627E0,4.135899353E-1,-1.786983948E0,2.215057399E0
1.105727692E1,-1.028211823E0,6.221063232E-1,-2.475701752E0,2.751969294E0
1.106719992E1,-2.513273621E-1,2.540217590E-1,-2.861748962E0,2.883972888E0
1.107712192E1,6.589297485E-1,-6.146218872E-1,-2.798879700E0,2.940353049E0
1.108704392E1,1.435664520E0,-1.084045715E0,-2.224973145E0,2.861257280E0
1.109696692E1,1.976190491E0,-8.593629456E-1,-1.008901978E0,2.379436221E0
1.110688892E1,2.055525513E0,-3.367996216E-1,3.962260437E-1,2.120286348E0
1.111681092E1,1.491049347E0,-2.110610962E-2,1.362616425E0,2.019999293E0
1.112673392E1,5.972579956E-1,-4.520599365E-2,1.739981689E0,1.840189386E0
1.113665592E1,-2.116598511E-1,-4.233197021E-1,1.679507446E0,1.744919690E0
1.114657792E1,-7.547305298E-1,-9.300160217E-1,1.511107635E0,1.928210118E0
1.115650092E1,-1.138083344E0,-1.458866272E0,1.387315063E0,2.312610556E0
1.116642292E1,-1.508562927E0,-1.738933868E0,1.295555878E0,2.641612791E0
1.117634492E1,-1.873504028E0,-1.791474609E0,1.194965057E0,2.854354587E0
1.118626792E1,-2.212548981E0,-1.558409271E0,1.198557587E0,2.959823092E0
1.119618992E1,-2.533481598E0,-1.059646454E0,1.102307739E0,2.959131962E0
1.120611292E1,-2.584824829E0,-4.584965515E-1,5.719606018E-1,2.686759650E0
1.121603492E1,-2.573448486E0,1.032852173E-1,-1.956431580E-1,2.582940416E0
1.122595692E1,-2.153871002E0,5.242098999E-1,-3.091072083E-1,2.238192034E0
1.123587992E1,-1.642684021E0,4.278103638E-1,-6.484515381E-1,1.817119120E0
1.124580192E1,-1.586101685E0,-3.016227722E-1,-2.538271637E0,3.008241638E0
1.125572392E1,-2.228565674E0,-1.451232147E0,-5.778583374E0,6.361179570E0
1.126564692E1,-2.822380829E0,-3.509152679E0,-7.733218689E0,8.948891404E0
1.127556892E1,-1.315913544E0,-7.333100739E0,-1.319655762E0,7.566206858E0
1.128549092E1,1.895208893E0,-1.381896332E1,6.028264160E0,1.519524704E1
1.129541392E1,-6.411167908E-1,-2.795960770E1,-4.075724487E0,2.826238177E1
1.130533592E1,-3.763623505E0,-5.314593246E1,-8.483308868E0,5.395017636E1
1.131525792E1,2.565664673E0,-5.308515884E1,-7.094496918E0,5.361854727E1
1.132518092E1,-4.675377502E0,-2.985406815E1,-3.253035278E0,3.039254478E1
1.133510292E1,-1.071920929E1,-2.945260300E1,-8.657097473E0,3.251618993E1
1.134502592E1,-5.560786285E0,-4.075634674E1,-1.083836151E1,4.253789163E1
1.135494792E1,-8.496331787E-1,-3.993021469E1,-8.302634583E0,4.079310803E1
1.136486992E1,-2.413131866E0,-2.955588821E1,-5.566773834E0,3.017221743E1
1.137479292E1,-5.719905396E0,-2.091076584E1,-3.567082214E0,2.197046930E1
1.138471492E1,-6.489904175E0,-1.541554321E1,-2.885549469E0,1.697304405E1
1.139463692E1,-5.866450653E0,-1.179262711E1,-2.117945709E0,1.334042696E1
1.140455992E1,-4.690196686E0,-9.059610443E0,-2.104773102E0,1.041655203E1
1.141448192E1,-3.807182922E0,-6.971901855E0,-3.015479279E0,8.496774245E0
1.142440392E1,-2.301913147E0,-5.174140320E0,-3.526516571E0,6.671345540E0
1.143432692E1,-7.315287781E-1,-3.664529572E0,-3.446732483E0,5.083687259E0
1.144424892E1,9.684860229E-1,-2.341430969E0,-2.842888184E0,3.808185576E0
1.145417092E1,3.043022003E0,-1.473984833E0,-1.722019043E0,3.794464888E0
1.146409392E1,4.712649994E0,-1.115031281E0,-8.370593262E-1,4.914573536E0
1.147401592E1,5.867648163E0,-7.562274170E-1,-6.631210327E-1,5.953226383E0
1.148393792E1,5.271887054E0,1.332229614E-1,-1.091081085E0,5.385257599E0
1.149386092E1,4.253105621E0,6.176156616E-1,-1.528920593E0,4.561573710E0
1.150378292E1,3.000510406E0,-1.589694214E-1,-2.120041351E0,3.677350855E0
1.151370592E1,1.371298370E0,-1.018482056E0,-2.417472839E0,2.960057406E0
1.152362792E1,9.939331055E-2,-1.402134247E0,-2.237247620E0,2.642184019E0
1.153354992E1,-4.831951904E-1,-1.471889191E0,-1.702709198E0,2.301989139E0
1.154347292E1,-3.357518005E-1,-1.047970734E0,-1.267414398E0,1.678484789E0
1.155339492E1,5.806425476E-1,-6.878196716E-1,-7.863148499E-1,1.195212413E0
1.156331692E1,1.753154297E0,-6.011499023E-1,9.729766846E-2,1.855908950E0
1.157323992E1,2.155218201E0,-4.990621948E-1,1.057550812E0,2.452028199E0
1.158316192E1,2.021995239E0,-2.887495422E-1,1.448238373E0,2.503844131E0
1.159308392E1,1.255139923E0,-1.029858398E-1,1.361867981E0,1.854903423E0
1.160300692E1,-4.939727783E-1,-6.885681152E-2,1.266067200E0,1.360763212E0
1.161292892E1,-2.743494873E0,-3.652404785E-1,1.263672180E0,3.042537116E0
1.162285067E1,-4.252357178E0,-9.946815491E-1,1.112935638E0,4.506723720E0
1.163277367E1,-4.673132172E0,-1.416204987E0,8.132588196E-1,4.950271787E0
1.164269567E1,-4.380341034E0,-1.343605957E0,4.201762390E-1,4.601001262E0
1.165261767E1,-3.807931366E0,-7.734416199E-1,8.099656677E-1,3.969206169E0
1.166254067E1,-3.271446991E0,-2.451901245E-1,1.432071991E0,3.579568940E0
1.167246267E1,-1.881587219E0,-4.095483398E-1,1.578467560E0,2.489911674E0
1.168238567E1,-2.353106689E-1,-9.261241150E-1,3.749702454E-1,1.026489002E0
1.169230767E1,-8.545729065E-1,-1.649719391E0,-2.271077271E0,2.934222365E0
1.170222967E1,-2.469863892E0,-3.681743774E0,-4.254452820E0,6.144577582E0
1.171215267E1,-4.770579529E-1,-7.230114899E0,-2.228865051E0,7.580896065E0
1.172207467E1,9.345066833E-1,-1.242146942E1,-4.352947998E0,1.319524011E1
1.173199667E1,-4.944068756E0,-2.767310349E1,-8.349038086E0,2.932491960E1
1.174191967E1,-9.632618866E0,-5.802578476E1,-3.040028229E0,5.889839399E1
1.175184167E1,5.403912506E0,-6.191664368E1,-7.193441162E0,6.256691322E1
1.176176367E1,2.950514374E0,-4.166091568E1,-1.205458237E1,4.347010911E1
1.177168667E1,-1.221310272E0,-3.552457626E1,-1.324176361E1,3.793193142E1
1.178160867E1,1.813927917E0,-3.395793411E1,-9.003776550E0,3.517811274E1
1.179153167E1,-2.542013855E0,-2.855387192E1,-5.249433746E0,2.914347252E1
1.180145367E1,-7.529043274E0,-2.124412262E1,-4.496649170E-1,2.254332356E1
1.181137567E1,-1.146495850E1,-1.676783112E1,1.676513672E-2,2.031269836E1
1.182129867E1,-1.208122696E1,-1.386372025E1,-1.742975464E0,1.847151178E1
1.183122067E1,-9.954748993E0,-1.147513733E1,-2.626737671E0,1.541672971E1
1.184114267E1,-7.631430359E0,-9.092691650E0,-3.409160614E0,1.235063346E1
1.185106567E1,-5.050497437E0,-7.506589966E0,-2.883004761E0,9.495690271E0
1.186098767E1,-2.417023773E0,-6.389463043E0,-2.112856293E0,7.150622603E0
1.187090967E1,4.909790039E-2,-4.879403229E0,-1.682052155E0,5.161422858E0
1.188083267E1,2.354902954E0,-3.282973022E0,-5.559439087E-1,4.078302762E0
1.189075467E1,4.414470062E0,-1.826202393E0,9.852511597E-1,4.877835684E0
1.190067667E1,5.251679077E0,-1.528321838E-1,1.862876129E0,5.574387704E0
1.191059967E1,4.844525757E0,9.550140381E-1,1.912123718E0,5.295063620E0
1.192052167E1,3.706292725E0,4.351451111E-1,1.157093811E-1,3.733543316E0
1.193044467E1,1.082399139E0,-8.017327881E-1,-2.927013245E0,3.222075402E0
1.194036667E1,-6.071374512E-1,-1.867666168E0,-3.630250854E0,4.127410092E0
1.195028867E1,-1.194066925E0,-2.264041901E0,-2.479144592E0,3.563402792E0
1.196021167E1,-7.765850830E-1,-1.507515106E0,-1.669478302E0,2.379673084E0
1.197013367E1,-2.710862732E-1,-7.625143433E-1,-1.793869629E0,1.967964465E0
1.198005567E1,4.965174866E-1,-4.623884583E-1,-2.420466614E0,2.513760396E0
1.198997867E1,1.335672455E0,-5.707630920E-1,-2.091899872E0,2.546730549E0
1.199990067E1,1.673519897E0,-3.917353821E-1,-4.876858521E-1,1.786606545E0
1.200982267E1,1.154998169E0,-8.187973022E-2,1.361418915E0,1.787228727E0
1.201974567E1,3.251239014E-1,-4.864883423E-2,2.547851715E0,2.568972678E0
1.202966767E1,-6.012995911E-1,1.092727661E-1,2.994373169E0,3.056104123E0
1.203958967E1,-1.269510040E0,1.528321838E-1,3.024161224E0,3.283377001E0
1.204951267E1,-1.744172974E0,-1.088237000E-1,2.604583740E0,3.136532866E0
1.205943467E1,-2.230511627E0,-2.796185303E-1,1.894610138E0,2.939883708E0
1.206935767E1,-2.569406891E0,-1.913021851E-1,9.553134155E-1,2.747921400E0
1.207927967E1,-2.806214447E0,1.691482544E-2,1.197509766E-1,2.808819313E0
1.208920167E1,-2.909499664E0,3.008743286E-1,-3.462300110E-1,2.945435261E0
1.209912467E1,-2.554887085E0,4.119433594E-1,-7.201524353E-1,2.686217578E0
1.210904667E1,-1.737436981E0,1.630110168E-1,-1.326541443E0,2.192024647E0
1.211896867E1,-1.228944397E0,-8.580157471E-1,-2.468067627E0,2.887534098E0
1.212889167E1,-1.612297211E0,-2.344125366E0,-4.227359161E0,5.095585492E0
1.213881367E1,-3.419489136E0,-4.133803711E0,-7.014413452E0,8.830811692E0
1.214873567E1,-4.289030914E0,-7.676486664E0,-7.025340729E0,1.125520529E1
1.215865867E1,-3.763174438E-1,-1.398107620E1,-8.249345398E-1,1.401044694E1
1.216858067E1,5.160069580E0,-2.723885651E1,-4.946164398E0,2.816107534E1
1.217850367E1,2.742447052E0,-5.012251968E1,-7.467670898E0,5.074991728E1
1.218842567E1,4.478237457E0,-5.669759674E1,-2.620301056E0,5.693450680E1
1.219834767E1,1.459015961E0,-3.502476562E1,-8.600664825E0,3.609479699E1
1.220827067E1,-6.513255615E0,-2.686194031E1,-1.004381378E1,2.940857921E1
1.221819267E1,-3.243305511E0,-3.619248734E1,-9.653724976E0,3.759799963E1
1.222811467E1,1.048868866E0,-3.875605637E1,-6.595584412E0,3.932726490E1
1.223803767E1,-2.642005920E-1,-3.021526703E1,-4.740641785E0,3.058604009E1
1.224795967E1,-3.700005798E0,-2.316133575E1,-4.057163086E0,2.380332097E1
1.225788167E1,-5.310357056E0,-1.858939316E1,-3.457809448E0,1.963980337E1
1.226780467E1,-6.417754211E0,-1.544548096E1,-3.771856384E0,1.714576775E1
1.227772667E1,-7.831863556E0,-1.294493088E1,-4.156257019E0,1.569024521E1
1.228764967E1,-8.741671600E0,-1.024664200E1,-4.377197571E0,1.416228630E1
1.229757167E1,-7.982151031E0,-7.524402924E0,-3.661386108E0,1.156447676E1
1.230749367E1,-5.955964508E0,-5.192252655E0,-2.304308167E0,8.230603683E0
1.231741667E1,-3.307222595E0,-3.627257080E0,-9.581575012E-1,5.001277938E0
1.232733867E1,-7.102729797E-1,-2.665656738E0,-2.490820312E-1,2.769883646E0
1.233726067E1,1.134939880E0,-1.653012543E0,2.835104370E-1,2.025072139E0
1.234718367E1,2.327360229E0,-5.845344543E-1,8.695417786E-1,2.552330126E0
1.235710567E1,2.807711334E0,4.197271729E-1,9.939331055E-1,3.007875804E0
1.236702767E1,2.770289154E0,9.199868774E-1,1.672023010E-1,2.923838994E0
1.237695067E1,2.278561707E0,5.650749207E-1,-7.967930603E-1,2.479119258E0
1.238687267E1,1.557810516E0,6.900650024E-2,-1.132245483E0,1.927048348E0
1.239679567E1,9.431886292E-1,-4.939727783E-3,-9.481283569E-1,1.337376750E0
1.240671767E1,1.002465363E0,4.306544495E-1,-4.775070190E-1,1.190971457E0
1.241663967E1,1.546134796E0,7.223977661E-1,3.579057312E-1,1.743699473E0
1.242656267E1,1.719324646E0,5.698649597E-1,1.159488831E0,2.150636571E0
1.243648467E1,1.763632507E0,3.610491943E-1,1.378034363E0,2.267098332E0
1.244640667E1,1.742825775E0,1.037342834E-1,1.046922913E0,2.035743125E0
1.245632967E1,1.517993317E0,-1.251397705E-1,3.559597778E-1,1.564183824E0
1.246625167E1,1.225800934E0,-4.555027771E-1,-1.290316772E-1,1.314047139E0
1.247617367E1,6.786886597E-1,-9.674382019E-1,-1.019380188E-1,1.186147685E0
1.248609667E1,-2.254312134E-1,-1.496438141E0,-7.873626709E-2,1.515369836E0
1.249601867E1,-1.044677582E0,-1.941462708E0,-2.796185303E-1,2.222344532E0
1.250594167E1,-1.408271484E0,-1.968855743E0,-4.933740234E-1,2.470433047E0
1.251586367E1,-1.553319855E0,-1.604812775E0,-6.936575317E-1,2.338672141E0
1.252578567E1,-1.653012543E0,-1.110540619E0,-9.693841553E-1,2.214826533E0
1.253570867E1,-1.708846436E0,-4.766088867E-1,-1.071172485E0,2.072371266E0
1.254563067E1,-1.592837677E0,3.432362366E-1,-9.171427917E-1,1.869784447E0
1.255555267E1,-1.374441833E0,9.711804199E-1,-7.689509583E-1,1.850288447E0
1.256547567E1,-1.218466187E0,9.660910034E-1,-8.385562134E-1,1.766682823E0
1.257539767E1,-1.304237823E0,1.100212097E-1,-1.864223328E0,2.277821236E0
1.258531967E1,-2.811752930E0,-1.231489105E0,-4.652175751E0,5.573621728E0
1.259524267E1,-4.666396179E0,-3.880680084E0,-6.055657196E0,8.573559080E0
1.260516467E1,-3.502117310E0,-8.146060181E0,-5.955665131E0,1.068143573E1
1.261508767E1,-8.656498718E-1,-1.640558441E1,-3.647614746E0,1.682847714E1
1.262500929E1,-3.515589294E0,-3.675247284E1,-4.210144958E0,3.715950684E1
1.263493129E1,-3.747906189E0,-6.649217880E1,-2.162852325E0,6.663283405E1
1.264485429E1,1.131931137E1,-5.858547089E1,-7.400011597E0,6.012607072E1
1.265477629E1,-5.384303284E-1,-3.080040024E1,-1.075049423E1,3.262710052E1
1.266469829E1,-8.328680420E0,-2.842139740E1,-8.746761017E0,3.088120101E1
1.267462129E1,-4.355343018E0,-3.192830475E1,-9.539063416E0,3.360624031E1
1.268454329E1,-3.941453705E0,-2.756113632E1,-6.118077393E0,2.850582684E1
1.269446629E1,-5.816005554E0,-2.183644089E1,-2.190844116E0,2.270365321E1
1.270438829E1,-6.727460175E0,-1.701436844E1,-1.614841919E0,1.836723083E1
1.271431029E1,-6.392007751E0,-1.410876068E1,-2.851270752E0,1.574943288E1
1.272423329E1,-6.061495056E0,-1.262669266E1,-2.817740479E0,1.428687339E1
1.273415529E1,-4.802612915E0,-1.132155670E1,-2.236948242E0,1.249986698E1
1.274407729E1,-2.881358185E0,-1.000190094E1,-1.615889740E0,1.053334453E1
1.275400029E1,-1.063089294E0,-8.430917816E0,-9.572593689E-1,8.551425587E0
1.276392229E1,4.267625427E-1,-6.314768372E0,-6.668632507E-1,6.364207134E0
1.277384429E1,1.559756470E0,-4.369563446E0,-6.024971008E-1,4.678560431E0
1.278376729E1,2.654280396E0,-3.274740143E0,-2.201921082E-1,4.221091326E0
1.279368929E1,3.502416687E0,-2.662064209E0,2.568658447E-1,4.406754879E0
1.280361229E1,3.653452606E0,-1.636696472E0,8.084687805E-1,4.084129412E0
1.281353429E1,2.855012970E0,-1.487905884E-1,9.798623657E-1,3.022146250E0
1.282345629E1,1.993105316E0,1.060394897E0,7.108717346E-1,2.366906158E0
1.283337929E1,1.011596375E0,9.145980835E-1,4.656816101E-1,1.441067743E0
1.284330129E1,2.880010986E-1,7.244934082E-1,6.670129395E-1,1.026031965E0
1.285322329E1,-1.811233521E-2,7.081773376E-1,5.291496277E-1,8.842185967E-1
1.286314629E1,2.510279846E-1,7.686515808E-1,6.526428223E-2,8.112334610E-1
1.287306829E1,9.949809265E-1,6.340814209E-1,-4.397854614E-1,1.259149532E0
1.288299029E1,1.376836853E0,1.902543640E-1,-8.150550842E-1,1.611270068E0
1.289291329E1,1.377585297E0,-2.016307068E-1,-1.064735870E0,1.752728919E0
1.290283529E1,1.206790466E0,-6.695576477E-1,-1.047072601E0,1.732342837E0
1.291275829E1,6.863227844E-1,-1.240620117E0,-6.474037170E-1,1.558624013E0
1.292268029E1,-2.939886475E-1,-1.798959045E0,5.837860107E-3,1.822832151E0
1.293260229E1,-1.266665955E0,-2.099833374E0,6.360273743E-1,2.533431203E0
1.294252529E1,-1.941163330E0,-1.985770569E0,1.116228790E0,2.992885988E0
1.295244729E1,-2.439177704E0,-1.551822968E0,1.173110504E0,3.119924783E0
1.296236929E1,-2.711461487E0,-1.073268127E0,8.298742676E-1,3.031933239E0
1.297229229E1,-2.794239349E0,-6.048921204E-1,2.127076721E-1,2.866864589E0
1.298221429E1,-2.759062500E0,-7.589218140E-2,-4.233197021E-1,2.792379822E0
1.299213729E1,-2.713557129E0,4.246669006E-1,-4.305047607E-1,2.780120252E0
1.300205929E1,-2.558928680E0,4.828958130E-1,-1.875599670E-1,2.610839539E0
1.301198129E1,-2.492766266E0,-8.876541138E-2,-9.367520142E-1,2.664445025E0
1.302190429E1,-3.558999023E0,-1.215322723E0,-4.263883209E0,5.685436078E0
1.303182629E1,-4.378395081E0,-3.513793030E0,-5.727389832E0,8.019980001E0
1.304174829E1,-1.077160034E0,-7.211403809E0,-1.516346741E-1,7.292983731E0
1.305167129E1,2.465971985E0,-1.497905090E1,1.064735870E0,1.521797116E1
1.306159329E1,-2.646496582E0,-3.749013885E1,-9.661209412E0,3.880532725E1
1.307151629E1,-4.937781830E0,-6.605688400E1,-7.381001129E0,6.665112746E1
1.308143829E1,3.967200165E0,-5.454013321E1,-9.403744812E0,5.548689236E1
1.309136029E1,-5.291645966E0,-3.153013275E1,-8.020770721E0,3.296184994E1
1.310128329E1,-5.601651306E0,-3.167952209E1,-9.510472870E0,3.354727577E1
1.311120529E1,-2.860551453E-1,-3.642794769E1,-6.555617523E0,3.701423134E1
1.312112729E1,-4.090992737E-1,-3.205688736E1,-3.523073730E0,3.225249506E1
1.313105029E1,-3.518283691E0,-2.352897125E1,-1.378034363E0,2.383043825E1
1.314097229E1,-7.047644348E0,-1.703158264E1,-9.006770325E-1,1.845414092E1
1.315089429E1,-7.985144806E0,-1.290601181E1,-1.956132202E0,1.530209566E1
1.316081729E1,-7.263645172E0,-1.057296341E1,-3.088826752E0,1.319427706E1
1.317073929E1,-5.625601501E0,-9.699529724E0,-3.462449799E0,1.173528132E1
1.318066229E1,-2.953208771E0,-9.225166168E0,-2.982847137E0,1.013521139E1
1.319058429E1,-1.633103943E-1,-7.294630737E0,-2.147135010E0,7.605819918E0
1.320050629E1,1.536255341E0,-4.668641510E0,-1.692979431E0,5.198314474E0
1.321042929E1,2.371069336E0,-2.474953308E0,-1.619033203E0,3.790597867E0
1.322035129E1,2.656226349E0,-9.271719360E-1,-1.756447449E0,3.316669090E0
1.323027329E1,2.696941681E0,6.047424316E-1,-2.024090881E0,3.425806728E0
1.324019629E1,2.511177979E0,1.557062073E0,-2.281705170E0,3.733180363E0
1.325011829E1,1.735491028E0,1.202299805E0,-2.767894135E0,3.481191156E0
1.326004129E1,6.899153137E-1,-1.701960754E-1,-2.875520325E0,2.962020760E0
1.326996329E1,1.410067749E-1,-7.343728638E-1,-2.052831116E0,2.184788778E0
1.327988529E1,8.116122437E-1,-2.284249878E-1,-7.741900635E-1,1.144667054E0
1.328980829E1,1.683549042E0,4.447251892E-1,4.348457336E-1,1.794772599E0
1.329973029E1,1.909878387E0,9.090596008E-1,1.232686615E0,2.448170971E0
1.330965229E1,1.566791840E0,1.105002136E0,1.419947205E0,2.385815679E0
1.331957529E1,8.237370300E-1,1.024319916E0,1.410965881E0,1.928366849E0
1.332949729E1,-4.909790039E-2,6.707551575E-1,1.670077057E0,1.800411192E0
1.333942029E1,-9.136999512E-1,1.899549866E-1,1.953437805E0,2.164913337E0
1.334934229E1,-1.503323822E0,-2.483335876E-1,2.084864502E0,2.582307510E0
1.335926429E1,-1.904938660E0,-8.855584717E-1,2.021845551E0,2.915624210E0
1.336918729E1,-2.222129059E0,-1.562450867E0,1.733844452E0,3.222627321E0
1.337910929E1,-2.319726105E0,-1.991309052E0,1.187181244E0,3.279609770E0
1.338903129E1,-2.161355438E0,-2.048190765E0,6.560856628E-1,3.049096774E0
1.339895429E1,-2.072290649E0,-1.748064880E0,3.218307495E-1,2.730145489E0
1.340887629E1,-1.869462433E0,-1.177152100E0,-4.191284180E-2,2.209600312E0
1.341879929E1,-1.604663086E0,-5.804928589E-1,-4.423301697E-1,1.762830553E0
1.342872129E1,-1.533411255E0,-2.086660767E-1,-9.919871521E-1,1.838186639E0
1.343864329E1,-1.459914093E0,-2.387535095E-1,-1.557511139E0,2.148067351E0
1.344856629E1,-1.471290436E0,-9.994715881E-1,-2.347418518E0,2.945167686E0
1.345848829E1,-2.170187073E0,-1.877246246E0,-3.367098083E0,4.423925282E0
1.346841029E1,-3.337160339E0,-3.155138855E0,-5.646857300E0,7.278635702E0
1.347833329E1,-2.595901794E0,-5.755830688E0,-9.754914551E0,1.162009686E1
1.348825529E1,1.148112488E0,-1.000040405E1,-8.060737610E0,1.289580297E1
1.349817729E1,3.686982880E0,-1.677471680E1,2.921474762E0,1.742182485E1
1.350810029E1,-1.480720825E0,-3.178475327E1,-1.788480835E0,3.186944835E1
1.351802229E1,-2.195783844E0,-5.843952438E1,-3.498225403E0,5.858529728E1
1.352794529E1,1.155566986E1,-5.764886856E1,-1.700224365E1,6.120459004E1
1.353786729E1,-1.131047974E0,-3.668451416E1,-1.672531952E1,4.033322652E1
1.354778929E1,-2.991229706E0,-3.335603577E1,-1.155117920E1,3.542601189E1
1.355771229E1,3.643872528E0,-3.323583572E1,-6.168672180E0,3.399928087E1
1.356763429E1,5.601351929E-1,-2.916145844E1,-1.989662476E0,2.923462273E1
1.357755729E1,-4.899611206E0,-2.404195450E1,-1.218316498E0,2.456636036E1
1.358747929E1,-1.026340714E1,-1.930715057E1,-2.151775360E0,2.197120221E1
1.359740129E1,-1.216669922E1,-1.530986298E1,-1.702409821E0,1.962953574E1
1.360732429E1,-1.072878937E1,-1.195069839E1,-2.897973633E-1,1.606269267E1
1.361724629E1,-8.367449799E0,-8.636141052E0,4.468208313E-1,1.203315409E1
1.362716871E1,-5.858517151E0,-6.125561829E0,7.310797119E-1,8.507597103E0
1.363709171E1,-3.907324677E0,-4.936434631E0,6.071374512E-1,6.324886472E0
1.364701371E1,-1.948049011E0,-4.305496674E0,3.835025024E-1,4.741230929E0
1.365693671E1,-3.285667419E-1,-3.501668243E0,2.195933533E-1,3.523898102E0
1.366685871E1,3.191363525E-1,-2.863545227E0,2.725831604E-1,2.894139053E0
1.367678071E1,4.224215698E-1,-2.340832214E0,3.571572876E-1,2.405305961E0
1.368670371E1,3.236270142E-1,-1.628014526E0,-6.481521606E-2,1.661134177E0
1.369662571E1,6.436614990E-1,-1.253493347E0,-8.384065247E-1,1.639655817E0
1.370654771E1,9.395960999E-1,-1.799707489E0,-1.548829193E0,2.553558252E0
1.371647071E1,1.065933380E0,-2.863844604E0,-1.862576752E0,3.578688593E0
1.372639271E1,6.099815369E-1,-3.359314270E0,-1.801803131E0,3.860513484E0
1.373631571E1,-7.140151978E-2,-2.639760590E0,-1.455124054E0,3.015098698E0
1.374623771E1,-1.392105103E-2,-7.617658997E-1,-1.340761871E0,1.542116558E0
1.375615971E1,2.677931213E-1,7.598199463E-1,-1.623673553E0,1.812554914E0
1.376608271E1,7.092251587E-1,1.505419464E0,-1.791923676E0,2.445460805E0
1.377600471E1,1.273401947E0,2.017654266E0,-1.596130829E0,2.870560029E0
1.378592671E1,1.537003784E0,2.135010223E0,-1.043779449E0,2.830216392E0
1.379584971E1,1.093476105E0,1.603615265E0,-3.718267822E-1,1.976240640E0
1.380577171E1,3.270698547E-1,7.890092468E-1,2.754272461E-1,8.974243419E-1
1.381569471E1,-4.905299377E-1,-9.520202637E-2,7.438032532E-1,8.960615632E-1
1.382561671E1,-1.341959381E0,-8.657995605E-1,1.131646729E0,1.957316576E0
1.383553871E1,-1.999691620E0,-1.513053589E0,1.500180359E0,2.922094941E0
1.384546171E1,-2.333796844E0,-2.135459290E0,1.688039703E0,3.585564409E0
1.385538371E1,-2.228565674E0,-2.386636963E0,1.626367950E0,3.647960206E0
1.386530571E1,-1.839524689E0,-2.174677734E0,1.405726776E0,3.176340992E0
1.387522871E1,-1.366358643E0,-1.654509430E0,8.425978088E-1,2.305278391E0
1.388515071E1,-7.096742249E-1,-1.209335175E0,-1.434017944E-1,1.409501027E0
1.389507371E1,3.191363525E-1,-1.340761871E0,-1.145867157E0,1.792345376E0
1.390499571E1,1.374292145E0,-2.218237152E0,-3.014281769E0,3.986872150E0
1.391491771E1,6.162684631E-1,-3.501069489E0,-5.971532135E0,6.949566204E0
1.392484071E1,-1.090931396E0,-6.337371368E0,-1.011731094E1,1.198801017E1
1.393476271E1,-5.002597046E-1,-1.038540344E1,-1.159818146E1,1.557641414E1
1.394468471E1,1.756297760E0,-1.818747894E1,-4.982838135E0,1.893931488E1
1.395460771E1,3.106040955E-1,-3.165182968E1,-4.215084686E0,3.193276900E1
1.396452971E1,-6.091432800E0,-5.230183777E1,-2.483036499E0,5.271388107E1
1.397445271E1,5.028044128E-1,-5.075405640E1,1.161584473E0,5.076983683E1
1.398437471E1,-1.507515106E0,-2.564332443E1,-6.837032318E0,2.658190551E1
1.399429671E1,-1.353979385E1,-2.092049561E1,-1.275572433E1,2.799467194E1
1.400421971E1,-1.032882111E1,-2.749377640E1,-8.509953461E0,3.057795928E1
1.401414171E1,-2.312241669E0,-3.005045975E1,-3.892954559E0,3.038966416E1
1.402406471E1,-1.950444031E0,-2.658830933E1,-3.997736664E0,2.695782490E1
1.403398671E1,-4.396357727E0,-2.280223251E1,-4.397854614E0,2.363495069E1
1.404390871E1,-4.065695343E0,-2.031171158E1,-3.913162537E0,2.108099492E1
1.405383171E1,-3.889661407E0,-1.838057739E1,-4.348756714E0,1.928436611E1
1.406375371E1,-4.052522736E0,-1.637729324E1,-4.297263794E0,1.740991530E1
1.407367571E1,-2.774330750E0,-1.395907196E1,-3.341201935E0,1.461903661E1
1.408359871E1,-2.258802795E-1,-1.139699982E1,-2.130968628E0,1.159670876E1
1.409352071E1,2.239193573E0,-9.332043915E0,-1.076261902E0,9.657089166E0
1.410344371E1,4.004023590E0,-7.588918762E0,-7.450007629E-1,8.612718446E0
1.411336571E1,4.537663879E0,-5.144052887E0,3.787124634E-2,6.859526793E0
1.412328771E1,3.612288208E0,-2.383493500E0,3.987707520E-1,4.346111535E0
1.413321071E1,2.061812439E0,-2.248324585E-1,-2.420466614E-1,2.088110810E0
1.414313271E1,3.671864319E-1,1.149010620E0,-1.052611084E0,1.600950148E0
1.415305471E1,-1.087638245E0,2.514321442E0,-1.782792664E0,3.268504084E0
1.416297771E1,-2.253264313E0,4.077520752E0,-2.270777893E0,5.182644864E0
1.417289971E1,-1.973346405E0,4.466711426E0,-2.384241943E0,5.434171201E0
1.418282271E1,-4.775070190E-2,3.176394653E0,-1.391805725E0,3.468268487E0
1.419274471E1,1.638492737E0,1.797162781E0,5.315446472E-1,2.489375870E0
1.420266671E1,2.098785553E0,9.059161377E-1,1.821412354E0,2.922862947E0
1.421258971E1,2.070494385E0,4.176315308E-1,2.005679169E0,2.912749907E0
1.422251171E1,1.714684296E0,-5.553451538E-2,1.154249725E0,2.067732755E0
1.423243471E1,1.030157776E0,-4.058061218E-1,-3.450325012E-1,1.159720259E0
1.424235671E1,-3.667373657E-2,-8.089178467E-1,-1.426383820E0,1.640202380E0
1.425227871E1,-1.533111877E0,-1.744023285E0,-1.298100586E0,2.660284642E0
1.426220171E1,-2.360591125E0,-2.877017212E0,-4.900808716E-1,3.753637937E0
1.427212371E1,-2.164648590E0,-3.606600037E0,6.047424316E-2,4.206771265E0
1.428204571E1,-1.907183990E0,-3.789968719E0,4.287084961E-1,4.264387956E0
1.429196871E1,-1.513502655E0,-3.411405945E0,5.405259705E-1,3.771014337E0
1.430189071E1,-8.211923218E-1,-2.558629303E0,3.954776001E-1,2.716126520E0
1.431181371E1,-3.794609070E-1,-1.265468445E0,1.113684082E-1,1.325821967E0
1.432173571E1,-2.857557678E-1,-2.095642090E-2,-1.618135071E-1,3.290579607E-1
1.433165771E1,-1.258882141E-1,8.677455139E-1,-3.243754578E-1,9.349061755E-1
1.434158071E1,2.185455322E-1,1.407672729E0,-5.894741821E-1,1.541682352E0
1.435150271E1,3.623963928E-1,1.386267242E0,-1.439257050E0,2.030893613E0
1.436142471E1,-7.661068726E-1,2.314187622E-1,-3.131338348E0,3.231989207E0
1.437134771E1,-2.877915344E0,-2.249821472E0,-5.965993652E0,6.995510964E0
1.438126971E1,-4.546794891E0,-5.746699677E0,-6.350394287E0,9.696669973E0
1.439119271E1,-3.864813080E0,-1.113025452E1,-4.040547638E0,1.245573647E1
1.440111471E1,7.664062500E-2,-2.255809021E1,-1.372346191E0,2.259992570E1
1.441103671E1,-1.159339142E0,-4.740132843E1,4.535568237E-1,4.741767306E1
1.442095971E1,3.858376465E0,-6.259383545E1,-6.277944946E-1,6.271578295E1
1.443088171E1,1.015847534E1,-3.434023911E1,-3.353775787E0,3.596796429E1
1.444080471E1,-5.890251160E0,-2.235735764E1,-7.154522095E0,2.420193557E1
1.445072671E1,-1.216699860E1,-3.335064697E1,-8.625962219E0,3.653366574E1
1.446064871E1,-6.769073639E0,-3.950090744E1,-5.148094482E0,4.040600108E1
1.447057171E1,-2.384990387E0,-3.168251587E1,-4.384382629E0,3.207324121E1
1.448049371E1,-3.253184967E0,-2.398028275E1,-4.183200989E0,2.455883433E1
1.449041571E1,-4.298161926E0,-1.941866867E1,-4.626578979E0,2.041969936E1
1.450033871E1,-4.727618866E0,-1.594753693E1,-4.882995758E0,1.733545389E1
1.451026071E1,-4.689597931E0,-1.287876846E1,-3.981270905E0,1.427254441E1
1.452018371E1,-3.917353821E0,-1.052910461E1,-3.076851654E0,1.164794922E1
1.453010571E1,-2.283800812E0,-8.534951477E0,-2.700384521E0,9.238680611E0
1.454002771E1,-9.532177734E-1,-6.407575378E0,-2.239642639E0,6.854315831E0
1.454995071E1,-1.399589539E-1,-4.280049591E0,-1.454225922E0,4.522519877E0
1.455987271E1,7.429051208E-1,-2.587668915E0,-6.676116943E-1,2.773741842E0
1.456979571E1,1.632954254E0,-1.418300629E0,-2.469863892E-1,2.176951664E0
1.457971771E1,1.962419128E0,-6.153703308E-1,4.984634399E-2,2.057244307E0
1.458963971E1,1.680106201E0,1.842668152E-1,-7.334747314E-2,1.691771544E0
1.459956271E1,1.261127472E0,1.045126648E0,-5.703140259E-1,1.734355874E0
1.460948471E1,1.120569763E0,1.364562378E0,-8.437953186E-1,1.956961322E0
1.461940671E1,1.199904785E0,9.541159058E-1,-7.035369873E-1,1.686734403E0
1.462933029E1,1.114731903E0,4.965174866E-1,-4.077520752E-1,1.286630710E0
1.463925229E1,9.095086670E-1,3.167413330E-1,-1.853146362E-1,9.807510396E-1
1.464917529E1,6.334826660E-1,9.295669556E-2,-8.128097534E-2,6.454051691E-1
1.465909729E1,3.721261597E-1,-2.377056885E-1,-1.981878662E-1,4.840044456E-1
1.466901929E1,-1.646575928E-2,-6.173162842E-1,-4.661306763E-1,7.737107491E-1
1.467894229E1,-6.508465576E-1,-9.732760620E-1,-6.511459351E-1,1.339723316E0
1.468886429E1,-1.325792999E0,-1.272803192E0,-5.541476440E-1,1.919592315E0
1.469878729E1,-1.847607880E0,-1.507066040E0,-1.149609375E-1,2.387073301E0
1.470870929E1,-1.970951385E0,-1.478625183E0,3.477268982E-1,2.488352023E0
1.471863129E1,-1.775607605E0,-1.146166534E0,6.776408386E-1,2.219386672E0
1.472855429E1,-1.551224213E0,-6.352789307E-1,9.060658264E-1,1.905473999E0
1.473847629E1,-1.347946930E0,-1.724414062E-1,9.605525208E-1,1.664138849E0
1.474839829E1,-1.186432800E0,1.134640503E-1,8.292755127E-1,1.451962381E0
1.475832129E1,-1.063388672E0,2.688409424E-1,6.111790466E-1,1.255631613E0
1.476824329E1,-1.173709259E0,3.532653809E-1,-1.236428833E-1,1.231940509E0
1.477816629E1,-2.064357147E0,3.353027344E-1,-9.050180054E-1,2.278827757E0
1.478808829E1,-3.811673584E0,-1.240919495E-1,-3.585044861E-1,3.830506466E0
1.479801029E1,-5.200335846E0,-1.202150116E0,6.077362061E-2,5.337822706E0
1.480793329E1,-4.882995758E0,-2.650837555E0,1.794917450E0,5.838862558E0
1.481785529E1,6.460565186E-1,-4.744982758E0,-9.601034546E-1,4.884060712E0
1.482777829E1,4.925207977E0,-8.260122986E0,-2.651885376E0,9.975961177E0
1.483770029E1,2.771486664E0,-1.630334702E1,-3.777694244E0,1.696323189E1
1.484762229E1,-4.017794952E0,-3.871459259E1,-1.072055649E1,4.037192945E1
1.485754529E1,-1.779050446E1,-6.475549026E1,-4.844076691E0,6.732934462E1
1.486746729E1,-5.851332092E0,-5.050153152E1,-4.602030029E0,5.104724727E1
1.487739029E1,-8.028404846E0,-3.702790009E1,-1.108205475E1,3.947572174E1
1.488731229E1,-5.787864075E0,-4.027240311E1,-1.264675095E1,4.260640952E1
1.489723429E1,2.932551727E0,-3.757905396E1,-6.521039429E0,3.825322354E1
1.490715729E1,3.465293884E-1,-2.918974960E1,-2.791544952E0,2.932497720E1
1.491707929E1,-4.813540192E0,-2.195709000E1,-1.060394897E0,2.250351989E1
1.492700129E1,-6.708898773E0,-1.694910416E1,-1.076411591E0,1.826034272E1
1.493692429E1,-7.497159576E0,-1.321197556E1,-1.836081848E0,1.530146713E1
1.494684629E1,-7.644453278E0,-1.001282822E1,-2.821482697E0,1.290949881E1
1.495676929E1,-6.545139313E0,-7.293283539E0,-2.971770172E0,1.024022711E1
1.496669129E1,-4.684508514E0,-4.557572479E0,-2.655328217E0,7.054562698E0
1.497661329E1,-2.665806427E0,-2.281705170E0,-2.326312408E0,4.210039407E0
1.498653629E1,-5.143304443E-1,-3.414399719E-1,-1.454974365E0,1.580527590E0
1.499645829E1,1.501078491E0,1.311722260E0,-5.798941040E-1,2.076085040E0
1.500638129E1,3.515439606E0,2.320025482E0,-1.856140137E-1,4.216074765E0
1.501630329E1,5.024002533E0,2.489024048E0,-3.272195435E-1,5.616307932E0
1.502622529E1,5.853727112E0,1.908082123E0,-1.125359802E0,6.258860373E0
1.503614829E1,5.810766449E0,7.732919312E-1,-2.302212524E0,6.297870247E0
1.504607029E1,5.447471924E0,-3.685336304E-1,-2.639610901E0,6.064512602E0
1.505599329E1,4.988376617E0,-1.225351868E0,-2.063159637E0,5.535523116E0
1.506591529E1,4.093687134E0,-1.580263824E0,-1.808539124E0,4.746190248E0
1.507583729E1,2.879861298E0,-1.356179810E0,-1.642983398E0,3.582208706E0
1.508576029E1,1.771865387E0,-1.031804352E0,-1.246158600E0,2.399382926E0
1.509568229E1,1.062340851E0,-9.469308472E-1,-7.637118530E-1,1.615085727E0
1.510560429E1,8.132588196E-1,-1.049617310E0,-2.781216431E-1,1.356627455E0
1.511552729E1,6.259982300E-1,-1.173260193E0,1.257385254E-1,1.335748270E0
1.512544929E1,1.206491089E-1,-1.101409607E0,4.567002869E-1,1.198430007E0
1.513537229E1,-5.486091614E-1,-7.738906860E-1,9.128018188E-1,1.316467230E0
1.514529429E1,-1.131946106E0,-5.221142578E-1,1.424587555E0,1.892975168E0
1.515521629E1,-1.583257599E0,-4.340972900E-1,1.846110992E0,2.470479888E0
1.516513929E1,-1.923649750E0,-4.251159668E-1,1.906136169E0,2.741260119E0
1.517506129E1,-2.043700104E0,-3.080593872E-1,1.482217712E0,2.543340333E0
1.518498429E1,-2.189945984E0,-5.014572144E-2,8.125103760E-1,2.336354236E0
1.519490629E1,-2.196083221E0,4.969665527E-2,8.198451233E-1,2.344652917E0
1.520482829E1,-1.919608154E0,-4.176315308E-2,9.617500305E-1,2.147464260E0
1.521475129E1,-1.469793549E0,-3.562591553E-1,7.220983887E-1,1.675899682E0
1.522467329E1,-1.536105652E0,-1.057999878E0,-1.222956848E-1,1.869208536E0
1.523459629E1,-2.833008728E0,-1.820813599E0,-2.957100677E0,4.481712288E0
1.524451829E1,-4.462969208E0,-3.616928558E0,-6.806495819E0,8.906663330E0
1.525444029E1,-3.747008057E0,-7.953111420E0,-8.748407593E0,1.240268866E1
1.526436329E1,-2.499352570E0,-1.632909348E1,-4.512366486E0,1.712447104E1
1.527428529E1,-5.176385651E0,-3.811538864E1,-7.967930603E-1,3.847353245E1
1.528420729E1,-4.502786407E0,-6.491850128E1,1.889071655E-1,6.507474610E1
1.529413029E1,2.412084045E0,-5.777969650E1,-1.274374924E1,5.921751955E1
1.530405229E1,-9.504635010E0,-3.391856598E1,-1.317245773E1,3.760745734E1
1.531397529E1,-1.044617706E1,-3.165407501E1,-8.125103760E0,3.430918815E1
1.532389729E1,-5.132526855E0,-3.426105377E1,-3.836821289E0,3.485518376E1
1.533381929E1,-4.465813293E0,-2.843606689E1,-1.711690521E0,2.883545167E1
1.534374229E1,-6.476881256E0,-2.053115524E1,2.724334717E-2,2.152856402E1
1.535366429E1,-7.954907684E0,-1.465946548E1,6.451583862E-2,1.667886827E1
1.536358729E1,-7.608228607E0,-1.178454391E1,-1.031654663E0,1.406502503E1
1.537350929E1,-6.149961090E0,-1.069076843E1,-2.125729523E0,1.251532169E1
1.538343129E1,-4.216282196E0,-9.024882660E0,-2.835553436E0,1.035692550E1
1.539335429E1,-1.907782745E0,-6.749464417E0,-2.228116608E0,7.359307612E0
1.540327629E1,5.804928589E-1,-4.886438599E0,-1.690883789E0,5.203204986E0
1.541319929E1,2.862647095E0,-3.213068390E0,-1.797013092E0,4.663455041E0
1.542312129E1,4.420906677E0,-1.654808807E0,-1.530267792E0,4.962310707E0
1.543304329E1,4.413721619E0,4.834945679E-2,-3.721261597E-1,4.429644915E0
1.544296629E1,3.747008057E0,1.382525024E0,3.442840576E-3,3.993927475E0
1.545288829E1,2.719993744E0,8.228388977E-1,-1.221909027E0,3.093297834E0
1.546281129E1,1.205592957E0,-4.505630493E-1,-4.230352936E0,4.421803636E0
1.547273329E1,7.110214233E-2,-9.062155151E-1,-6.436016235E0,6.499891311E0
1.548265529E1,1.971400452E-1,-1.002764740E0,-6.333479462E0,6.415400487E0
1.549257829E1,8.354127502E-1,-6.577322388E-1,-5.317691803E0,5.422948670E0
1.550250029E1,1.330732727E0,-7.053332520E-1,-4.647385712E0,4.885339143E0
1.551242229E1,2.017953644E0,-8.493338013E-1,-3.042722626E0,3.748555161E0
1.552234529E1,2.846181335E0,-4.333488464E-1,-8.123606873E-1,2.991399222E0
1.553226729E1,2.977907410E0,-1.025367737E-1,4.417314148E-1,3.012237204E0
1.554219029E1,2.385289764E0,-2.444416809E-1,7.475454712E-1,2.511609688E0
1.555211229E1,1.110839996E0,-3.237767029E-1,1.275946655E0,1.722450788E0
1.556203429E1,-4.806504822E-1,-2.019300842E-1,2.203567657E0,2.264400818E0
1.557195729E1,-1.811532898E0,-1.568737793E-1,3.264112244E0,3.736400616E0
1.558187929E1,-2.654430084E0,-3.855981445E-1,3.840264130E0,4.684262331E0
1.559180229E1,-2.695295105E0,-6.360273743E-1,3.685635681E0,4.610103784E0
1.560172429E1,-1.869013367E0,-3.222798157E-1,3.334615631E0,3.836239911E0
1.561164629E1,-1.013242950E0,2.511776733E-1,2.375110931E0,2.594398473E0
1.562156929E1,-2.594105530E-1,6.279441833E-1,1.054856415E0,1.254722993E0
1.563149154E1,3.447331238E-1,5.906716919E-1,1.519340515E-1,7.005839923E-1
1.564141454E1,-1.510359192E-1,-6.481521606E-2,-8.030799866E-1,8.197257626E-1
1.565133654E1,-9.993218994E-1,-1.171014862E0,-3.026556244E0,3.395579886E0
1.566125854E1,-1.696871338E0,-3.300336914E0,-5.836213531E0,6.916139419E0
1.567118154E1,-2.372865601E0,-7.526498566E0,-5.362598419E0,9.541285743E0
1.568110354E1,-1.388512573E0,-1.396176636E1,-1.510508881E0,1.411171584E1
1.569102654E1,5.974076843E-1,-3.094634674E1,-2.036515045E0,3.101903716E1
1.570094854E1,-2.595602417E0,-5.792115234E1,-1.625020752E0,5.800204939E1
1.571087054E1,6.341263275E0,-5.944812698E1,-7.528294830E0,6.025750281E1
1.572079354E1,1.141077118E0,-3.572905106E1,-1.201027451E1,3.771092468E1
1.573071554E1,-1.116094070E1,-3.113330795E1,-1.233719467E1,3.529951606E1
1.574063854E1,-8.359067230E0,-3.557427292E1,-9.873318329E0,3.785347162E1
1.575056054E1,-5.083428955E0,-3.425776062E1,-7.001839600E0,3.533357002E1
1.576048254E1,-7.200177155E0,-2.812216965E1,-5.434748383E0,2.953363281E1
1.577040554E1,-8.905431061E0,-2.255719208E1,-3.930227051E0,2.456787133E1
1.578032754E1,-8.878337402E0,-1.772553955E1,-3.376827850E0,2.011026091E1
1.579025054E1,-8.447533264E0,-1.345926132E1,-3.666924591E0,1.630824545E1
1.580017254E1,-7.908055115E0,-9.380093994E0,-3.002007294E0,1.263073817E1
1.581009454E1,-6.921007690E0,-5.520819397E0,-1.800904999E0,9.034547752E0
1.582001754E1,-4.885989532E0,-3.087479553E0,-1.187181244E0,5.900408715E0
1.582993954E1,-1.958078156E0,-2.264790344E0,-6.056405640E-1,3.054528746E0
1.583986254E1,6.334826660E-1,-1.880838776E0,4.324507141E-1,2.031223377E0
1.584978454E1,2.412233734E0,-9.457333374E-1,1.691781921E0,3.094415810E0
1.585970654E1,3.466042328E0,2.145039368E-1,2.497256927E0,4.277353565E0
1.586962954E1,3.603606262E0,7.843688965E-1,2.185155945E0,4.286737590E0
1.587955154E1,3.253334656E0,6.297404480E-1,1.075214081E0,3.483797459E0
1.588947454E1,2.507585449E0,1.128652954E-1,-7.424560547E-2,2.511221967E0
1.589939654E1,1.218466187E0,-6.393205261E-1,-8.800199890E-1,1.633348023E0
1.590931854E1,-9.145980835E-2,-9.494755554E-1,-7.807763672E-1,1.232672082E0
1.591924154E1,-5.575904846E-1,-1.019380188E0,-3.966751099E-1,1.227759854E0
1.592916354E1,-4.210743713E-1,-1.217568054E0,-3.535647583E-1,1.335957945E0
1.593908654E1,1.107696533E-2,-1.049168243E0,-7.038363647E-1,1.263432757E0
1.594900854E1,3.823049927E-1,-8.584648132E-1,-1.317560120E0,1.618358308E0
1.595893054E1,6.276448059E-1,-7.426057434E-1,-1.910477142E0,2.143670731E0
1.596885354E1,4.558021545E-1,-5.718109131E-1,-1.932032318E0,2.065786098E0
1.597877554E1,-1.877096558E-1,-4.713697815E-1,-1.233884125E0,1.334126838E0
1.598869754E1,-9.741741943E-1,-5.215155029E-1,-4.966671753E-1,1.211475160E0
1.599862054E1,-1.670526123E0,-7.406597900E-1,-5.987548828E-4,1.827357330E0
1.600854254E1,-1.983076172E0,-1.017284546E0,3.439846802E-1,2.255168378E0
1.601846554E1,-1.844913483E0,-9.882449341E-1,6.412664795E-1,2.188962427E0
1.602838754E1,-1.517993317E0,-6.071374512E-1,9.418414307E-1,1.886792218E0
1.603830954E1,-9.987231445E-1,-1.061293030E-1,1.323098602E0,1.661114463E0
1.604823254E1,-2.589614868E-1,2.713856506E-1,1.722917175E0,1.763279563E0
1.605815454E1,1.803749084E-1,5.495072937E-1,1.397044830E0,1.512027656E0
1.606807754E1,-1.002914429E-1,9.080117798E-1,2.784210205E-1,9.550193874E-1
1.607799954E1,-1.360520782E0,6.665638733E-1,-1.143023071E0,1.897847712E0
1.608792154E1,-2.758314056E0,-6.402186584E-1,-2.600392456E0,3.844504817E0
1.609784454E1,-3.176244965E0,-2.991529083E0,-3.296145630E0,5.468304522E0
1.610776654E1,-1.642983398E0,-6.702911224E0,-3.223097534E0,7.616874099E0
1.611768954E1,4.050576782E-1,-1.284179535E1,-5.239105225E-3,1.284818302E1
1.612761154E1,-1.756597137E0,-2.398806656E1,-1.047072601E0,2.407507698E1
1.613753354E1,-3.792064362E0,-4.484838730E1,-8.940308533E0,4.588776212E1
1.614745654E1,5.568121033E0,-5.629283844E1,-1.087728058E1,5.760384418E1
1.615737854E1,4.191733246E0,-4.551495117E1,-9.179511108E0,4.662021913E1
1.616730154E1,-4.434528351E0,-3.901142532E1,-8.630003815E0,4.019991683E1
1.617722354E1,-3.030148773E0,-3.956766861E1,-9.459129639E0,4.079531020E1
1.618714554E1,-2.077080688E0,-3.657943268E1,-7.169640656E0,3.733326809E1
1.619706854E1,-4.299209747E0,-2.869173523E1,-5.758225708E0,2.957796542E1
1.620699054E1,-6.616840210E0,-1.963152603E1,-4.342918854E0,2.116696324E1
1.621691354E1,-8.362809448E0,-1.294103897E1,-3.045566711E0,1.570613091E1
1.622683554E1,-9.215436401E0,-9.153016205E0,-2.879262543E0,1.330383879E1
1.623675754E1,-9.055568848E0,-6.473588104E0,-2.695893860E0,1.145331890E1
1.624668054E1,-8.503666534E0,-4.717589722E0,-2.403701477E0,1.001727399E1
