"Time (s)","Acceleration x (m/s^2)","Acceleration y (m/s^2)","Acceleration z (m/s^2)","Absolute acceleration (m/s^2)"
1.343916665E-3,-5.362598419E0,-2.129082550E1,-6.735992432E-1,2.196612046E1
1.126491665E-2,-2.254162445E0,-1.752839951E1,-1.921853485E0,1.777693895E1
2.118591667E-2,-3.383713531E0,-9.228159943E0,1.414558411E0,9.930228028E0
3.110691666E-2,4.868026886E0,-9.727222137E0,5.885760498E-1,1.089325287E1
4.102791665E-2,5.696853333E0,-1.031549881E1,1.649569702E-1,1.178519683E1
5.094991665E-2,1.895059204E-1,-1.070274353E0,5.676645355E0,5.779766619E0
6.087091667E-2,4.729415131E0,-7.244934082E-2,3.315605164E0,5.776318376E0
7.079191666E-2,1.661050827E1,-2.105192230E1,-5.230722656E0,2.732128981E1
8.071291665E-2,1.815709213E1,-1.917392761E1,-6.142626343E0,2.711183050E1
9.063391667E-2,6.911128235E0,-1.112291977E1,-5.550607452E0,1.422294909E1
1.005549167E-1,2.362088013E0,-8.643625488E0,-3.345393219E0,9.564694305E0
1.104759166E-1,3.742966461E0,-8.256231079E0,-2.589614868E-1,9.068749121E0
1.203969167E-1,4.484075317E0,-9.782906342E0,2.303559723E0,1.100538847E1
1.303189167E-1,4.608466644E0,-1.029873367E1,3.020718384E0,1.168018063E1
1.402399167E-1,3.367696838E0,-8.801846466E0,2.344424744E0,9.711344427E0
1.501609167E-1,2.179318085E0,-7.866591339E0,1.473236389E0,8.294764136E0
1.600819167E-1,1.516346741E0,-7.791297913E0,3.445834351E-1,7.944958675E0
1.700029167E-1,4.981640625E-1,-7.257507935E0,-2.888992310E-1,7.280319472E0
1.799239167E-1,-2.396516418E-1,-7.592960358E0,-1.691482544E-1,7.598624286E0
1.898449167E-1,-1.371298370E0,-7.995623016E0,1.808239746E-1,8.114378839E0
1.997659167E-1,-1.672921143E0,-8.068521423E0,1.374142456E-1,8.241273311E0
2.096879166E-1,-1.533560944E0,-9.158704376E0,-2.538720703E-1,9.289678468E0
2.196089167E-1,-9.128018188E-1,-1.077339661E1,1.218466187E-1,1.081268367E1
2.295299167E-1,-6.010002136E-1,-1.433254532E1,2.405497742E-1,1.434715724E1
2.394509166E-1,3.821553040E-1,-1.608345428E1,-8.741821289E-2,1.608823130E1
2.493719167E-1,1.193318481E0,-1.704535400E1,6.144721985E-1,1.709811914E1
2.592929167E-1,1.511257324E0,-1.707139984E1,8.913963318E-1,1.716132800E1
2.692139167E-1,3.754193115E-1,-9.940827942E0,1.348096619E0,1.003884278E1
2.791349167E-1,-1.390308838E0,-2.874023438E0,3.624263306E0,4.829933115E0
2.890569167E-1,-2.797682190E0,-2.140548706E-1,5.951324158E0,6.579597583E0
2.989779167E-1,-7.345225525E-1,-1.167721710E0,6.293213196E0,6.442641516E0
3.088989167E-1,2.935844879E0,-9.792636108E-1,6.002368011E0,6.753263220E0
3.188199167E-1,5.892346802E0,-1.900148621E0,4.652924194E0,7.744676828E0
3.287409167E-1,6.270610199E0,-5.013374634E0,3.689826965E0,8.835683365E0
3.386619167E-1,6.318211212E0,-6.429429932E0,3.517984314E0,9.676444378E0
3.485829167E-1,7.024143219E0,-6.926246796E0,4.255949707E0,1.074358369E1
3.585039167E-1,8.194559326E0,-7.509583740E0,5.157973938E0,1.225354421E1
3.684259166E-1,9.068142700E0,-8.648265839E0,6.083499298E0,1.392956129E1
3.783469167E-1,9.331744537E0,-1.049722092E1,6.842720490E0,1.562356959E1
3.882679167E-1,9.450896759E0,-1.261187347E1,6.731202393E0,1.713732440E1
3.981889167E-1,8.797056427E0,-1.399754196E1,5.382656708E0,1.738655734E1
4.081099167E-1,7.260801086E0,-1.416908524E1,4.169729004E0,1.645809372E1
4.180309167E-1,6.278693390E0,-1.309402084E1,3.598067780E0,1.496066390E1
4.279519167E-1,5.956263885E0,-1.036339920E1,2.816842346E0,1.228054247E1
4.378729167E-1,4.985831909E0,-8.339308319E0,1.764680328E0,9.875053404E0
4.477949167E-1,3.967050476E0,-8.693771210E0,3.053649902E-2,9.556154028E0
4.577159167E-1,3.844904480E0,-1.136077515E1,-9.376501465E-1,1.203036534E1
4.676369167E-1,3.257675629E0,-1.438957672E1,-2.190095673E0,1.491539097E1
4.775579167E-1,2.945874023E-1,-1.697769470E1,-1.925595703E0,1.708908476E1
4.874789166E-1,-1.562450867E0,-2.161400345E1,-1.713935852E-1,2.167108150E1
4.973999167E-1,-2.757415924E0,-2.411410446E1,4.671784973E-1,2.427574164E1
5.073209167E-1,-5.217250671E0,-1.793345718E1,-1.201551361E0,1.871556349E1
5.172419166E-1,-7.073690186E0,-9.808503113E0,-1.240470428E0,1.215658641E1
5.271639167E-1,-6.261479187E0,-6.709198151E0,-5.158273315E-1,9.191601562E0
5.370849167E-1,-5.417234802E0,-7.378157043E0,6.897656250E-1,9.179292504E0
5.470059167E-1,-4.536765747E0,-1.066606979E1,2.011217651E0,1.176402502E1
5.569269167E-1,-3.227139130E0,-1.251831802E1,3.138523407E0,1.330312152E1
5.668479167E-1,-2.406844940E0,-1.180624878E1,3.773203583E0,1.262606344E1
5.767689167E-1,-2.476749573E0,-1.088641159E1,4.364474030E0,1.198736332E1
5.866899167E-1,-1.879491577E0,-1.025816803E1,4.464466095E0,1.134433592E1
5.966109167E-1,-1.091081085E0,-9.916728058E0,4.287983093E0,1.085904012E1
6.065329167E-1,-2.607577515E-1,-9.667496338E0,3.838168488E0,1.040480742E1
6.164539166E-1,7.288343811E-1,-9.497449951E0,2.944526825E0,9.970104982E0
6.263749167E-1,6.803352356E-1,-9.046886902E0,1.272204437E0,9.161196580E0
6.362959167E-1,7.942483521E-1,-8.764274597E0,-2.564167786E-1,8.803924649E0
6.462169166E-1,1.333576813E0,-8.115523682E0,-5.908213806E-1,8.245557692E0
6.561379167E-1,2.634371796E0,-7.243886261E0,8.140072632E-1,7.750897415E0
6.660589167E-1,4.510719910E0,-5.999823303E0,3.756887512E0,8.393966735E0
6.759799167E-1,3.366050262E0,-7.088509369E0,4.471501465E0,9.031698887E0
6.859019167E-1,2.623594208E0,-8.111182709E0,3.272494812E0,9.131470517E0
6.958229167E-1,1.713786163E0,-8.039781189E0,1.721719666E0,8.398777482E0
7.057439167E-1,2.028581543E0,-7.353009338E0,7.686515808E-1,7.666336456E0
7.156649167E-1,2.566562805E0,-6.432723083E0,1.686842194E0,7.128296254E0
7.255859167E-1,2.640509033E0,-6.092330933E0,1.699715424E0,6.854036524E0
7.355069167E-1,2.251318359E0,-6.522236938E0,1.689536591E0,7.103699242E0
7.454279167E-1,1.288370819E0,-7.415579224E0,1.679657135E0,7.711806707E0
7.553490417E-1,9.674382019E-1,-8.150101776E0,2.027833099E0,8.454123415E0
7.652710417E-1,1.077758789E0,-8.784033508E0,2.045496368E0,9.083218817E0
7.751920416E-1,1.142274628E0,-9.220076752E0,2.355052643E0,9.584408150E0
7.851130417E-1,9.958790588E-1,-9.367969208E0,2.543211365E0,9.757999089E0
7.950340417E-1,5.002597046E-1,-9.068891144E0,2.665207672E0,9.465641990E0
8.049550416E-1,3.091072083E-1,-8.779093781E0,3.031645660E0,9.292949493E0
8.148760417E-1,4.647834778E-1,-8.919202423E0,2.981050873E0,9.415670972E0
8.247970417E-1,1.071022797E0,-9.519005127E0,3.150049438E0,1.008371756E1
8.347180417E-1,8.173004150E-1,-9.676028595E0,3.574566650E0,1.034751352E1
8.446400417E-1,2.646496582E-1,-9.400451660E0,3.534749451E0,1.004654092E1
8.545610417E-1,5.044509888E-2,-8.850944366E0,3.531156921E0,9.529471658E0
8.644820417E-1,1.297801208E-1,-8.190817108E0,3.722608795E0,8.998007781E0
8.744030417E-1,8.150550842E-1,-7.598349152E0,3.758833466E0,8.516340390E0
8.843240417E-1,1.703008575E0,-6.844367065E0,3.882925415E0,8.051255089E0
8.942450417E-1,2.070793762E0,-6.301595764E0,4.032913513E0,7.762904571E0
9.041660417E-1,2.089504852E0,-6.050268402E0,4.116140442E0,7.610150485E0
9.140870417E-1,1.709594879E0,-6.233038330E0,4.177812195E0,7.695946739E0
9.240090417E-1,8.204438782E-1,-6.914720764E0,4.476590881E0,8.278064830E0
9.339300417E-1,-7.768844604E-2,-8.419541473E0,4.827012177E0,9.705398532E0
9.438510417E-1,-1.621128845E-1,-9.545350342E0,5.411846008E0,1.097397243E1
9.537720417E-1,1.889071655E-1,-1.010264145E1,5.784271545E0,1.164288828E1
9.636930417E-1,8.333171082E-1,-9.649982758E0,6.020480347E0,1.140450649E1
9.736140417E-1,1.047072601E0,-9.176068268E0,6.316265259E0,1.118891401E1
9.835350417E-1,6.824308777E-1,-9.193731537E0,6.164031830E0,1.108989179E1
9.934560417E-1,1.539548492E0,-8.146209869E0,6.451733551E0,1.050503739E1
1.003378042E0,2.635269928E0,-7.092401276E0,5.876779175E0,9.580362045E0
1.013299042E0,3.149300995E0,-7.220684509E0,5.061873779E0,9.363703738E0
1.023220042E0,3.600313110E0,-8.183931427E0,2.815794525E0,9.373776555E0
1.033141042E0,3.714675293E0,-8.812773743E0,-9.532177734E-1,9.611057054E0
1.043062042E0,2.416275330E0,-9.775122528E0,-3.646267548E0,1.070918643E1
1.052983042E0,-6.545887756E-1,-1.117261642E1,-3.620820465E0,1.176291567E1
1.062904042E0,-3.784130859E0,-1.337124435E1,-2.738405457E0,1.416363959E1
1.072825042E0,-6.036946106E0,-1.719668930E1,-4.830455017E-1,1.823195475E1
1.082747042E0,-7.581883392E0,-2.259461426E1,2.281256104E0,2.394171420E1
1.092668042E0,-7.521109772E0,-2.656540695E1,3.708388367E0,2.785749599E1
1.102589042E0,-5.995482330E0,-2.605886032E1,1.482068024E0,2.678071200E1
1.112510042E0,-4.567451935E0,-2.291240341E1,-1.080153809E0,2.338817179E1
1.122431042E0,-1.222208405E0,-1.775936920E1,-2.359992371E0,1.795713095E1
1.132352042E0,2.875969391E0,-1.311063629E1,-3.077151031E0,1.377057887E1
1.142273042E0,5.807024231E0,-1.057146652E1,-3.014730835E0,1.243245900E1
1.152194042E0,7.265890503E0,-9.542356567E0,-2.908751221E0,1.234141675E1
1.162116042E0,6.731801147E0,-9.169481964E0,-2.346221008E0,1.161470186E1
1.172037042E0,5.095853119E0,-8.606652374E0,-1.572330322E0,1.012493984E1
1.181958042E0,3.973786469E0,-7.582631836E0,-9.871971130E-1,8.617531120E0
1.191879042E0,1.914818115E0,-6.613996124E0,-4.671784973E-1,6.901429482E0
1.201800042E0,2.139051819E-1,-5.944288788E0,-2.496807861E-1,5.953374263E0
1.211721042E0,-5.716612244E-1,-5.710774384E0,2.401007080E-1,5.744335381E0
1.221642042E0,-7.421566772E-1,-5.430856476E0,3.592529297E-1,5.493092140E0
1.231564042E0,-5.953120422E-1,-5.143304443E0,3.415896606E-1,5.188897814E0
1.241485042E0,-7.577243042E-1,-4.849166107E0,1.242266693E0,5.062784273E0
1.251406042E0,-1.113384705E0,-4.448299713E0,1.898801422E0,4.963108167E0
1.261327042E0,-1.664239197E0,-3.998934174E0,1.762434998E0,4.676253174E0
1.271248042E0,-1.951641541E0,-3.609294434E0,1.646725616E0,4.421268626E0
1.281169042E0,-2.139201508E0,-3.427871704E0,1.269510040E0,4.235344526E0
1.291090042E0,-2.239343262E0,-3.504362640E0,1.296154633E0,4.356057000E0
1.301011042E0,-2.226470032E0,-3.955225067E0,2.188449097E0,5.038877214E0
1.310933042E0,-2.122586060E0,-4.418811035E0,3.437601471E0,5.987350534E0
1.320854042E0,2.297721863E-1,-4.756209412E0,2.604434052E0,5.427467177E0
1.330775042E0,4.101470947E-1,-5.595813446E0,9.982740784E-1,5.698938489E0
1.340696042E0,4.417314148E-1,-6.552024994E0,1.583706665E-1,6.568808068E0
1.350617042E0,1.266216888E0,-7.441175995E0,-3.071612549E-1,7.554386370E0
1.360538042E0,2.065554657E0,-8.185578003E0,-1.013392639E-1,8.442776376E0
1.370459042E0,3.118016052E0,-9.165889435E0,7.192543030E-1,9.708392245E0
1.380380042E0,4.376598816E0,-1.032702484E1,2.129621429E0,1.141653830E1
1.390302042E0,6.160588989E0,-1.127425507E1,4.013753357E0,1.346001114E1
1.400223042E0,8.526269531E0,-1.168185745E1,5.758674774E0,1.556680445E1
1.410144042E0,1.113115265E1,-1.148965714E1,7.045548706E0,1.748011833E1
1.420065042E0,1.305674835E1,-1.100975510E1,7.128326569E0,1.850692909E1
1.429986042E0,1.309057800E1,-1.053194870E1,5.687422943E0,1.773786784E1
1.439907042E0,1.106873245E1,-1.038495438E1,4.384083252E0,1.579823729E1
1.449828042E0,8.771759033E0,-1.099508560E1,4.017345886E0,1.462787517E1
1.459749042E0,6.945856018E0,-1.157962006E1,4.406237183E0,1.420378269E1
1.469671042E0,4.951253815E0,-1.169353317E1,5.149142303E0,1.370282084E1
1.479592042E0,3.693868561E0,-1.132320328E1,4.981191559E0,1.291014588E1
1.489513042E0,3.739074554E0,-1.010608429E1,3.888763275E0,1.145583249E1
1.499434042E0,3.773652649E0,-8.525970154E0,2.593506775E0,9.677752775E0
1.509355042E0,3.608995056E0,-7.581134949E0,5.924679565E-1,8.417212763E0
1.519276042E0,4.960833893E0,-7.429500275E0,-1.429676971E0,9.047172126E0
1.529197042E0,4.443210297E0,-8.268355865E0,-1.988464966E0,9.594885063E0
1.539118042E0,3.882176971E0,-1.090916428E1,-1.658401337E0,1.169749795E1
1.549040042E0,3.589385834E0,-1.616997437E1,-1.213676147E0,1.660797313E1
1.558961042E0,3.450325012E-1,-2.463576965E1,2.814147949E-2,2.463820176E1
1.568882042E0,-5.072801056E0,-3.041614929E1,4.355941772E-1,3.083934485E1
1.578803042E0,-8.810678101E0,-2.464999008E1,-1.405726776E0,2.621499814E1
1.588724042E0,-7.149732056E0,-1.083791245E1,-2.340532837E0,1.319307048E1
1.598645042E0,-4.463567963E0,-6.724765778E0,5.809419250E-1,8.092181859E0
1.608566042E0,-3.732338562E0,-7.835456085E0,3.430865479E0,9.332500262E0
1.618488042E0,-3.645668793E0,-9.046288147E0,3.666026459E0,1.041950000E1
1.628409042E0,-3.442391510E0,-9.733509064E0,2.832110596E0,1.070570448E1
1.638330042E0,-2.748434601E0,-9.375004578E0,3.149001617E0,1.026454163E1
1.648251042E0,-2.394570465E0,-8.806337128E0,6.216123505E0,1.104199858E1
1.658172042E0,-5.115612030E0,-8.757239227E0,9.813143463E0,1.411228224E1
1.668093042E0,-5.102140045E0,-8.343649292E0,8.377329254E0,1.287742063E1
1.678014042E0,-2.482437744E0,-8.825347595E0,3.368445282E0,9.767071257E0
1.687935042E0,2.321222992E0,-9.704020386E0,-1.787433014E0,1.013661702E1
1.697857042E0,4.507277069E0,-9.798324280E0,-2.386936340E0,1.104627405E1
1.707778042E0,3.729195099E0,-9.862840118E0,-1.844763794E0,1.070446938E1
1.717699042E0,2.446662140E0,-9.840237122E0,-1.137185211E0,1.020341180E1
1.727620042E0,1.102307739E0,-9.461674347E0,6.780899048E-2,9.525910028E0
1.737541042E0,1.975891113E-2,-8.689430237E0,1.648072815E-1,8.691015458E0
1.747462042E0,-5.333409119E-1,-7.871531067E0,-6.092330933E-2,7.889814036E0
1.757383667E0,-7.837701416E-1,-7.376959534E0,2.025288391E-1,7.421242856E0
1.767304667E0,-7.430548096E-1,-7.218588867E0,7.625143433E-1,7.296683069E0
1.777226667E0,-1.514849854E-1,-6.837930450E0,1.972597961E0,7.118383473E0
1.787147667E0,9.166937256E-1,-6.083798676E0,2.570005646E0,6.667672962E0
1.797068667E0,1.493893433E0,-6.630611572E0,2.402204590E0,7.208835849E0
1.806989667E0,1.545835419E0,-7.496111755E0,2.339335327E0,8.003361067E0
1.816910667E0,1.649719391E0,-8.127199402E0,2.127974854E0,8.561613234E0
1.826831667E0,1.715133362E0,-8.784332886E0,1.964664459E0,9.163301432E0
1.836752667E0,1.977687378E0,-9.057814178E0,1.852697296E0,9.454508571E0
1.846674667E0,2.349065094E0,-9.337582397E0,1.884281616E0,9.811170626E0
1.856595667E0,2.094444580E0,-9.710157623E0,2.141297150E0,1.016164419E1
1.866516667E0,1.780547333E0,-9.854607239E0,2.359692993E0,1.028842960E1
1.876437667E0,1.352437592E0,-9.701026611E0,2.696791992E0,1.015931552E1
1.886358667E0,7.924520874E-1,-9.278455353E0,2.905158691E0,9.754878834E0
1.896279667E0,5.863307190E-1,-8.898545380E0,2.900218964E0,9.377588369E0
1.906200667E0,3.370989990E-1,-8.681197357E0,3.157982941E0,9.243899585E0
1.916121667E0,2.836601257E-1,-8.579259338E0,3.529510345E0,9.281249762E0
1.926043667E0,2.960842896E-1,-8.492589569E0,3.919000397E0,9.357900812E0
1.935964667E0,4.408332825E-1,-8.137228546E0,4.498295746E0,9.308248332E0
1.945885667E0,7.626640320E-1,-7.623347168E0,5.064418488E0,9.183975887E0
1.955806667E0,9.713301086E-1,-7.332352295E0,5.487588501E0,9.209804553E0
1.965727667E0,8.759783936E-1,-7.162455597E0,5.480852509E0,9.061338342E0
1.975648667E0,4.070036316E-1,-6.977590027E0,4.860392761E0,8.513273890E0
1.985569667E0,-3.628454590E-1,-7.301067352E0,4.164789276E0,8.413246164E0
1.995490667E0,-9.551637268E-1,-8.416398010E0,4.021537170E0,9.376612097E0
2.005412667E0,-8.208929443E-1,-9.694290619E0,4.261488190E0,1.062136608E1
2.015333667E0,-3.920347595E-1,-1.057431061E1,4.713248749E0,1.158380118E1
2.025254667E0,-4.939727783E-2,-1.093311447E1,5.040019226E0,1.203898775E1
2.035175667E0,4.293072510E-1,-1.017164795E1,5.248236237E0,1.145385133E1
2.045096667E0,1.520687714E0,-8.906478882E0,5.268144836E0,1.045902516E1
2.055017667E0,3.342399445E0,-8.096662903E0,4.793182526E0,9.985098043E0
2.064938667E0,4.499343567E0,-7.708370361E0,4.361180878E0,9.933929978E0
2.074859667E0,4.201313324E0,-7.583829346E0,3.623963928E0,9.396734313E0
2.084781667E0,3.540587311E0,-7.834857330E0,9.081614685E-1,8.645548285E0
2.094702667E0,2.573448486E0,-8.352630615E0,-1.319655762E0,8.839149656E0
2.104623667E0,9.889933777E-1,-8.715176697E0,-1.432970123E0,8.887396477E0
2.114544667E0,-8.913963318E-1,-9.699380035E0,-7.836204529E-1,9.771725616E0
2.124465667E0,-2.711162109E0,-1.219214630E1,-3.644920349E-1,1.249526654E1
2.134386667E0,-3.718118134E0,-1.592044327E1,1.032852173E0,1.638144377E1
2.144307667E0,-4.403542786E0,-2.022159897E1,2.602188721E0,2.085846687E1
2.154229667E0,-4.520299988E0,-2.349798569E1,2.751128998E0,2.408645167E1
2.164150667E0,-4.044738922E0,-2.480611542E1,1.138682098E0,2.515948871E1
2.174071667E0,-4.247417450E0,-2.446302887E1,2.005828857E-2,2.482903016E1
2.183992667E0,8.502319336E-2,-2.067216202E1,-1.852397919E0,2.075516537E1
2.193913667E0,4.816533966E0,-1.619422394E1,-3.688180389E0,1.729319412E1
2.203834667E0,7.570357361E0,-1.357691666E1,-3.560495911E0,1.594741696E1
2.213755667E0,9.141340485E0,-1.145642624E1,-3.068918152E0,1.497438034E1
2.223676667E0,9.087751923E0,-9.608518982E0,-2.672093353E0,1.349262595E1
2.233598667E0,7.595505066E0,-8.207133179E0,-2.225422211E0,1.140180846E1
2.243519667E0,5.910309448E0,-7.027885437E0,-2.444566498E0,9.502570013E0
2.253440667E0,4.312232666E0,-5.870641937E0,-2.396067352E0,7.668176190E0
2.263361667E0,3.144960022E0,-4.919968872E0,-2.288141785E0,6.271559620E0
2.273282667E0,2.147584076E0,-4.086801453E0,-1.573677521E0,4.877553118E0
2.283203667E0,1.365610199E0,-3.419788513E0,-5.309458923E-1,3.720450004E0
2.293124667E0,6.637197876E-1,-2.868484955E0,1.262474670E0,3.203524963E0
2.303046667E0,-5.403762817E-1,-2.592309265E0,2.886896667E0,3.917428521E0
2.312967667E0,-1.404229889E0,-2.789149933E0,3.637735291E0,4.794198262E0
2.322888667E0,-2.238145752E0,-3.272045746E0,3.810326385E0,5.498560442E0
2.332809667E0,-2.957400055E0,-3.719465332E0,4.002227325E0,6.212765971E0
2.342730667E0,-3.162772980E0,-4.349505157E0,4.070934448E0,6.744911810E0
2.352651667E0,-3.497177582E0,-5.473368073E0,4.025578766E0,7.641550464E0
2.362572667E0,-3.368145905E0,-6.466552734E0,3.970044250E0,8.301925226E0
2.372493667E0,-3.109034729E0,-7.421566772E0,2.872227173E0,8.543736843E0
2.382415667E0,-3.328179016E0,-8.135881348E0,1.705553284E0,8.954231004E0
2.392336667E0,-2.878065033E0,-8.774004364E0,4.593946838E-1,9.245401797E0
2.402257667E0,-1.938618622E0,-9.373956757E0,-5.604345703E-1,9.588711819E0
2.412178667E0,-6.905140686E-1,-9.734107819E0,-1.310973816E0,9.846233648E0
2.422099667E0,6.692582703E-1,-9.754615173E0,-1.566941528E0,9.902309305E0
2.432020667E0,2.222428436E0,-9.484876099E0,-9.026229858E-1,9.783495848E0
2.441941667E0,3.868106232E0,-9.005722504E0,1.745370483E-1,9.802843813E0
2.451862667E0,5.650150452E0,-8.512797546E0,1.429227905E0,1.031671530E1
2.461784667E0,6.985074463E0,-8.626111908E0,2.690355377E0,1.142099312E1
2.471705667E0,8.201744385E0,-8.443042603E0,4.457730103E0,1.258669683E1
2.481626667E0,9.057215424E0,-7.832162933E0,5.335205383E0,1.310878880E1
2.491547667E0,9.746831360E0,-6.988367615E0,5.184019775E0,1.306568270E1
2.501468667E0,9.870174866E0,-6.464906158E0,6.459966431E0,1.345163670E1
2.511389667E0,9.827812958E0,-7.110214233E0,7.502099304E0,1.426262767E1
2.521310667E0,9.784852295E0,-9.289382629E0,7.540269928E0,1.545611965E1
2.531232667E0,9.425599365E0,-1.116902390E1,6.910080414E0,1.616595897E1
2.541153667E0,7.815098419E0,-1.147079636E1,6.696923676E0,1.541115567E1
2.551074667E0,6.102809143E0,-1.108055786E1,6.251000977E0,1.411021102E1
2.560995667E0,5.880371704E0,-9.858349457E0,5.232369232E0,1.261520960E1
2.570916667E0,4.922962646E0,-8.294252014E0,3.952380981E0,1.042360269E1
2.580837667E0,4.013603668E0,-7.547005920E0,1.456770630E0,8.671129882E0
2.590758667E0,5.274731140E0,-8.115523682E0,-2.793640594E0,1.007417198E1
2.600679667E0,4.489314423E0,-1.059062668E1,-4.332141266E0,1.229157294E1
2.610601667E0,3.983067169E0,-1.548844162E1,-3.546125793E0,1.638083197E1
2.620522667E0,2.978955231E0,-2.240301270E1,-6.280938721E-1,2.260892863E1
2.630443667E0,-9.663903809E-1,-3.066807541E1,1.185384979E0,3.070618663E1
2.640364667E0,-5.254822540E0,-3.071702362E1,3.104544067E-1,3.116480518E1
2.650285667E0,-6.068530426E0,-1.511481857E1,-1.986369324E0,1.640824382E1
2.660206667E0,-4.402944031E0,-4.721182251E0,-1.281934204E0,6.581704436E0
2.670127667E0,-3.453917542E0,-4.619992676E0,2.035467224E0,6.116944133E0
2.680049667E0,-2.833457794E0,-7.033423920E0,4.814887390E0,8.982242242E0
2.689970667E0,-3.001109161E0,-8.240214386E0,5.007237396E0,1.009852542E1
2.699891667E0,-2.392325134E0,-7.462731171E0,3.599864044E0,8.624070803E0
2.709812667E0,-1.758094025E0,-7.835306396E0,2.710563354E0,8.475262511E0
2.719733667E0,-2.235301666E0,-8.791517944E0,2.606529694E0,9.438292131E0
2.729654667E0,-1.952988739E0,-9.911039886E0,3.527265015E0,1.069974183E1
2.739575667E0,-1.872306519E0,-1.157408157E1,5.383854218E0,1.290158061E1
2.749496667E0,-2.400258636E0,-1.344040054E1,3.864962769E0,1.418955762E1
2.759418542E0,2.275268555E-1,-1.491648102E1,8.137078857E-1,1.494039139E1
2.769339542E0,2.801424408E0,-1.477427673E1,-1.714384918E0,1.513493797E1
2.779260542E0,2.287992096E0,-1.228300735E1,-1.435664520E0,1.257649833E1
2.789181542E0,7.467970276E-1,-9.363179169E0,1.149609375E-1,9.393617299E0
2.799102542E0,4.348457336E-1,-8.009394379E0,1.325643311E0,8.129995038E0
2.809023542E0,7.571255493E-1,-7.448061676E0,2.425855408E0,7.869665577E0
2.818944542E0,3.629951477E-1,-7.210206299E0,3.534300385E0,8.038042023E0
2.828866542E0,-3.002755737E-1,-6.769073639E0,2.674039307E0,7.284298838E0
2.838787542E0,4.131408691E-2,-5.968238983E0,1.473835144E0,6.147664064E0
2.848708542E0,1.004411316E-1,-5.526806946E0,2.151475983E0,5.931655110E0
2.858629542E0,-5.975573730E-1,-5.828729095E0,2.134411469E0,6.235933771E0
2.868550542E0,-9.675878906E-1,-6.549330597E0,2.030677185E0,6.924854325E0
2.878471542E0,-1.132544861E0,-7.186405792E0,2.526446228E0,7.701299671E0
2.888392542E0,-9.367520142E-1,-7.593259735E0,2.236349487E0,7.970969625E0
2.898313542E0,-1.105151825E0,-8.169860687E0,1.800904999E0,8.438675430E0
2.908235542E0,-1.333876190E0,-9.131311340E0,1.936373291E0,9.429189467E0
2.918156542E0,-1.043480072E0,-9.253607025E0,2.430346069E0,9.624171427E0
2.928077542E0,-3.852987671E-1,-8.934320984E0,2.375709686E0,9.252812713E0
2.937998542E0,1.670526123E-1,-8.649463348E0,1.939217377E0,8.865759236E0
2.947919542E0,6.978488159E-1,-8.403674469E0,1.520987091E0,8.568671967E0
2.957840542E0,1.338067474E0,-7.960446167E0,1.546733551E0,8.218972711E0
2.967761542E0,2.222129059E0,-7.738457794E0,1.966311035E0,8.287820321E0
2.977683542E0,2.837948456E0,-7.816146240E0,2.558329926E0,8.700065833E0
2.987604542E0,3.241359558E0,-8.114924927E0,3.153492279E0,9.289937131E0
2.997525542E0,3.502266998E0,-8.471184082E0,3.649860077E0,9.866524842E0
3.007446542E0,3.565136261E0,-8.649313660E0,4.049678650E0,1.019415129E1
3.017367542E0,3.476221161E0,-8.523724823E0,4.442910919E0,1.022142142E1
3.027288542E0,3.425177307E0,-8.476123810E0,4.672533417E0,1.026689257E1
3.037209542E0,3.264112244E0,-8.453670502E0,4.483177185E0,1.011028444E1
3.047130542E0,2.863844604E0,-8.551566925E0,3.387306061E0,9.633521949E0
3.057052542E0,2.306403809E0,-8.865314484E0,2.140249329E0,9.407123185E0
3.066973542E0,1.830243988E0,-9.550888824E0,1.595083008E0,9.854621261E0
3.076894542E0,1.172661438E0,-1.033361115E1,2.110311584E0,1.061188339E1
3.086815542E0,9.683363342E-1,-1.055410263E1,3.065175934E0,1.103277214E1
3.096736542E0,9.398954773E-1,-1.097263229E1,4.122427368E0,1.175910160E1
3.106657542E0,5.837860107E-1,-1.127470413E1,5.036426697E0,1.236225518E1
3.116578542E0,6.044430542E-1,-1.046773224E1,5.931565247E0,1.204666908E1
3.126499542E0,1.294807434E0,-9.334139557E0,6.324797516E0,1.134926214E1
3.136421542E0,2.744243317E0,-8.697064362E0,6.036796417E0,1.093675961E1
3.146342542E0,3.549418945E0,-7.721093903E0,5.359604645E0,1.004684169E1
3.156263542E0,3.131488037E0,-7.099436646E0,2.628833313E0,8.192617567E0
3.166184542E0,1.858834534E0,-7.206913147E0,8.262817383E-1,7.488498143E0
3.176105542E0,4.248165894E-1,-7.824678497E0,8.363108826E-1,7.880702926E0
3.186026542E0,-1.234782257E0,-8.977281647E0,2.141895905E0,9.311497788E0
3.195947542E0,-2.958597565E0,-1.120105728E1,2.531535645E0,1.185856891E1
3.205869542E0,-4.077820129E0,-1.438194260E1,2.350262604E0,1.513250224E1
3.215790542E0,-4.913681946E0,-1.862816254E1,2.923271027E0,1.948584674E1
3.225711542E0,-5.740263062E0,-2.257455597E1,3.510050812E0,2.355592609E1
3.235632542E0,-6.166576538E0,-2.320055420E1,6.417155457E-1,2.401466594E1
3.245553542E0,-4.861590271E0,-2.088995911E1,-2.129322052E0,2.155364154E1
3.255474542E0,-2.199076996E0,-1.791803925E1,-3.328628082E0,1.835679261E1
3.265395542E0,5.584886169E-1,-1.597867218E1,-4.395908661E0,1.658173354E1
3.275316542E0,2.625390472E0,-1.436966812E1,-4.489913177E0,1.528199455E1
3.285238542E0,4.317621460E0,-1.270917114E1,-3.361110535E0,1.383697764E1
3.295159542E0,5.298681335E0,-1.097353043E1,-1.794468384E0,1.231724444E1
3.305080542E0,5.435197449E0,-8.855884094E0,-9.846524048E-1,1.043731741E1
3.315001542E0,4.540657654E0,-6.623426514E0,-6.047424316E-2,8.030629355E0
3.324922542E0,3.187920685E0,-4.905449066E0,1.160836029E0,5.964378351E0
3.334843542E0,1.851050720E0,-3.969445496E0,2.576292572E0,5.081355107E0
3.344764542E0,1.635498962E0,-3.438649292E0,3.543281708E0,5.201347044E0
3.354686542E0,9.716294861E-1,-3.142415314E0,4.007466431E0,5.184459958E0
3.364607542E0,2.915936279E-1,-3.228186951E0,4.336781616E0,5.414230566E0
3.374528542E0,-2.736309814E-1,-3.539240112E0,3.908971252E0,5.280260480E0
3.384449542E0,-1.297651520E0,-4.130809937E0,2.874472504E0,5.197122509E0
3.394370542E0,-2.099683685E0,-4.996160431E0,2.098336487E0,5.811480589E0
3.404291542E0,-2.513872375E0,-6.073470154E0,9.958790588E-1,6.648185401E0
3.414212542E0,-1.586401062E0,-7.070696411E0,-2.474354553E-1,7.250699302E0
3.424133542E0,-3.604504395E-1,-7.916138306E0,-2.151176605E0,8.211134573E0
3.434055542E0,-8.400531006E-1,-8.730894012E0,-2.415826263E0,9.097824795E0
3.443976542E0,-1.194366302E0,-9.419013062E0,-1.771566010E0,9.658300267E0
3.453897542E0,-8.351133728E-1,-9.598639526E0,-8.225395203E-1,9.669946554E0
3.463818542E0,-3.424877930E-1,-9.173523560E0,1.478924561E-1,9.181105847E0
3.473739542E0,4.046086121E-1,-8.424930267E0,8.690927124E-1,8.479297157E0
3.483660542E0,7.514373779E-1,-7.864346008E0,1.641636200E0,8.068925931E0
3.493581542E0,1.045426025E0,-7.458240509E0,2.183060303E0,7.841174615E0
3.503502542E0,1.532812500E0,-7.237749023E0,2.390828247E0,7.774997414E0
3.513424542E0,2.317031708E0,-7.180717621E0,2.165247345E0,7.849817676E0
3.523345542E0,3.338357849E0,-7.198680267E0,1.691781921E0,8.113430642E0
3.533266542E0,4.448299713E0,-7.297624512E0,1.330583038E0,8.649459236E0
3.543187542E0,5.367388458E0,-7.494764557E0,1.678759003E0,9.370089990E0
3.553108542E0,6.014043732E0,-7.478747864E0,2.963088226E0,1.004391773E1
3.563029542E0,5.999374237E0,-7.108268280E0,4.870421906E0,1.049957041E1
3.572950542E0,5.872138824E0,-6.911427612E0,6.758894806E0,1.131072522E1
3.582872542E0,6.250551910E0,-7.538323975E0,7.636819153E0,1.241840305E1
3.592793542E0,6.431375885E0,-9.157955933E0,7.509134674E0,1.347656693E1
3.602714542E0,6.413712616E0,-1.111528564E1,6.741381226E0,1.449591340E1
3.612635542E0,6.568939819E0,-1.278416519E1,5.573060760E0,1.541573405E1
3.622556542E0,6.313720551E0,-1.303743851E1,4.197571106E0,1.508169331E1
3.632477542E0,6.429878998E0,-1.182840271E1,3.651506653E0,1.394947868E1
3.642398542E0,7.157815247E0,-9.849218445E0,3.607198792E0,1.269855528E1
3.652319542E0,7.446714478E0,-8.230484619E0,3.647764435E0,1.168334793E1
3.662241542E0,7.483388214E0,-8.098159790E0,2.765199738E0,1.136783272E1
3.672162542E0,7.285649414E0,-9.929750977E0,5.751040649E-1,1.232928978E1
3.682083542E0,6.877298584E0,-1.481753677E1,-1.276246033E0,1.638552519E1
3.692004542E0,4.934338989E0,-2.275657745E1,-1.693578186E0,2.334689970E1
3.701925542E0,8.375083923E-1,-2.950813751E1,-1.483415222E0,2.955726849E1
3.711846542E0,-3.717669067E0,-2.594973724E1,-2.526595917E0,2.633616550E1
3.721767542E0,-6.438261566E0,-1.177301788E1,-3.864813080E0,1.396395153E1
3.731689542E0,-5.760021973E0,-5.670957184E0,-1.460662537E0,8.214082027E0
3.741610542E0,-3.481310577E0,-7.180118866E0,2.349813538E0,8.318368465E0
3.751531542E0,-2.481389923E0,-1.066457291E1,4.591701508E0,1.187325288E1
3.761452208E0,-1.842368774E0,-1.349264191E1,4.292324066E0,1.427829661E1
3.771373208E0,-1.127754822E0,-1.310973816E1,2.046244812E0,1.331631268E1
3.781294208E0,-2.354304199E0,-1.120854172E1,1.615740051E0,1.156653672E1
3.791215208E0,-3.681145020E0,-1.023960663E1,2.996319122E0,1.128619957E1
3.801136208E0,-6.965465240E0,-9.998308411E0,4.211641846E0,1.289270352E1
3.811058208E0,-6.340365143E0,-9.956844635E0,4.959636383E0,1.280378765E1
3.820979208E0,-2.753074951E0,-1.018646713E1,3.888314209E0,1.124555564E1
3.830900208E0,1.061143341E0,-1.021415955E1,1.150208130E0,1.033334695E1
3.840821208E0,2.914439392E0,-9.474397888E0,2.318678284E-1,9.915237516E0
3.850742208E0,3.159779205E0,-8.009394379E0,6.577322388E-1,8.635231012E0
3.860663208E0,2.674638062E0,-6.806645508E0,1.313967590E0,7.430385095E0
3.870584208E0,2.749482422E0,-6.110143890E0,1.690883789E0,6.910325603E0
3.880505208E0,1.803150330E0,-6.312523041E0,2.660417633E0,7.083581032E0
3.890427208E0,8.608598328E-1,-6.458319855E0,2.243085480E0,6.890747961E0
3.900348208E0,3.954776001E-1,-6.330186310E0,9.598040771E-1,6.414739676E0
3.910269208E0,-1.466949463E-2,-6.369704132E0,1.556762695E-1,6.371623108E0
3.920190208E0,-1.775308228E-1,-6.487359467E0,-3.923341370E-1,6.501636418E0
3.930111208E0,-3.113525391E-2,-6.612648926E0,2.303709412E-1,6.616733786E0
3.940032208E0,-6.915618896E-2,-6.901248779E0,1.152902527E0,6.997228132E0
3.949953208E0,2.171983337E-1,-7.404801636E0,1.731000366E0,7.607537358E0
3.959875208E0,7.547305298E-1,-7.646848297E0,2.153421936E0,7.980045933E0
3.969796208E0,7.926017761E-1,-8.155789948E0,2.405946808E0,8.540123376E0
3.979717208E0,1.244811401E0,-8.899443512E0,2.575693817E0,9.347932867E0
3.989638208E0,1.806593170E0,-9.335486755E0,2.256557465E0,9.772775626E0
3.999559208E0,1.938917999E0,-9.552535400E0,2.218386841E0,9.996578203E0
4.009480208E0,2.177072754E0,-9.763746185E0,2.387535095E0,1.028448877E1
4.019401208E0,2.380799103E0,-9.705816650E0,2.707120514E0,1.035372313E1
4.029322208E0,2.439626770E0,-9.338181152E0,3.039130096E0,1.011878045E1
4.039244208E0,2.202070770E0,-8.794811096E0,3.329226837E0,9.658238412E0
4.049165208E0,1.729204102E0,-8.327333221E0,3.704496460E0,9.276740776E0
4.059086208E0,1.485810242E0,-8.048463135E0,3.872147827E0,9.054221099E0
4.069007208E0,1.590442657E0,-7.849526825E0,3.918251953E0,8.916124584E0
4.078928208E0,1.863175507E0,-7.686216431E0,3.920497284E0,8.827210485E0
4.088849208E0,1.975142670E0,-7.353907471E0,4.106410675E0,8.651228369E0
4.098770208E0,1.958976288E0,-7.090006256E0,4.311484222E0,8.526117112E0
4.108691208E0,1.614093475E0,-7.387737122E0,4.926106110E0,9.024991907E0
4.118613208E0,1.126257935E0,-8.373736725E0,5.455854492E0,1.005754801E1
4.128534208E0,4.390370178E-1,-9.134305115E0,5.163213043E0,1.050176425E1
4.138455208E0,-1.416055298E-1,-9.136101379E0,4.634213104E0,1.024521018E1
4.148376208E0,-4.255650330E-1,-8.932524719E0,4.653223572E0,1.008085279E1
4.158297208E0,1.139131165E-1,-9.174421692E0,4.487218781E0,1.021362433E1
4.168218208E0,1.889520721E0,-9.550290070E0,4.432133331E0,1.069682826E1
4.178139208E0,3.472778320E0,-1.023421783E1,4.052073669E0,1.154204076E1
4.188061208E0,4.034709778E0,-1.178619049E1,2.966980133E0,1.280609778E1
4.197982208E0,2.941083984E0,-1.358305389E1,1.490151215E0,1.397747755E1
4.207903208E0,1.104253693E0,-1.446576828E1,2.128573608E-1,1.450941544E1
4.217824208E0,-3.864962769E-1,-1.435739365E1,-6.697073364E-1,1.437820015E1
4.227745208E0,-1.647923126E0,-1.425111465E1,-5.574407959E-1,1.435690286E1
4.237666208E0,-2.906206512E0,-1.473206451E1,6.042933655E-1,1.502813800E1
4.247587208E0,-3.619772644E0,-1.562869995E1,1.164578247E0,1.608462802E1
4.257508208E0,-2.488425293E0,-1.595457230E1,-4.849914551E-2,1.614753819E1
4.267430208E0,-8.285270691E-1,-1.620095993E1,-2.362986145E0,1.639332984E1
4.277351208E0,-6.583309937E-1,-1.621997040E1,-3.227139130E0,1.655098989E1
4.287272208E0,-1.595232697E0,-1.657039169E1,-1.251697083E0,1.669399275E1
4.297193208E0,-3.171903992E-1,-1.661814240E1,3.427871704E-2,1.662120457E1
4.307114208E0,2.040406952E0,-1.541135193E1,-9.984237671E-1,1.557786503E1
4.317035208E0,3.694018250E0,-1.358320358E1,-1.999841309E0,1.421789561E1
4.326956208E0,4.125870209E0,-1.164248932E1,-2.410587158E0,1.258496297E1
4.336878208E0,4.011058960E0,-9.243428192E0,-2.511627045E0,1.038449946E1
4.346799208E0,3.961961060E0,-7.285649414E0,-2.303859100E0,8.607298622E0
4.356720208E0,3.363206177E0,-5.923332367E0,-1.807491302E0,7.047272304E0
4.366641208E0,1.946402435E0,-4.598287811E0,-5.319937134E-1,5.021528706E0
4.376562208E0,1.074465637E0,-3.254382477E0,7.150630188E-1,3.500970841E0
4.386483208E0,6.911128235E-1,-2.523751831E0,9.672885132E-1,2.789732480E0
4.396404208E0,4.041595459E-1,-2.380350037E0,1.203647003E0,2.697809731E0
4.406325208E0,2.348616028E-1,-2.607278137E0,1.072968750E0,2.829190908E0
4.416247208E0,-1.037342834E-1,-3.304977264E0,9.595046997E-1,3.443005197E0
4.426168208E0,4.806504822E-1,-4.107907562E0,8.827143860E-1,4.229079582E0
4.436089208E0,8.409512329E-1,-4.971162415E0,7.337741089E-1,5.094907180E0
4.446010208E0,3.300636292E-1,-6.050717468E0,8.665480042E-1,6.121358454E0
4.455931208E0,-6.117778015E-1,-7.152576141E0,1.400188293E0,7.313969155E0
4.465852208E0,-1.165925446E0,-8.037685547E0,1.782493286E0,8.315109946E0
4.475773208E0,-1.486558685E0,-8.748706970E0,2.071991272E0,9.112786523E0
4.485695208E0,-1.313518524E0,-9.219927063E0,2.130818939E0,9.553678627E0
4.495616208E0,-3.832031250E-2,-9.488318939E0,1.422641602E0,9.594455371E0
4.505537208E0,5.351371765E-1,-9.494456177E0,8.244854736E-1,9.545200165E0
4.515458208E0,1.339714050E0,-9.117689667E0,6.897656250E-1,9.241367605E0
4.525379208E0,2.117945709E0,-8.702602844E0,1.001866608E0,9.012476185E0
4.535300208E0,2.912493439E0,-8.230334930E0,1.378483429E0,8.838622498E0
4.545221208E0,3.894451447E0,-7.688910828E0,1.845362549E0,8.814276188E0
4.555142208E0,4.904700623E0,-7.211254120E0,2.789598999E0,9.156425981E0
4.565064208E0,5.939648438E0,-6.744375000E0,4.308191071E0,9.966269513E0
4.574985208E0,7.237299957E0,-6.531817017E0,6.267616425E0,1.158991630E1
4.584906208E0,8.347541199E0,-6.461463318E0,7.513475647E0,1.295701619E1
4.594827208E0,8.876092072E0,-6.858886871E0,7.596103821E0,1.354732936E1
4.604748208E0,8.724607086E0,-8.163274384E0,7.633376312E0,1.417837266E1
4.614669208E0,8.296796722E0,-1.017733612E1,7.364086304E0,1.505472595E1
4.624590208E0,7.058122559E0,-1.152288803E1,6.719826050E0,1.509139174E1
4.634511208E0,5.506748657E0,-1.131661697E1,5.575455780E0,1.376502116E1
4.644433208E0,5.301824799E0,-9.697134705E0,3.500171356E0,1.159288433E1
4.654354208E0,6.289470978E0,-8.370593262E0,1.296154633E0,1.055008500E1
4.664275208E0,5.825286255E0,-1.002480331E1,-2.482138367E0,1.185713508E1
4.674196208E0,4.357288971E0,-1.418974228E1,-5.944588165E0,1.598977428E1
4.684117208E0,3.901486816E0,-2.203208405E1,-6.070326691E0,2.318368376E1
4.694038208E0,1.952090607E0,-3.104544067E1,-3.106939087E0,3.126152771E1
4.703959208E0,-2.098935242E0,-3.230267624E1,-2.751278687E-1,3.237196498E1
4.713881208E0,-3.708837433E0,-1.772823395E1,-9.056167603E-1,1.813466007E1
4.723802208E0,-1.027613068E0,-5.149591370E0,-1.160836029E0,5.377901094E0
4.733723208E0,-3.550616455E-1,-5.242548065E0,6.812333679E-1,5.298533560E0
4.743644208E0,-4.029620361E-1,-9.067094879E0,3.692371674E0,9.798377239E0
4.753565208E0,-6.004014587E-1,-1.242790604E1,5.142406311E0,1.346319698E1
4.763486208E0,-5.581892395E-1,-1.306468185E1,4.287983093E0,1.376169634E1
4.773407208E0,-2.746788025E-1,-1.147962799E1,2.803070984E0,1.182008943E1
4.783328208E0,-2.140848083E0,-1.049332901E1,2.624192963E0,1.102631275E1
4.793250208E0,-5.552852783E0,-9.731114044E0,2.460433502E0,1.147094101E1
4.803171208E0,-5.886658630E0,-8.954079895E0,3.222648468E0,1.118989543E1
4.813092208E0,-4.290078735E0,-8.898096313E0,2.712509308E0,1.024395433E1
4.823013208E0,-1.131946106E0,-9.280401306E0,3.929328918E-1,9.357432695E0
4.832934208E0,1.922601929E0,-9.152567139E0,-9.945318604E-1,9.405050613E0
4.842855208E0,2.436632996E0,-7.863447876E0,2.251318359E-1,8.235391745E0
4.852776208E0,1.512903900E0,-7.006479950E0,1.796414337E0,7.389637608E0
4.862698208E0,9.830058289E-1,-6.808142395E0,2.460732880E0,7.305635471E0
4.872619208E0,4.032614136E-1,-6.659052429E0,2.011367340E0,6.967868942E0
4.882540208E0,-2.049238586E-1,-6.488407288E0,1.745520172E0,6.722221626E0
4.892461208E0,-4.340972900E-2,-6.439758453E0,1.357377319E0,6.581401563E0
4.902382208E0,1.803749084E-1,-6.472989349E0,9.780661011E-1,6.548949498E0
4.912303208E0,5.932164001E-1,-6.455475769E0,1.098565521E0,6.575098426E0
4.922224208E0,8.364605713E-1,-6.469097443E0,1.289867706E0,6.649259110E0
4.932145208E0,9.090596008E-1,-6.672374725E0,1.806443481E0,6.972102401E0
4.942067208E0,1.108145599E0,-7.100634155E0,2.541265411E0,7.622665017E0
4.951988208E0,1.449136505E0,-7.494315491E0,2.468367004E0,8.022318677E0
4.961909208E0,1.867815857E0,-7.898624725E0,1.871408386E0,8.329416425E0
4.971830208E0,1.988914032E0,-8.420589294E0,1.722767487E0,8.822133013E0
4.981751208E0,1.857187958E0,-9.305099945E0,1.545985107E0,9.613745475E0
4.991672208E0,1.813778229E0,-1.009560608E1,1.780547333E0,1.041063890E1
5.001593208E0,1.901495819E0,-1.035531601E1,2.286644897E0,1.077390370E1
5.011515208E0,1.874551849E0,-1.023122406E1,2.788551178E0,1.076883968E1
5.021436208E0,1.982178040E0,-9.673483887E0,3.145259399E0,1.036329952E1
5.031357208E0,2.041903839E0,-8.756041718E0,3.309168549E0,9.580617638E0
5.041278208E0,2.361938324E0,-7.836204529E0,3.173251190E0,8.778062268E0
5.051199208E0,2.733914795E0,-6.971602478E0,3.190016327E0,8.139639758E0
5.061120208E0,2.749781799E0,-6.378835144E0,3.094365234E0,7.604336522E0
5.071041208E0,2.348915405E0,-6.335874481E0,2.900817719E0,7.353601326E0
5.080963208E0,1.897154846E0,-6.938221893E0,2.956501923E0,7.776826034E0
5.090884208E0,1.671723633E0,-7.687713318E0,3.177741852E0,8.484906555E0
5.100805208E0,1.342258759E0,-8.745264130E0,3.791914673E0,9.626002294E0
5.110726208E0,9.279203796E-1,-9.948013000E0,4.545597382E0,1.097663220E1
5.120647208E0,6.493496704E-1,-1.078267731E1,5.129084015E0,1.195806371E1
5.130568208E0,2.279759216E-1,-1.110091553E1,5.470374298E0,1.237769338E1
5.140489208E0,-1.184037781E-1,-1.093940140E1,5.759123840E0,1.236333409E1
5.150410208E0,3.112028503E-1,-1.051144135E1,6.150410156E0,1.218256096E1
5.160332208E0,1.509311371E0,-9.976453857E0,6.824907532E0,1.218142090E1
5.170253208E0,2.653232574E0,-9.542206879E0,7.438631287E0,1.238654878E1
5.180174208E0,3.395089874E0,-8.921447754E0,6.934629364E0,1.179864186E1
5.190095208E0,4.053420868E0,-7.744744720E0,5.869444427E0,1.052908683E1
5.200016208E0,3.984264679E0,-6.017336884E0,4.210444336E0,8.355270774E0
5.209937208E0,3.974085846E0,-5.048850861E0,5.508544922E-1,6.448852146E0
5.219858208E0,3.548670502E0,-5.369783478E0,-2.095193024E0,6.768860372E0
5.229780208E0,1.859582977E0,-6.978338470E0,-2.794089661E0,7.743525921E0
5.239701208E0,-4.186793518E-1,-1.060978683E1,-3.056643677E0,1.104925064E1
5.249622208E0,-2.203567657E0,-1.612416962E1,-2.452649689E0,1.645782631E1
5.259543208E0,-4.099225616E0,-2.416993835E1,3.014581146E0,2.469974231E1
5.269464208E0,-5.047952728E0,-2.981125717E1,7.421866150E0,3.113321342E1
5.279385208E0,-3.291804657E0,-2.775139069E1,4.207749939E0,2.826094164E1
5.289306208E0,-7.035369873E-3,-2.161699722E1,-5.740562439E-1,2.162461928E1
5.299228208E0,2.968027954E0,-1.700808151E1,-2.983296204E0,1.752096124E1
5.309149208E0,5.014422455E0,-1.386551651E1,-3.884571991E0,1.524752046E1
5.319070208E0,6.033952332E0,-1.155327484E1,-3.691772919E0,1.354680507E1
5.328991208E0,6.320755920E0,-1.002570145E1,-2.372416534E0,1.208697667E1
5.338912208E0,5.994883575E0,-8.944200439E0,-8.614585876E-1,1.080182677E1
5.348833208E0,4.616549835E0,-8.232580261E0,3.806584167E-1,9.446312030E0
5.358754208E0,3.232228546E0,-7.783214722E0,1.428778839E0,8.547932016E0
5.368675208E0,2.412383423E0,-7.442223816E0,1.815125427E0,8.031249555E0
5.378597208E0,1.698368225E0,-7.155569916E0,1.174457703E0,7.447549016E0
5.388518208E0,8.969348145E-1,-6.765331421E0,6.144721985E-1,6.852136702E0
5.398439208E0,2.739303589E-2,-6.408772888E0,5.869294739E-1,6.435651212E0
5.408360208E0,-5.978567505E-1,-5.812113647E0,8.250842285E-1,5.900750946E0
5.418281208E0,-1.029858398E0,-5.076842651E0,1.140178986E0,5.304238659E0
5.428202208E0,-1.423240356E0,-4.478686523E0,1.414558411E0,4.907669669E0
5.438123208E0,-1.515149231E0,-4.163891144E0,1.714384918E0,4.751082224E0
5.448045208E0,-2.321522369E0,-4.140689392E0,1.592987366E0,5.007233118E0
5.457966208E0,-2.728376312E0,-4.074526978E0,1.906884613E0,5.261370194E0
5.467887208E0,-3.197051697E0,-4.053121490E0,2.057920532E0,5.557334819E0
5.477808208E0,-1.929637299E0,-3.826492767E0,1.540147247E0,4.553855569E0
5.487729208E0,-1.591490479E0,-4.415068817E0,5.819897461E-1,4.729099985E0
5.497650208E0,-2.360441437E0,-5.417534180E0,4.348457336E-1,5.925407258E0
5.507571208E0,-2.404300232E0,-6.440057831E0,3.646417236E-1,6.883891927E0
5.517493208E0,-1.913620605E0,-7.180118866E0,5.063969421E-1,7.447985541E0
5.527414208E0,-9.973759460E-1,-7.688461761E0,7.243437195E-1,7.786647344E0
5.537335208E0,-3.263214111E-2,-8.139922943E0,8.698411560E-1,8.186332147E0
5.547256208E0,1.115330658E0,-8.535550232E0,8.337661743E-1,8.648395589E0
5.557177208E0,2.544857941E0,-8.922944641E0,7.435038757E-1,9.308492951E0
5.567098208E0,4.133204956E0,-9.318272552E0,8.018824768E-1,1.022529227E1
5.577019208E0,5.726192322E0,-9.638157349E0,1.306932220E0,1.128678109E1
5.586940208E0,6.922953644E0,-9.507329407E0,2.482886810E0,1.202003854E1
5.596862208E0,7.732021179E0,-8.754694519E0,4.152365112E0,1.239640931E1
5.606783208E0,8.407716064E0,-7.549101563E0,7.346123657E0,1.347754268E1
5.616704208E0,8.699309692E0,-6.932384033E0,9.547595673E0,1.465921282E1
5.626625208E0,8.850046234E0,-7.315736847E0,9.528285828E0,1.492084296E1
5.636546208E0,9.071884918E0,-8.649613037E0,8.601413269E0,1.520194763E1
5.646467208E0,8.524772644E0,-1.002884491E1,7.429649963E0,1.511453530E1
5.656388208E0,7.626490631E0,-1.054721695E1,6.031856689E0,1.434539786E1
5.666310208E0,7.280410309E0,-1.013018417E1,5.051245880E0,1.345882947E1
5.676231208E0,7.366331635E0,-9.197174377E0,4.121080170E0,1.248335532E1
5.686152208E0,7.297325134E0,-8.477321320E0,1.656904449E0,1.130757548E1
5.696073208E0,7.369175720E0,-9.135802002E0,-1.708996124E0,1.186120975E1
5.705994208E0,6.455026703E0,-1.185998703E1,-3.031046906E0,1.383885499E1
5.715915208E0,6.580465851E0,-1.814032700E1,-3.145259399E0,1.955164062E1
5.725836208E0,5.469027100E0,-2.756697418E1,-6.852749634E-1,2.811259370E1
5.735758208E0,1.769021301E0,-3.385285263E1,-5.381309509E-1,3.390331330E1
5.745679208E0,-1.931283875E0,-2.466331238E1,-1.883383484E0,2.481040040E1
5.755599708E0,-4.503085785E0,-7.731422424E0,-1.586700439E0,9.086819717E0
5.765520708E0,-5.994434509E0,-3.167563019E0,5.354365540E-1,6.800984698E0
5.775441708E0,-5.529201965E0,-4.789290619E0,2.951562195E0,7.888035142E0
5.785362708E0,-4.242328033E0,-8.325387268E0,4.274810486E0,1.027537955E1
5.795283708E0,-2.362836456E0,-1.147588577E1,2.961142273E0,1.208500368E1
5.805205708E0,-1.504371643E0,-1.258013947E1,1.680555267E0,1.278073977E1
5.815126708E0,-2.196532288E0,-1.329550186E1,4.466861115E0,1.419675921E1
5.825047708E0,-2.945424957E0,-1.379651001E1,3.955674133E0,1.465150417E1
5.834968708E0,-2.543211365E0,-1.333007996E1,2.785108337E0,1.385336725E1
5.844889708E0,1.716929626E-1,-1.277698013E1,8.898994446E-1,1.280908353E1
5.854810708E0,2.750380554E0,-1.192899353E1,-1.622625732E0,1.234902401E1
5.864731708E0,2.129621429E0,-9.667196960E0,4.281097412E-2,9.899081638E0
5.874653708E0,8.765771484E-1,-7.907007294E0,1.354084167E0,8.069863430E0
5.884574708E0,3.727249146E-1,-7.542215881E0,1.650318146E0,7.729650331E0
5.894495708E0,1.631607056E-2,-7.745493164E0,1.994003448E0,7.998061035E0
5.904416708E0,1.052311707E-1,-7.707322540E0,1.841470642E0,7.924954793E0
5.914337708E0,-7.093748474E-1,-7.680827637E0,2.848576355E0,8.222695003E0
5.924258708E0,-1.577569427E0,-8.038583679E0,4.166585541E0,9.190646764E0
5.934179708E0,-1.807042236E0,-7.629634094E0,2.607727203E0,8.262987306E0
5.944100708E0,-1.587598572E0,-7.046895905E0,1.938917999E0,7.479212132E0
5.954022708E0,-1.443897400E0,-6.657405853E0,1.845362549E0,7.057708929E0
5.963943708E0,-1.251547394E0,-6.996750183E0,2.258353729E0,7.457951835E0
5.973864708E0,-5.132826233E-1,-7.353458405E0,2.727627869E0,7.859819549E0
5.983785708E0,1.821711731E-1,-7.744445343E0,3.016078033E0,8.313022718E0
5.993706708E0,4.550537109E-1,-7.926017761E0,2.827320557E0,8.427489126E0
6.003627708E0,4.282594299E-1,-8.200097809E0,2.247276764E0,8.513240456E0
6.013548708E0,5.601351929E-1,-8.447383575E0,1.612147522E0,8.618065928E0
6.023470708E0,9.714797974E-1,-8.489146729E0,1.420695648E0,8.661856689E0
6.033391708E0,1.579814758E0,-8.084089050E0,1.750310211E0,8.420920156E0
6.043312708E0,2.088457031E0,-7.627837830E0,2.226320343E0,8.215964033E0
6.053233708E0,2.591860199E0,-7.327262878E0,2.671344910E0,8.218430763E0
6.063154708E0,3.264860687E0,-7.157815247E0,3.248245239E0,8.511447089E0
6.073075708E0,3.774550781E0,-7.187752991E0,3.656446381E0,8.903966913E0
6.082996708E0,4.223018188E0,-7.338190155E0,3.731590118E0,9.252441958E0
6.092918708E0,4.481231232E0,-7.383545837E0,3.722159729E0,9.404927194E0
6.102839708E0,4.554728394E0,-7.473957825E0,3.809877319E0,9.545719538E0
6.112760708E0,4.310586090E0,-7.410489807E0,3.844455414E0,9.395549428E0
6.122681708E0,3.905977478E0,-7.523355103E0,3.543281708E0,9.187620874E0
6.132602708E0,3.245101776E0,-7.475903778E0,2.948269043E0,8.666724478E0
6.142523708E0,1.953288116E0,-7.761210480E0,2.503543854E0,8.385669586E0
6.152444708E0,9.925859070E-1,-8.780740356E0,2.573897552E0,9.203889211E0
6.162365708E0,7.568261719E-1,-1.004546036E1,3.282973022E0,1.059537501E1
6.172287708E0,6.471043396E-1,-1.065858536E1,4.394411774E0,1.154707931E1
6.182208708E0,5.613327026E-1,-1.049647247E1,5.476062469E0,1.185235373E1
6.192129708E0,8.376580811E-1,-9.746681671E0,6.310427399E0,1.164134737E1
6.202050708E0,1.567390594E0,-8.722810822E0,6.749913483E0,1.114026364E1
6.211971708E0,2.367626495E0,-7.854466553E0,7.088509369E0,1.084182942E1
6.221892708E0,2.674937439E0,-7.153623962E0,7.090605011E0,1.042143491E1
6.231813708E0,2.983296204E0,-5.892496490E0,6.152655487E0,9.026446736E0
6.241735708E0,3.600313110E0,-4.398902435E0,4.590354309E0,7.306432085E0
6.251656708E0,4.203558655E0,-3.678001556E0,1.828747101E0,5.877237172E0
6.261577708E0,3.620521088E0,-4.467759247E0,-1.208586731E0,5.876200092E0
6.271498708E0,2.202519836E0,-6.253246307E0,-2.476899261E0,7.077373309E0
6.281419708E0,-3.935316467E-1,-8.842262421E0,-2.325563965E0,9.151432654E0
6.291340708E0,-3.171454926E0,-1.419528076E1,-1.107846222E0,1.458737281E1
6.301261708E0,-5.010380859E0,-2.198358490E1,2.519859924E0,2.268769745E1
6.311183708E0,-6.341412964E0,-3.035567505E1,6.778354340E0,3.174313491E1
6.321104708E0,-6.932982788E0,-3.631238800E1,6.781198425E0,3.758510908E1
6.331025708E0,-5.220843201E0,-3.520394302E1,1.275946655E0,3.561183579E1
6.340946708E0,3.802093506E-1,-2.525907349E1,-2.902763672E0,2.542816135E1
6.350867708E0,6.247707825E0,-1.627296021E1,-6.593039703E0,1.863628878E1
6.360788708E0,9.826465759E0,-1.247865051E1,-7.774083710E0,1.768367964E1
6.370709708E0,1.224753113E1,-1.048913773E1,-5.968238983E0,1.719429863E1
6.380631708E0,1.308279419E1,-9.073082428E0,-3.986809387E0,1.641264688E1
6.390552708E0,1.218256622E1,-7.848479004E0,-2.293231201E0,1.467216589E1
6.400473708E0,9.709708557E0,-7.006479950E0,-1.163380737E0,1.203007300E1
6.410394708E0,8.543783112E0,-6.118077393E0,-5.029541016E-1,1.052045929E1
6.420315708E0,6.934779053E0,-5.762416992E0,-7.999365234E-1,9.051878730E0
6.430236708E0,4.851710815E0,-5.803880768E0,-5.204676819E-1,7.582546829E0
6.440157708E0,3.941603394E0,-5.522915039E0,7.331753540E-1,6.824688560E0
6.450078708E0,3.964356079E0,-5.022805023E0,2.501298523E0,6.870311763E0
6.460000708E0,2.144590302E0,-4.676575012E0,4.072880402E0,6.561857677E0
6.469921708E0,2.167492676E-1,-4.403093719E0,4.278552704E0,6.143307561E0
6.479842708E0,-1.163979492E0,-4.313430176E0,4.108506317E0,6.069625384E0
6.489763708E0,-2.538571014E0,-4.387376404E0,3.582051086E0,6.206811137E0
6.499684708E0,-3.428470459E0,-4.634063416E0,2.517015839E0,6.290017660E0
6.509605708E0,-4.271367645E0,-4.966671753E0,1.719474335E0,6.772665786E0
6.519526708E0,-4.704417114E0,-5.283562775E0,1.482517090E0,7.228100228E0
6.529448708E0,-4.613406372E0,-5.548811188E0,1.209185486E0,7.316758400E0
6.539369708E0,-4.221820679E0,-5.871839447E0,7.592211914E-1,7.271773178E0
6.549290708E0,-3.536396027E0,-6.045927429E0,2.644999695E-1,7.009229314E0
6.559211708E0,-2.785258026E0,-6.144572296E0,-2.378553772E-1,6.750555989E0
6.569132708E0,-2.104773102E0,-6.300098877E0,-6.665638733E-1,6.675748877E0
6.579053708E0,-1.256337433E0,-6.613696747E0,-3.441343689E-1,6.740756402E0
6.588974708E0,-2.862048340E-1,-6.935228119E0,1.177900543E0,7.040365897E0
6.598896708E0,1.094074860E0,-7.027286682E0,2.598596191E0,7.571820130E0
6.608817708E0,2.696342926E0,-7.128027191E0,2.758164368E0,8.104721309E0
6.618738708E0,4.193828888E0,-7.392826538E0,2.345622253E0,8.817257438E0
6.628659708E0,5.663023682E0,-7.855813751E0,2.147135010E0,9.919366697E0
6.638580708E0,7.213948517E0,-8.397537231E0,2.392923889E0,1.132633080E1
6.648501708E0,8.310268707E0,-8.290659485E0,3.287313995E0,1.219024339E1
6.658422708E0,8.286168823E0,-7.808362427E0,4.469555511E0,1.223143671E1
6.668344708E0,8.486003265E0,-7.818541260E0,6.449637909E0,1.321891327E1
6.678265708E0,8.849148102E0,-8.978479156E0,8.778944092E0,1.536197805E1
6.688186708E0,9.055568848E0,-1.105241638E1,9.625134430E0,1.722795542E1
6.698107708E0,9.142388306E0,-1.220816299E1,8.503816223E0,1.746245681E1
6.708028708E0,8.275989990E0,-1.163051422E1,6.413862305E0,1.564923324E1
6.717949708E0,7.006330261E0,-1.065723816E1,4.489164734E0,1.352102026E1
6.727870708E0,6.014941864E0,-9.204509125E0,3.392694855E0,1.150708009E1
6.737792708E0,6.212530975E0,-7.902067566E0,3.100652161E0,1.051913764E1
6.747713708E0,7.019802246E0,-8.491092682E0,1.417252808E0,1.110787487E1
6.757635667E0,7.556735687E0,-1.080962128E1,-1.499132538E0,1.327401841E1
6.767556667E0,7.794291687E0,-1.560175598E1,-2.436183929E0,1.760967816E1
6.777477667E0,6.590644684E0,-2.383658157E1,-1.459165649E0,2.477394565E1
6.787398667E0,3.272794189E0,-3.184687408E1,-2.194436646E-1,3.201535142E1
6.797319667E0,-7.256909180E-1,-2.874622192E1,-5.361849976E-1,2.876037894E1
6.807241667E0,-2.274969177E0,-1.004620880E1,-2.569107513E0,1.061612497E1
6.817162667E0,-3.443888397E0,-1.297950897E0,-4.421804810E-1,3.706827134E0
6.827083667E0,-4.200265503E0,-2.522254944E0,3.290008392E0,5.901538403E0
6.837004667E0,-3.581302643E0,-4.777315521E0,5.404361572E0,8.053297226E0
6.846925667E0,-2.591560822E0,-7.988437958E0,5.411696320E0,9.990885124E0
6.856846667E0,9.505233765E-2,-1.130389343E1,4.093836823E0,1.202275100E1
6.866767667E0,1.229842529E0,-1.347662521E1,2.670446777E0,1.379359365E1
6.876689667E0,3.748205566E-1,-1.488130417E1,1.858535156E0,1.500159515E1
6.886610667E0,-1.636097717E-1,-1.468117035E1,1.611848145E0,1.477029402E1
6.896531667E0,-7.831713867E-1,-1.341540253E1,1.329684906E0,1.350386775E1
6.906452667E0,-1.417552185E0,-1.229752716E1,1.599723358E0,1.248189662E1
6.916373667E0,-1.899699554E0,-1.164443527E1,1.051563263E0,1.184514738E1
6.926294667E0,-1.802252197E-1,-1.037702087E1,1.488804016E0,1.048482621E1
6.936215667E0,5.095404053E-1,-8.696465607E0,4.559518433E-1,8.723304280E0
6.946137667E0,5.864804077E-1,-7.547005920E0,-6.167175293E-2,7.570010636E0
6.956058667E0,6.354286194E-1,-7.039261780E0,7.867639160E-1,7.111538047E0
6.965979667E0,9.511221313E-1,-6.624474335E0,2.130818939E0,7.023438109E0
6.975900667E0,1.022074585E0,-6.277346191E0,3.480861511E0,7.250248859E0
6.985821667E0,1.079405365E0,-6.015839996E0,4.020189972E0,7.315557000E0
6.995742667E0,1.238075409E0,-5.943240967E0,4.654720459E0,7.649925912E0
7.005663667E0,9.331594849E-1,-6.364465027E0,3.744313660E0,7.442921905E0
7.015585667E0,1.124162292E-1,-6.921307068E0,1.888023834E0,7.175079298E0
7.025506667E0,4.254153442E-1,-7.252418518E0,7.520361328E-1,7.303705287E0
7.035427667E0,8.635542297E-1,-7.364535370E0,3.242257690E-1,7.422077167E0
7.045348667E0,7.616162109E-1,-7.738906860E0,3.029699707E-1,7.782193100E0
7.055269667E0,8.565188599E-1,-7.889194336E0,5.629792786E-1,7.955498570E0
7.065190667E0,1.033750305E0,-8.063132629E0,1.043929138E0,8.195885281E0
7.075111667E0,1.423839111E0,-8.629704437E0,1.734143829E0,8.916634528E0
7.085032667E0,1.635349274E0,-9.083860016E0,2.380799103E0,9.532003168E0
7.094954667E0,1.839225311E0,-9.202712860E0,2.276615753E0,9.656896656E0
7.104875667E0,2.250270538E0,-9.090146942E0,2.648292847E0,9.731800652E0
7.114796667E0,2.522254944E0,-8.598868561E0,2.985541534E0,9.445409932E0
7.124717667E0,2.434387665E0,-8.195307770E0,3.243305511E0,9.143759806E0
7.134638667E0,2.402803345E0,-7.778125305E0,3.326831818E0,8.794345179E0
7.144559667E0,2.411185913E0,-7.457192688E0,3.511248322E0,8.587922046E0
7.154480667E0,2.345622253E0,-7.289840698E0,3.539988556E0,8.436541954E0
7.164402667E0,2.290237427E0,-7.136559448E0,3.454366608E0,8.252776314E0
7.174323667E0,2.560275879E0,-6.972350922E0,3.107687531E0,8.051485064E0
7.184244667E0,2.926713867E0,-6.844666443E0,2.657423859E0,7.904240276E0
7.194165667E0,3.196602631E0,-6.825955353E0,2.220482483E0,7.857638151E0
7.204086667E0,3.025209045E0,-6.950646057E0,2.246977386E0,7.906470626E0
7.214007667E0,2.463876343E0,-7.136559448E0,2.881208496E0,8.080998069E0
7.223928667E0,1.482816467E0,-8.020920410E0,4.101920013E0,9.130150968E0
7.233850667E0,5.116360474E-1,-9.613159332E0,5.515879669E0,1.109502286E1
7.243771667E0,-1.695973206E-1,-1.103595062E1,6.631360016E0,1.287617587E1
7.253692667E0,-6.533912659E-1,-1.196716415E1,7.337591400E0,1.405276434E1
7.263613667E0,-1.012644196E0,-1.194725555E1,7.261100464E0,1.401734438E1
7.273534667E0,-6.066883850E-1,-1.088476501E1,6.687343597E0,1.278932151E1
7.283455667E0,7.970924377E-1,-9.413175201E0,6.045328674E0,1.121557945E1
7.293376667E0,2.865940247E0,-8.566535797E0,5.584137726E0,1.061987491E1
7.303298667E0,4.603227539E0,-8.044421539E0,4.962480469E0,1.051325992E1
7.313219667E0,4.694986725E0,-7.885302429E0,3.688779144E0,9.890803118E0
7.323140667E0,3.601660309E0,-7.747139740E0,2.001188507E0,8.774673018E0
7.333061667E0,3.061733093E0,-7.932753754E0,-8.120613098E-1,8.541793443E0
7.342982667E0,2.053579559E0,-8.415050812E0,-1.694476318E0,8.826183726E0
7.352903667E0,1.540296936E-1,-9.481732635E0,-7.015910339E-1,9.508901561E0
7.362824667E0,-1.674867096E0,-1.191417435E1,5.426216125E-1,1.204355298E1
7.372746667E0,-2.231110382E0,-1.577614334E1,2.780318298E0,1.617389013E1
7.382667667E0,-1.623224487E0,-2.138812317E1,3.816313934E0,2.178648486E1
7.392588667E0,-1.533411255E0,-2.773806839E1,3.763324127E0,2.803416481E1
7.402509667E0,-3.202889557E0,-2.912807785E1,1.292562103E0,2.933213490E1
7.412430667E0,-1.258283386E0,-2.486988281E1,-3.004851379E0,2.508233402E1
7.422351667E0,3.356619873E0,-1.882829636E1,-5.308111725E0,1.984811555E1
7.432272667E0,7.075187073E0,-1.388841888E1,-5.439089355E0,1.650848704E1
7.442194667E0,9.346563721E0,-1.090153015E1,-4.672832794E0,1.510089333E1
7.452115667E0,1.065319656E1,-9.020092621E0,-3.520229645E0,1.439599544E1
7.462036667E0,1.049781967E1,-7.510781250E0,-2.622995453E0,1.317179403E1
7.471957667E0,8.468938751E0,-6.356980591E0,-1.951641541E0,1.076768455E1
7.481878667E0,5.970484314E0,-5.594466248E0,-1.112037506E0,8.257200673E0
7.491799667E0,4.439617767E0,-4.719535675E0,-9.243278503E-1,6.545120693E0
7.501720667E0,3.661386108E0,-4.118984528E0,-7.312294006E-1,5.559359514E0
7.511642667E0,3.181334381E0,-3.671415253E0,2.288740540E-1,4.863389943E0
7.521563667E0,2.500550079E0,-3.258424072E0,1.579216003E0,4.400454672E0
7.531484667E0,1.410816193E0,-3.148851929E0,2.647394714E0,4.349065368E0
7.541405667E0,4.011657715E-2,-3.400628357E0,2.919678497E0,4.482232155E0
7.551326667E0,-1.252894592E0,-3.747906189E0,3.043770447E0,4.988094245E0
7.561247667E0,-2.450254669E0,-4.380790100E0,3.186274109E0,5.945369000E0
7.571168667E0,-2.797083435E0,-4.961881714E0,3.396287384E0,6.631644885E0
7.581090667E0,-2.846780090E0,-5.632786560E0,2.931354218E0,6.958827406E0
7.591011667E0,-3.505859528E0,-6.263724518E0,2.465822296E0,7.589833691E0
7.600932667E0,-3.748654633E0,-6.738836517E0,1.997296600E0,7.965771957E0
7.610853667E0,-3.511697388E0,-7.152875519E0,1.306932220E0,8.074881953E0
7.620774667E0,-2.759960632E0,-7.460934906E0,5.812413025E-1,7.976263149E0
7.630695667E0,-1.894310760E0,-7.770191803E0,1.631607056E-2,7.997784701E0
7.640616667E0,-7.565267944E-1,-8.164022827E0,-1.652563477E-1,8.200665288E0
7.650538667E0,8.741821289E-1,-8.628057861E0,-2.210902405E-1,8.675047997E0
7.660459667E0,2.348316650E0,-8.732690277E0,2.830613708E-1,9.047352889E0
7.670380667E0,3.897894287E0,-8.387957153E0,1.152303772E0,9.320901730E0
7.680301667E0,5.113965454E0,-8.600066071E0,1.542242889E0,1.012384770E1
7.690222667E0,6.027815094E0,-8.792266388E0,1.907483368E0,1.082945039E1
7.700143667E0,7.146588593E0,-8.576564941E0,3.057392120E0,1.157492295E1
7.710064667E0,7.802524567E0,-8.004454651E0,4.361330566E0,1.199882862E1
7.719986667E0,8.266409912E0,-7.539521484E0,5.526208191E0,1.247865754E1
7.729907667E0,9.012159119E0,-7.436385956E0,7.041058044E0,1.364167682E1
7.739828667E0,9.441616058E0,-8.081993408E0,8.195607147E0,1.488726663E1
7.749749667E0,9.142687683E0,-9.041947174E0,8.445886688E0,1.538436052E1
7.759669917E0,8.418493652E0,-9.548044739E0,8.295000458E0,1.519352580E1
7.769590917E0,7.502398682E0,-9.544751587E0,7.958350525E0,1.451632226E1
7.779511917E0,6.626569977E0,-9.137897644E0,7.218738556E0,1.339861147E1
7.789433917E0,6.406527557E0,-8.181386719E0,6.082451477E0,1.204055231E1
7.799354917E0,6.578220520E0,-7.187752991E0,4.402045898E0,1.069180931E1
7.809275917E0,5.548960876E0,-6.765630798E0,1.833986206E0,8.940259074E0
7.819196917E0,5.991440735E0,-6.788533173E0,-1.172811127E0,9.130007155E0
7.829117917E0,5.809868317E0,-7.672295380E0,-3.516637115E0,1.024623945E1
7.839038917E0,4.246968384E0,-1.145852188E1,-3.786376190E0,1.279340099E1
7.848959917E0,5.041366425E0,-2.122840530E1,-2.366428986E0,2.194676635E1
7.858881917E0,3.859873352E0,-3.368999130E1,4.261637878E-1,3.391306167E1
7.868802917E0,-1.474433899E-1,-3.886787384E1,-1.053808594E-1,3.886829636E1
7.878723917E0,-7.964936829E-1,-2.192251190E1,-3.586841125E0,2.222827838E1
7.888644917E0,-1.113085327E0,-7.077582092E0,-2.512824554E0,7.592457735E0
7.898565917E0,-1.754501495E0,-7.057374115E0,1.946701813E0,7.528243676E0
7.908486917E0,-1.319356384E0,-8.556506653E0,4.960085449E0,9.977823161E0
7.918407917E0,-1.175355835E0,-8.272098083E0,4.985083466E0,9.729343513E0
7.928329917E0,-7.340734863E-1,-7.484436035E0,3.850892029E0,8.448965384E0
7.938250917E0,-1.032552795E0,-6.783144379E0,3.020119629E0,7.496554909E0
7.948171917E0,-1.670077057E0,-6.790628815E0,3.813320160E0,7.965124463E0
7.958092917E0,-4.791535950E0,-8.502618713E0,5.009931793E0,1.097054048E1
7.968013917E0,-5.402116241E0,-1.028930328E1,4.030967560E0,1.230046021E1
7.977934917E0,-3.291654968E0,-1.192345505E1,2.270628204E0,1.257614906E1
7.987855917E0,1.365011444E0,-1.292577072E1,-4.005670166E-1,1.300381709E1
7.997777917E0,4.190086670E0,-1.252116211E1,-2.137405243E0,1.337553094E1
8.007698917E0,2.416425018E0,-9.859097900E0,-3.643423462E-1,1.015744390E1
8.017619917E0,1.389111328E-1,-7.385641479E0,7.954458618E-1,7.429652111E0
8.027540917E0,-1.389111328E-1,-6.335724792E0,8.731343079E-1,6.397114073E0
8.037461917E0,-7.918533325E-2,-5.773943024E0,9.237290955E-1,5.847902513E0
8.047382917E0,-5.623805237E-1,-5.703739014E0,2.853516083E0,6.402457702E0
8.057303917E0,-1.210832062E0,-5.728437653E0,2.755170593E0,6.470863715E0
8.067225917E0,-1.863325195E0,-6.200106812E0,2.216141510E0,6.842849439E0
8.077146917E0,-1.701960754E0,-6.526877289E0,2.390528870E0,7.156215888E0
8.087067917E0,-1.098715210E0,-6.660399628E0,2.306703186E0,7.133651092E0
8.096988917E0,-3.128494263E-1,-6.872059479E0,1.848506012E0,7.123205088E0
8.106909917E0,-4.372407532E-1,-7.660919037E0,2.505190430E0,8.071978633E0
8.116830917E0,8.637039185E-2,-8.218659210E0,2.607727203E0,8.622880042E0
8.126751917E0,1.186283112E0,-8.826694794E0,3.265309753E0,9.485781802E0
8.136673917E0,1.951491852E0,-8.982371063E0,2.838547211E0,9.620221444E0
8.146594917E0,2.979703674E0,-8.669371948E0,2.886746979E0,9.610928784E0
8.156515917E0,3.973636780E0,-8.593030701E0,2.607128448E0,9.819729356E0
8.166436917E0,4.274810486E0,-8.329428864E0,2.334694977E0,9.649051275E0
8.176357917E0,4.187541962E0,-8.158634033E0,2.309696960E0,9.456929577E0
8.186278917E0,4.259991302E0,-8.146958313E0,2.291285248E0,9.474726579E0
8.196199917E0,4.274511108E0,-8.358917542E0,2.488275604E0,9.712593020E0
8.206121917E0,4.110452271E0,-8.583600311E0,3.109483795E0,1.001213772E1
8.216042917E0,3.948339386E0,-8.888815613E0,2.526895294E0,1.004916050E1
8.225963917E0,3.888164520E0,-8.380472717E0,3.064427490E0,9.733491776E0
8.235884917E0,3.760480042E0,-7.580835571E0,3.383563843E0,9.113659110E0
8.245805917E0,3.623514862E0,-6.765481110E0,4.006717987E0,8.657677727E0
8.255726917E0,3.313060455E0,-6.283483429E0,4.572840729E0,8.448041543E0
8.265647917E0,2.765648804E0,-6.626420288E0,4.692741394E0,8.577883243E0
8.275569917E0,1.796264648E0,-7.649542694E0,4.477189636E0,9.043632962E0
8.285490917E0,5.921685791E-1,-8.715176697E0,4.332590332E0,9.750708050E0
8.295411917E0,-2.406994629E-1,-9.888137512E0,4.398153992E0,1.082483063E1
8.305332917E0,-6.385720825E-1,-1.080827408E1,4.691693573E0,1.179993862E1
8.315253917E0,-6.810836792E-1,-1.109537704E1,4.806205444E0,1.211077526E1
8.325174917E0,-1.749861145E-1,-1.092712692E1,4.834496613E0,1.195010797E1
8.335095917E0,8.788224792E-1,-9.701325989E0,4.965773621E0,1.093375336E1
8.345017917E0,2.902464294E0,-8.042475586E0,4.681514740E0,9.747937874E0
8.354938917E0,4.645140381E0,-6.876699829E0,3.991300049E0,9.208518110E0
8.364859917E0,4.798421631E0,-6.818620605E0,2.677033081E0,8.756993961E0
8.374780917E0,3.731440430E0,-7.767347717E0,1.220412140E0,8.703145640E0
8.384701917E0,3.017425232E0,-8.983867950E0,-2.996768188E-1,9.481800703E0
8.394622917E0,1.596280518E0,-1.071876022E1,-6.231541443E-1,1.085487233E1
8.404543917E0,-6.435118103E-1,-1.328906525E1,5.185217285E-1,1.331473722E1
8.414465917E0,-2.024539948E0,-1.623568771E1,9.518705750E-1,1.638909318E1
8.424386917E0,-2.379302216E0,-1.934891373E1,1.591789856E0,1.955953313E1
8.434307917E0,-1.855541382E0,-2.281151321E1,2.716101837E0,2.304745926E1
8.444228917E0,-1.592388611E0,-2.528092804E1,2.784808960E0,2.548364544E1
8.454149917E0,-1.912722473E0,-2.389705582E1,1.003213806E0,2.399446232E1
8.464070917E0,-6.765930176E-2,-1.992117371E1,-1.191222839E0,1.995687229E1
8.473991917E0,3.562292175E0,-1.621533005E1,-2.200573883E0,1.674722005E1
8.483913917E0,6.891369324E0,-1.408166702E1,-2.778072968E0,1.592174635E1
8.493834917E0,9.322314148E0,-1.264151184E1,-3.223696289E0,1.603451217E1
8.503755917E0,1.095811249E1,-1.058823166E1,-2.993175659E0,1.552900446E1
8.513676917E0,1.142948227E1,-8.376580811E0,-2.868035889E0,1.445772461E1
8.523597917E0,1.040755737E1,-7.059469757E0,-3.207529907E0,1.297850576E1
8.533518917E0,8.252788239E0,-6.319259033E0,-3.083288269E0,1.084196546E1
8.543439917E0,6.007906494E0,-5.714366913E0,-2.611768799E0,8.693116007E0
8.553361917E0,4.193080444E0,-4.727169800E0,-1.899250488E0,6.598121729E0
8.563282917E0,3.837420044E0,-3.614982605E0,-9.201365662E-1,5.351686008E0
8.573203917E0,3.636986847E0,-3.104244690E0,-9.580078125E-2,4.782591997E0
8.583124917E0,2.099084930E0,-2.820584564E0,5.010081482E-1,3.551459417E0
8.593045917E0,9.282197571E-1,-2.921025696E0,6.381230164E-1,3.130684273E0
8.602966917E0,-8.301736450E-1,-3.412753143E0,2.865042114E-1,3.523940545E0
8.612887917E0,-2.068847809E0,-3.908671875E0,7.244934082E-1,4.481376773E0
8.622809917E0,-2.978955231E0,-4.451443176E0,1.471889191E0,5.554815785E0
8.632730917E0,-3.542832642E0,-5.018464050E0,2.296224976E0,6.558147123E0
8.642651917E0,-3.516637115E0,-5.510191498E0,3.108735352E0,7.238313507E0
8.652572917E0,-2.896027679E0,-5.863007812E0,3.507356415E0,7.420470736E0
8.662493917E0,-2.065105591E0,-6.235133972E0,3.189417572E0,7.301639624E0
8.672414917E0,-1.100361786E0,-6.651418304E0,2.479443970E0,7.183300350E0
8.682335917E0,-3.607498169E-2,-6.958130493E0,1.532513123E0,7.124989673E0
8.692257917E0,3.956272888E-1,-7.509134674E0,6.313870239E-1,7.546010474E0
8.702178917E0,7.680528259E-1,-8.026009827E0,2.775228882E-1,8.067450516E0
8.712099917E0,1.354682922E0,-8.097411346E0,4.896318054E-1,8.224534980E0
8.722020917E0,2.213896179E0,-7.935897217E0,1.127904510E0,8.315766321E0
8.731941917E0,3.345542908E0,-7.821834412E0,1.997895355E0,8.738726266E0
8.741862917E0,4.555925903E0,-7.679779816E0,2.827919312E0,9.366568555E0
8.751783917E0,5.648653564E0,-7.187453613E0,4.071383514E0,1.000714446E1
8.761705708E0,6.815028076E0,-6.710695038E0,5.355712738E0,1.096182898E1
8.771626708E0,8.229736176E0,-6.576723633E0,6.338119812E0,1.229445460E1
8.781547708E0,1.008363098E1,-6.697971497E0,7.265142059E0,1.411824086E1
8.791468708E0,1.190399551E1,-7.652386780E0,8.747958527E0,1.663703432E1
8.801389708E0,1.303085220E1,-1.031504974E1,9.340875549E0,1.906450409E1
8.811310708E0,1.205518112E1,-1.150567383E1,8.600066071E0,1.875284135E1
8.821231708E0,9.594448242E0,-1.070498886E1,7.046746216E0,1.600958637E1
8.831153708E0,8.707093506E0,-9.510772247E0,5.157824249E0,1.388781542E1
8.841074708E0,8.626710663E0,-7.250023499E0,3.958069153E0,1.194358778E1
8.850995708E0,8.162376251E0,-6.797364807E0,2.135608978E0,1.083463798E1
8.860916708E0,7.217241669E0,-8.794212341E0,-1.342558136E0,1.145553187E1
8.870837708E0,6.295308838E0,-1.105825424E1,-4.228856049E0,1.340891956E1
8.880758708E0,5.954168243E0,-1.603764954E1,-5.404960327E0,1.794078923E1
8.890680708E0,4.433330841E0,-2.400318512E1,-3.244203644E0,2.462381318E1
8.900601708E0,8.867559814E-1,-3.218921219E1,4.921765137E-1,3.220518522E1
8.910522708E0,-2.630779266E0,-3.007994843E1,-8.210426331E-1,3.020593332E1
8.920443708E0,-2.874173126E0,-1.245514938E1,-3.090623016E0,1.315080104E1
8.930364708E0,-1.651066589E-1,-4.312382355E0,-7.532336426E-1,4.380783343E0
8.940285708E0,-2.216889954E-1,-7.808661804E0,2.936892700E0,8.345638616E0
8.950206708E0,-8.782237244E-1,-1.187570435E1,4.679718475E0,1.279466278E1
8.960128708E0,-7.505392456E-1,-1.340582245E1,3.343596954E0,1.383687195E1
8.970049708E0,3.010240173E-1,-1.228645020E1,1.904040527E0,1.243675376E1
8.979970708E0,-1.544937286E0,-1.127066254E1,2.504142609E0,1.164840742E1
8.989891708E0,-4.995561676E0,-1.094733490E1,3.545676727E0,1.254478383E1
8.999812708E0,-5.611680450E0,-1.045545776E1,4.487967224E0,1.268658364E1
9.009733708E0,-4.414919128E0,-1.023616379E1,4.688101044E0,1.209333913E1
9.019654708E0,-2.309696960E-1,-1.041174866E1,2.490221558E0,1.070789711E1
9.029576708E0,3.982767792E0,-1.044557831E1,-8.904981995E-1,1.121452329E1
9.039497708E0,5.227579193E0,-9.640402679E0,-1.765877838E0,1.110780233E1
9.049418708E0,4.001179504E0,-7.883356476E0,-4.531077576E-1,8.852234373E0
9.059339708E0,2.325264587E0,-6.709198151E0,5.700146484E-1,7.123560341E0
9.069260708E0,1.440903625E0,-6.173911285E0,9.484277344E-1,6.410374325E0
9.079181708E0,7.970924377E-1,-6.033203888E0,1.611548767E0,6.295394740E0
9.089102708E0,4.665797424E-1,-6.011648712E0,1.531764679E0,6.221247457E0
9.099024708E0,6.074368286E-1,-5.766757965E0,6.529421997E-1,5.835307228E0
9.108945708E0,4.622387695E-1,-5.429359589E0,6.427633667E-1,5.486780018E0
9.118866708E0,5.025050354E-1,-5.705984344E0,2.039359131E0,6.080275842E0
9.128787708E0,8.336164856E-1,-5.784870300E0,2.299967194E0,6.280882894E0
9.138708708E0,1.458566895E0,-5.758076019E0,1.836680603E0,6.217415256E0
9.148629708E0,2.009870453E0,-6.080655212E0,1.840871887E0,6.663539326E0
9.158550708E0,2.029030609E0,-6.750212860E0,2.091750183E0,7.352398092E0
9.168472708E0,1.628164215E0,-7.414232025E0,2.220332794E0,7.908959031E0
9.178393708E0,1.757944336E0,-7.888595581E0,2.350262604E0,8.416890331E0
9.188314708E0,2.131417694E0,-8.591683502E0,2.400258636E0,9.171761462E0
9.198235708E0,2.243534546E0,-9.036558380E0,2.444267120E0,9.626384387E0
9.208156708E0,2.269430695E0,-9.534273376E0,2.470911713E0,1.010732849E1
9.218077708E0,2.538421326E0,-9.920170898E0,2.456391907E0,1.053030079E1
9.227998708E0,2.505040741E0,-1.023990601E1,2.763403473E0,1.089804124E1
9.237920708E0,2.545905762E0,-1.002929398E1,3.224594421E0,1.083819095E1
9.247841708E0,2.791844330E0,-9.551786957E0,3.499422913E0,1.054879090E1
9.257762708E0,3.221151581E0,-8.839717712E0,3.812721405E0,1.015151571E1
9.267683708E0,3.505859528E0,-8.346044312E0,4.352947998E0,1.004468332E1
9.277604708E0,3.582200775E0,-7.871531067E0,4.882696381E0,9.931459494E0
9.287525708E0,3.393293610E0,-7.251370697E0,5.007387085E0,9.443026206E0
9.297446708E0,3.037782898E0,-7.085365906E0,4.452490997E0,8.902539583E0
9.307368708E0,2.453547821E0,-7.301067352E0,3.674708405E0,8.533988707E0
9.317289708E0,1.537003784E0,-7.515122223E0,3.128194885E0,8.284023533E0
9.327210708E0,5.825885010E-1,-8.137976990E0,2.912643127E0,8.663115423E0
9.337131708E0,9.041198730E-2,-9.657167816E0,3.280128937E0,1.019942696E1
9.347052708E0,1.553768921E-1,-1.033585648E1,3.867806854E0,1.103693802E1
9.356973708E0,4.881349182E-1,-1.046758255E1,4.206253052E0,1.129163960E1
9.366894708E0,9.262738037E-1,-1.029454239E1,5.162165222E0,1.155350752E1
9.376816708E0,1.509461060E0,-9.479337616E0,5.991590424E0,1.131527596E1
9.386737708E0,2.718945923E0,-8.272098083E0,6.313271484E0,1.075535543E1
9.396658708E0,4.592749329E0,-7.027885437E0,5.667813721E0,1.012959192E1
9.406579708E0,5.523214417E0,-5.982459412E0,4.298461304E0,9.207197602E0
9.416500708E0,4.693489838E0,-5.620212708E0,2.603984985E0,7.771510506E0
9.426421708E0,3.723656616E0,-5.932762756E0,-4.504133606E-1,7.018986018E0
9.436342708E0,2.569706268E0,-7.093299408E0,-2.016756134E0,7.809327250E0
9.446264708E0,6.153703308E-1,-8.762478333E0,-1.046174469E0,8.846139734E0
9.456185708E0,-1.478774872E0,-1.184546722E1,-6.262976074E-1,1.195383276E1
9.466106708E0,-2.490371246E0,-1.660781387E1,6.680607605E-1,1.680677648E1
9.476027708E0,-1.945354614E0,-2.246962418E1,2.868784332E0,2.273539836E1
9.485948708E0,-1.190175018E0,-2.918001984E1,4.398752747E0,2.953369432E1
9.495869708E0,-2.422262878E0,-3.201632172E1,1.656904449E0,3.215054504E1
9.505791708E0,-1.689087524E0,-2.778177750E1,-2.562521210E0,2.795079055E1
9.515712708E0,3.443738708E0,-1.911539932E1,-4.547393646E0,1.994834872E1
9.525633708E0,7.932903442E0,-1.318877380E1,-5.495821381E0,1.634254460E1
9.535554708E0,9.670340424E0,-1.134086655E1,-4.951553192E0,1.570505068E1
9.545475708E0,9.742191010E0,-1.012284943E1,-3.065774689E0,1.437989362E1
9.555396708E0,9.250762939E0,-8.565937042E0,-2.024989014E0,1.276920017E1
9.565317708E0,8.442892914E0,-7.543413391E0,-1.441352692E0,1.141328278E1
9.575239708E0,6.113886108E0,-7.079528046E0,-1.206042023E0,9.431535297E0
9.585160708E0,3.998185730E0,-6.604865112E0,-9.541159058E-1,7.779464599E0
9.595081708E0,2.929108887E0,-6.026318207E0,-1.024918671E0,6.778395701E0
9.605002708E0,2.416724396E0,-5.483397217E0,-1.169218597E0,6.105347981E0
9.614923708E0,1.999841309E0,-5.090763702E0,-7.696994019E-1,5.523375553E0
9.624844708E0,1.022523651E0,-4.836292877E0,1.169068909E-1,4.944588014E0
9.634765708E0,-2.603086853E-1,-4.673431549E0,7.943980408E-1,4.747609009E0
9.644687708E0,-1.526824951E0,-4.555177460E0,1.410367126E0,5.006992266E0
9.654608708E0,-2.791245575E0,-4.352049866E0,1.500330048E0,5.383528596E0
9.664529708E0,-3.023562469E0,-4.105063477E0,1.047521667E0,5.204880190E0
9.674450708E0,-3.362008667E0,-4.024680634E0,8.536747742E-1,5.313183330E0
9.684371708E0,-3.857628021E0,-4.121229858E0,9.521699524E-1,5.724723322E0
9.694292708E0,-3.450624390E0,-4.501588898E0,9.382489014E-1,5.749036640E0
9.704213708E0,-2.368524628E0,-4.818479919E0,1.055006104E0,5.471809164E0
9.714135708E0,-1.287023621E0,-5.106031952E0,8.939410400E-1,5.341078793E0
9.724056708E0,9.205856323E-2,-5.340444489E0,8.035290527E-1,5.401340672E0
9.733977708E0,2.097288666E0,-5.965245209E0,3.748205566E-1,6.334292431E0
9.743898708E0,2.866838379E0,-6.946903839E0,4.117936707E-1,7.526473893E0
9.753819708E0,3.277584229E0,-7.987839203E0,8.427474976E-1,8.675157454E0
9.763741417E0,3.682941284E0,-8.989855499E0,1.504671021E0,9.830849062E0
9.773662417E0,4.184697876E0,-9.659712524E0,2.008822632E0,1.071714098E1
9.783584417E0,4.982538757E0,-9.657766571E0,2.385738831E0,1.112609084E1
9.793505417E0,5.777086487E0,-8.946595459E0,3.534150696E0,1.122080745E1
9.803426417E0,6.645580444E0,-8.037984924E0,4.702171783E0,1.144042659E1
9.813347417E0,7.621251526E0,-7.336393890E0,5.133574677E0,1.175839016E1
9.823268417E0,8.963360596E0,-7.083569641E0,5.866001587E0,1.284245952E1
9.833189417E0,9.846823425E0,-7.381300507E0,6.683002625E0,1.400378709E1
9.843111417E0,8.908125458E0,-8.137827301E0,7.213349762E0,1.405743032E1
9.853032417E0,7.365732880E0,-9.209299164E0,6.758745117E0,1.359212447E1
9.862953417E0,6.573879547E0,-1.014335678E1,5.674549713E0,1.335305559E1
9.872874417E0,6.417155457E0,-1.038854691E1,4.849315796E0,1.313840381E1
9.882795417E0,5.984854431E0,-1.034543655E1,4.542753296E0,1.278605285E1
9.892716417E0,6.551426239E0,-1.008557693E1,4.228257294E0,1.274826293E1
9.902637417E0,7.764653320E0,-9.558522949E0,3.411855011E0,1.277873064E1
9.912559417E0,7.334597626E0,-8.543184357E0,2.588866425E0,1.155355143E1
9.922480417E0,6.307134247E0,-6.857090607E0,1.093925171E0,9.380634641E0
9.932401417E0,7.326963501E0,-5.862409058E0,-1.233734436E0,9.464371863E0
9.942322417E0,7.886949005E0,-7.757468262E0,-2.992576904E0,1.146027028E1
9.952243417E0,7.591164093E0,-1.390757904E1,-2.996618500E0,1.612532944E1
9.962164417E0,6.130052490E0,-2.603565857E1,7.641609192E-1,2.675849403E1
9.972085417E0,1.256487122E0,-3.799878113E1,1.778900757E0,3.806114311E1
9.982007417E0,-4.383933563E0,-3.257106812E1,-1.891167297E0,3.291914132E1
9.991928417E0,-7.386389923E0,-9.788444824E0,-3.740870819E0,1.282055079E1
1.000184942E1,-7.263495483E0,-2.933749237E0,-7.788304138E-1,7.872218749E0
1.001177042E1,-4.430187378E0,-6.749314728E0,2.860102386E0,8.565044960E0
1.002169142E1,-2.145937500E0,-9.926158447E0,5.591472473E0,1.159302522E1
1.003161242E1,-1.260678406E0,-1.070364166E1,4.963228912E0,1.186553396E1
1.004153342E1,-1.123264160E0,-1.116872452E1,4.372557220E0,1.204663382E1
1.005145542E1,-1.494043121E0,-1.134371063E1,4.068689117E0,1.214356483E1
1.006137642E1,-1.990859985E0,-1.130943192E1,3.857628021E0,1.211396168E1
1.007129742E1,-1.155596924E0,-1.105002136E1,3.514840851E0,1.165300316E1
1.008121842E1,8.512797546E-1,-1.066367477E1,1.066981201E0,1.075067839E1
1.009113942E1,3.465293884E0,-1.005040009E1,-1.666634216E0,1.076087697E1
1.010106042E1,4.007616119E0,-8.614585876E0,-8.705895996E-1,9.540964471E0
1.011098142E1,3.132535858E0,-7.220534821E0,-4.640350342E-1,7.884429752E0
1.012090342E1,2.124981079E0,-6.554719391E0,-2.963836670E-1,6.896936578E0
1.013082442E1,1.756597137E0,-6.079158325E0,3.565585327E-1,6.337896610E0
1.014074542E1,1.226998444E0,-5.728138275E0,1.291364594E0,5.998726181E0
1.015066642E1,2.722837830E-1,-5.711971893E0,1.916015625E0,6.030910151E0
1.016058742E1,-4.197271729E-1,-5.869893494E0,2.049238586E0,6.231468471E0
1.017050842E1,-5.990542603E-1,-5.921835480E0,1.476080475E0,6.132358031E0
1.018043042E1,-2.820135498E-1,-6.108946381E0,1.920057220E0,6.409787614E0
1.019035142E1,1.417552185E-1,-6.280789032E0,1.486708374E0,6.455904832E0
1.020027242E1,1.136586456E0,-6.499933319E0,1.279239807E0,6.721414762E0
1.021019342E1,1.637594604E0,-6.847061462E0,2.336341553E0,7.417712492E0
1.022011442E1,1.412163391E0,-7.389234009E0,2.694546661E0,7.990967801E0
1.023003542E1,1.796863403E0,-8.313711548E0,2.109712830E0,8.763412920E0
1.023995642E1,2.309247894E0,-9.147627411E0,1.425186310E0,9.541638701E0
1.024987842E1,2.607427826E0,-9.677675171E0,1.495240631E0,1.013369731E1
1.025979942E1,2.559377747E0,-1.013617172E1,1.748663635E0,1.059953849E1
1.026972042E1,2.715353394E0,-1.037193146E1,2.003134460E0,1.090700022E1
1.027964142E1,2.684367828E0,-1.037387741E1,2.604284363E0,1.102748658E1
1.028956242E1,2.357297974E0,-1.030008087E1,3.041375427E0,1.099538468E1
1.029948342E1,2.069147186E0,-9.843679962E0,3.396736450E0,1.061683681E1
1.030940442E1,1.866468658E0,-9.320517883E0,3.722159729E0,1.020834129E1
1.031932642E1,1.674118652E0,-8.958869934E0,3.754642181E0,9.857046295E0
1.032924742E1,1.796114960E0,-8.717571716E0,3.712579651E0,9.643927273E0
1.033916842E1,2.136207733E0,-8.336613922E0,3.795507202E0,9.405763663E0
1.034908942E1,2.797981567E0,-7.594157867E0,4.173321533E0,9.105852359E0
1.035901042E1,2.982697449E0,-6.857389984E0,4.663103027E0,8.812764113E0
1.036893142E1,2.668201447E0,-6.369704132E0,4.765041046E0,8.390354335E0
1.037885242E1,2.131717072E0,-6.116730194E0,4.489763489E0,7.881407370E0
1.038877442E1,2.013612671E0,-6.149811401E0,3.911066895E0,7.561167933E0
1.039869542E1,2.375260620E0,-6.759792938E0,3.766766968E0,8.094763552E0
1.040861642E1,2.845283203E0,-7.856113129E0,4.244872742E0,9.371931209E0
1.041853742E1,3.049159241E0,-8.873397675E0,5.222789154E0,1.073834647E1
1.042845842E1,3.277883606E0,-9.018296356E0,5.240751801E0,1.093341985E1
1.043837942E1,5.252876587E0,-8.097411346E0,4.092190247E0,1.048364459E1
1.044830042E1,7.154073029E0,-7.414830780E0,1.640139313E0,1.043314590E1
1.045822242E1,5.833369446E0,-8.710835724E0,-1.881736908E0,1.065118735E1
1.046814342E1,2.500699768E0,-1.108759323E1,-3.038531342E0,1.176524100E1
1.047806442E1,-1.021625519E0,-1.392793671E1,-1.050964508E0,1.400484438E1
1.048798542E1,-3.967349854E0,-1.781370621E1,1.177002411E0,1.828806519E1
1.049790642E1,-5.297633514E0,-2.163061890E1,3.461701355E0,2.253734614E1
1.050782742E1,-4.446952515E0,-2.358211075E1,3.969894562E0,2.432388532E1
1.051774842E1,-2.681823120E0,-2.293261139E1,1.940863953E0,2.317032139E1
1.052767042E1,-1.008303223E0,-1.978211288E1,-3.118016052E-1,1.981024699E1
1.053759142E1,1.812580719E0,-1.569561081E1,-2.026485901E0,1.592935318E1
1.054751242E1,4.637057190E0,-1.322918976E1,-2.240391083E0,1.419623588E1
1.055743342E1,6.435866547E0,-1.266576141E1,-1.947599945E0,1.433998033E1
1.056735442E1,7.105573883E0,-1.311677353E1,-1.437311096E0,1.498682058E1
1.057727542E1,7.375013580E0,-1.331316513E1,-1.236877899E0,1.526961224E1
1.058719642E1,7.384443970E0,-1.172541687E1,-1.735191650E0,1.396518183E1
1.059711842E1,6.866371307E0,-8.831784210E0,-2.706821136E0,1.150975012E1
1.060703942E1,4.883145447E0,-7.440277863E0,-3.407064972E0,9.529477208E0
1.061696042E1,2.660118256E0,-6.896758118E0,-3.187621307E0,8.049995731E0
1.062688142E1,9.072633362E-1,-6.227499847E0,-2.391127625E0,6.732189274E0
1.063680242E1,-5.718109131E-2,-5.654042358E0,-1.337169342E0,5.810291431E0
1.064672342E1,-7.363188171E-1,-4.988077240E0,3.053649902E-2,5.042222965E0
1.065664542E1,-3.403921509E-1,-3.991300049E0,1.918410645E0,4.441468484E0
1.066656642E1,-5.992039490E-1,-3.005599823E0,3.109932861E0,4.366275080E0
1.067648742E1,-8.967851257E-1,-2.602787476E0,2.977757721E0,4.055338118E0
1.068640842E1,-9.629475403E-1,-2.581831055E0,2.331701202E0,3.609702212E0
1.069632942E1,-2.495310974E-1,-2.780467987E0,7.830216980E-1,2.899377688E0
1.070625042E1,8.234376526E-1,-3.119363251E0,-2.225871277E-1,3.233886468E0
1.071617142E1,1.385967865E0,-3.572171631E0,-3.171903992E-1,3.844727147E0
1.072609342E1,1.054856415E0,-4.142934723E0,-2.634521484E-1,4.283227429E0
1.073601442E1,6.752458191E-1,-4.863536224E0,-2.529739380E-2,4.910252690E0
1.074593542E1,5.505551147E-1,-5.534141693E0,2.125579834E-2,5.561500429E0
1.075585642E1,4.246669006E-1,-6.116131439E0,4.969665527E-2,6.131058270E0
1.076577683E1,5.161267090E-1,-6.647975464E0,-4.236190796E-2,6.668115107E0
1.077569783E1,9.340576172E-1,-7.147636414E0,-2.481838989E-1,7.212680859E0
1.078561883E1,1.634002075E0,-7.507338409E0,-1.166075134E-1,7.683989204E0
1.079554083E1,2.421364746E0,-7.789202271E0,4.592449951E-1,8.169797134E0
1.080546183E1,3.176544342E0,-8.150401154E0,1.042731628E0,8.809470028E0
1.081538283E1,4.065845032E0,-8.577014008E0,1.749112701E0,9.651718000E0
1.082530383E1,4.874014435E0,-8.848699036E0,2.997666321E0,1.053762282E1
1.083522483E1,5.747148743E0,-8.918304291E0,4.663701782E0,1.158947731E1
1.084514583E1,6.872508545E0,-8.424032135E0,5.940995636E0,1.238915333E1
1.085506683E1,8.243058472E0,-7.815697174E0,6.688541107E0,1.318217423E1
1.086498883E1,9.345515900E0,-7.439080353E0,7.183561707E0,1.393851293E1
1.087490983E1,9.535470886E0,-8.310119019E0,7.182364197E0,1.454543360E1
1.088483083E1,8.916957092E0,-1.017389328E1,7.083419952E0,1.527072580E1
1.089475183E1,7.574099579E0,-1.083461929E1,6.947203217E0,1.493384050E1
1.090467283E1,7.152426453E0,-1.042746597E1,6.684798889E0,1.430299923E1
1.091459383E1,8.516839142E0,-1.004246658E1,6.216273193E0,1.456124090E1
1.092451483E1,1.159159515E1,-1.032792297E1,4.775968323E0,1.624318148E1
1.093443683E1,1.354817642E1,-1.379186966E1,8.554710388E-1,1.935201756E1
1.094435783E1,1.311318100E1,-2.242052628E1,-1.219663696E0,2.600236708E1
1.095427883E1,1.153995255E1,-3.617572220E1,-2.789149933E0,3.807404285E1
1.096419983E1,4.389621735E0,-3.835399246E1,-4.449946289E0,3.885999921E1
1.097412083E1,-6.256090393E0,-1.690000626E1,-5.919739838E0,1.896818911E1
1.098404183E1,-9.077423401E0,-3.545676727E0,-3.154689789E0,1.024321760E1
1.099396383E1,-6.430178375E0,-2.853516083E0,9.159452820E-1,7.094272601E0
1.100388483E1,-4.893473969E0,-4.937332764E0,2.863395538E0,7.518136492E0
1.101380583E1,-4.305047607E0,-8.209827576E0,3.960763550E0,1.008079122E1
1.102372683E1,-3.033741302E0,-1.189546326E1,3.817810822E0,1.285617796E1
1.103364783E1,-2.057920532E0,-1.509760437E1,3.341052246E0,1.559920911E1
1.104356883E1,-1.907633057E0,-1.602253098E1,2.845732269E0,1.638471101E1
1.105348983E1,-2.276765442E0,-1.511152542E1,2.756218414E0,1.552863810E1
1.106341183E1,-2.001487885E0,-1.332693649E1,2.629731445E0,1.373057455E1
1.107333283E1,-5.093907166E-1,-1.176029434E1,2.115101624E0,1.195983515E1
1.108325383E1,1.676513672E0,-1.048928741E1,9.470805359E-1,1.066455860E1
1.109317483E1,2.832260284E0,-9.357041931E0,-1.634600830E-1,9.777660826E0
1.110309583E1,1.554816742E0,-8.023465118E0,-3.215313721E-1,8.179048235E0
1.111301683E1,7.726931763E-1,-6.993007965E0,7.743397522E-1,7.078051794E0
1.112293783E1,8.448431396E-1,-6.295608215E0,1.933978271E0,6.639933334E0
1.113285983E1,1.146615601E0,-5.896687775E0,2.580034790E0,6.537754474E0
1.114278083E1,9.054670715E-1,-5.892496490E0,3.176394653E0,6.755062435E0
1.115270183E1,6.108796692E-1,-5.916147308E0,2.591560822E0,6.487692998E0
1.116262283E1,6.524931335E-1,-6.042933655E0,1.119671631E0,6.180328390E0
1.117254383E1,9.389973450E-1,-6.045178986E0,-5.343887329E-1,6.140967049E0
1.118246483E1,1.188079376E0,-5.777984619E0,-2.436932373E-1,5.903899157E0
1.119238683E1,1.278940430E0,-5.433999939E0,2.404000854E-1,5.587650326E0
1.120230783E1,1.124162292E0,-5.397924957E0,1.036744080E0,5.610363000E0
1.121222883E1,8.934919739E-1,-5.658832397E0,1.094523926E0,5.832554726E0
1.122214983E1,8.924441528E-1,-6.065985718E0,1.783241730E0,6.385341836E0
1.123207083E1,7.457492065E-1,-6.785240021E0,2.028282166E0,7.121064005E0
1.124199183E1,8.255332947E-1,-7.745792542E0,2.437680817E0,8.162174654E0
1.125191283E1,1.077010345E0,-8.514893188E0,2.971919861E0,9.082712423E0
1.126183483E1,1.665436707E0,-9.054970093E0,2.961291962E0,9.671370786E0
1.127175583E1,2.161205750E0,-9.396410065E0,2.921175385E0,1.007455200E1
1.128167683E1,2.428250427E0,-9.324409790E0,3.092419281E0,1.011948986E1
1.129159783E1,2.772833862E0,-9.064101105E0,3.338058472E0,1.004933684E1
1.130151883E1,2.990032196E0,-8.845106506E0,3.406166840E0,9.938720953E0
1.131143983E1,3.211421814E0,-8.831335144E0,3.297193451E0,9.958774781E0
1.132136083E1,3.496429138E0,-8.824449463E0,3.333567810E0,1.006024848E1
1.133128283E1,3.894900513E0,-8.606352997E0,3.781885529E0,1.017556977E1
1.134120383E1,4.410129089E0,-8.031997375E0,4.402045898E0,1.016563960E1
1.135112483E1,4.812941437E0,-7.167245636E0,5.096302185E0,1.002527362E1
1.136104583E1,4.928201752E0,-6.411916351E0,5.266797638E0,9.650854945E0
1.137096683E1,4.821922760E0,-5.949527893E0,4.803361359E0,9.039917123E0
1.138088783E1,3.857628021E0,-5.845344543E0,4.166435852E0,8.149143175E0
1.139080883E1,2.117945709E0,-6.291416931E0,3.836372223E0,7.667161982E0
1.140073083E1,7.770341492E-1,-7.225624237E0,3.985462189E0,8.288385641E0
1.141065183E1,8.363108826E-1,-8.263416138E0,4.267924805E0,9.338021434E0
1.142057283E1,1.711989899E0,-8.625213776E0,4.937931519E0,1.008505775E1
1.143049383E1,1.954335938E0,-8.353528748E0,5.887556763E0,1.040500822E1
1.144041483E1,1.967358856E0,-7.256011047E0,5.304519196E0,9.200984789E0
1.145033583E1,4.366419983E0,-6.142776031E0,2.668949890E0,7.995161934E0
1.146025683E1,7.698640594E0,-6.706503754E0,-4.772076416E-1,1.022125172E1
1.147017883E1,5.112318878E0,-1.063179108E1,-3.256927185E0,1.223839697E1
1.148009983E1,-3.525169373E-1,-1.576865891E1,-3.988455963E0,1.626907044E1
1.149002083E1,-3.952081604E0,-2.047756668E1,-4.015848999E0,2.123856703E1
1.149994183E1,-5.498665466E0,-2.396980453E1,-2.514620819E0,2.472064257E1
1.150986283E1,-3.694018250E0,-2.569676331E1,5.538482666E-3,2.596092151E1
1.151978383E1,-8.870553589E-1,-2.575050156E1,1.737287292E0,2.582427859E1
1.152970583E1,8.276289368E-1,-2.394121399E1,1.118025055E0,2.398159038E1
1.153962683E1,2.922372894E0,-1.968047424E1,-1.468596039E0,1.995039108E1
1.154954783E1,6.269263000E0,-1.510523849E1,-3.811823273E0,1.679291176E1
1.155946883E1,8.911119232E0,-1.333172653E1,-4.508324890E0,1.665736989E1
1.156938983E1,9.166937256E0,-1.263088394E1,-3.426374817E0,1.597848592E1
1.157931083E1,8.148904266E0,-1.176059372E1,-2.425705719E0,1.451207268E1
1.158923183E1,7.207811279E0,-1.031654663E1,-2.294728088E0,1.279255466E1
1.159915383E1,6.781198425E0,-8.450527039E0,-2.811303864E0,1.119372542E1
1.160907483E1,5.433550873E0,-7.568112030E0,-2.959944763E0,9.775534143E0
1.161899583E1,3.696263580E0,-7.224277039E0,-2.833158417E0,8.595308592E0
1.162891683E1,2.247127075E0,-6.931036835E0,-2.226769409E0,7.618881394E0
1.163883783E1,1.300345917E0,-6.442452850E0,-1.536255341E0,6.749531740E0
1.164875883E1,2.817141724E-1,-5.731581116E0,-7.435038757E-1,5.786465499E0
1.165868083E1,-5.228627014E-1,-4.873715057E0,-6.439608765E-1,4.943801116E0
1.166860183E1,-1.164727936E0,-3.920946350E0,-5.662724304E-1,4.129294844E0
1.167852283E1,-1.922302551E0,-3.030747528E0,-3.329077148E-1,3.604373070E0
1.168844383E1,-1.165326691E0,-2.382595367E0,4.677772522E-1,2.693243869E0
1.169836483E1,-1.161883850E0,-2.177072754E0,1.243015137E0,2.763097263E0
1.170828583E1,-1.136885834E0,-2.182910614E0,1.601369934E0,2.936323179E0
1.171820683E1,-1.265019379E0,-2.315834198E0,1.921853485E0,3.264488150E0
1.172812883E1,-1.541793823E0,-2.457888794E0,2.339035950E0,3.726853189E0
1.173804983E1,-1.264420624E0,-2.728376312E0,2.487676849E0,3.902734032E0
1.174797083E1,-6.533912659E-1,-3.170856171E0,2.327509918E0,3.987298762E0
1.175789183E1,9.506730652E-1,-3.537294159E0,1.995350647E0,4.171049442E0
1.176781317E1,2.558629303E0,-4.137695618E0,8.514294434E-1,4.938829925E0
1.177773417E1,3.230282593E0,-5.087769928E0,-9.295669556E-2,6.027335184E0
1.178765517E1,4.213587799E0,-6.079906769E0,-6.472540283E-1,7.425532051E0
1.179757717E1,5.259163513E0,-7.237749023E0,-6.674620056E-1,8.971583880E0
1.180749817E1,6.311475220E0,-8.419840851E0,2.475851440E-1,1.052567042E1
1.181741917E1,7.483088837E0,-9.363029480E0,2.148182831E0,1.217693020E1
1.182734017E1,8.613238678E0,-9.228758698E0,5.228926392E0,1.366380397E1
1.183726117E1,9.149872742E0,-8.661887512E0,7.802075500E0,1.481961027E1
1.184718217E1,9.760003967E0,-7.976462860E0,8.393795013E0,1.514389091E1
1.185710417E1,9.935588837E0,-8.218659210E0,8.943751373E0,1.569244957E1
1.186702517E1,8.434809723E0,-9.503138123E0,9.273365936E0,1.573057421E1
1.187694617E1,6.879094849E0,-1.013482452E1,9.497899017E0,1.549989354E1
1.188686717E1,5.580844574E0,-9.688003693E0,9.386680298E0,1.459839062E1
1.189678817E1,4.985233154E0,-7.886350250E0,8.517437897E0,1.263304469E1
1.190670917E1,6.236630859E0,-5.909411316E0,5.859415283E0,1.039949297E1
1.191663017E1,7.019353180E0,-5.899232483E0,1.620979156E0,9.311274691E0
1.192655217E1,8.656498718E0,-7.203170929E0,-3.213218079E0,1.171090995E1
1.193647317E1,9.697284393E0,-1.001627106E1,-8.943002930E0,1.656322166E1
1.194639417E1,9.067394257E0,-1.721031097E1,-8.690478058E0,2.130579384E1
1.195631517E1,9.571845245E0,-3.400134384E1,1.227447510E-1,3.532317470E1
1.196623617E1,5.146447906E0,-4.894117630E1,3.795656891E0,4.935718463E1
1.197615717E1,-2.745889893E0,-2.971186386E1,-1.840722198E0,2.989520068E1
1.198607817E1,-6.651867371E0,-2.950364685E0,-2.553988953E0,7.711993961E0
1.199600017E1,-5.356610870E0,-1.998344421E0,2.663710785E0,6.307298597E0
1.200592117E1,-4.228406982E0,-7.383096771E0,5.757028198E0,1.027292155E1
1.201584217E1,-3.144361267E0,-1.228600113E1,5.270839233E0,1.373370226E1
1.202576317E1,-5.408253479E-1,-1.369981110E1,4.175566864E0,1.433222505E1
1.203568417E1,-7.241940308E-1,-1.250125351E1,3.419638824E0,1.298074443E1
1.204560517E1,-2.544259186E0,-1.085931793E1,2.964734802E0,1.154069726E1
1.205552717E1,-3.664679260E0,-9.952503662E0,3.075055389E0,1.104256170E1
1.206544817E1,-3.208278351E0,-1.002540207E1,2.916235657E0,1.092273624E1
1.207536917E1,-2.417472839E-1,-1.044512924E1,1.914967804E0,1.062197102E1
1.208529017E1,3.377875671E0,-1.120420074E1,-7.421566772E-1,1.172582427E1
1.209521117E1,4.132007446E0,-1.101005447E1,-1.335073700E0,1.183542170E1
1.210513217E1,2.196232910E0,-9.567204895E0,-4.990621948E-1,9.828728889E0
1.211505317E1,1.123563538E0,-8.628057861E0,-5.270539856E-1,8.716855132E0
1.212497517E1,1.264869690E0,-8.045469360E0,-2.191442871E-1,8.147238598E0
1.213489617E1,1.240470428E0,-7.461084595E0,1.233884125E0,7.663486168E0
1.214481717E1,8.461903381E-1,-7.371570740E0,2.306104431E0,7.770084356E0
1.215473817E1,2.600093079E-1,-7.363487549E0,2.042951660E0,7.646058148E0
1.216465917E1,1.215472412E-1,-7.113956451E0,1.934726715E0,7.373351856E0
1.217458017E1,3.302133179E-1,-6.636898499E0,1.950593719E0,6.925480371E0
1.218450117E1,5.957611084E-1,-6.128705292E0,1.898801422E0,6.443710631E0
1.219442317E1,1.322350159E0,-6.011648712E0,1.902094574E0,6.442553372E0
1.220434417E1,1.294058990E0,-6.330934753E0,1.957030334E0,6.751688030E0
1.221426517E1,6.807843018E-1,-6.886579285E0,2.280357971E0,7.286183774E0
1.222418617E1,9.415420532E-1,-7.524702301E0,2.374212799E0,7.946353414E0
1.223410717E1,1.609004059E0,-7.916587372E0,3.010090485E0,8.621014697E0
1.224402817E1,1.009051666E0,-8.591084747E0,2.261497192E0,8.940877583E0
1.225395017E1,1.738484802E0,-9.092392273E0,2.553839264E0,9.602917350E0
1.226387117E1,2.061962128E0,-8.572523346E0,3.165167999E0,9.367931084E0
1.227379217E1,1.914069672E0,-7.876620483E0,3.289110260E0,8.747745953E0
1.228371317E1,1.704355774E0,-7.174281006E0,3.594475250E0,8.203376675E0
1.229363417E1,1.678459625E0,-6.647526398E0,3.906875610E0,7.891166641E0
1.230355517E1,1.895508270E0,-6.447991333E0,4.196523285E0,7.923405298E0
1.231347617E1,2.327210541E0,-6.251749420E0,4.182901611E0,7.873813917E0
1.232339817E1,3.125051422E0,-5.903423767E0,3.901486816E0,7.735499851E0
1.233331917E1,3.958667908E0,-5.412295074E0,3.540287933E0,7.582719052E0
1.234324017E1,4.353097687E0,-5.018763428E0,3.400778046E0,7.463426635E0
1.235316117E1,4.658612366E0,-5.058131561E0,3.254532166E0,7.607847506E0
1.236308217E1,4.882097626E0,-5.960754547E0,3.335663452E0,8.395958710E0
1.237300317E1,4.179458771E0,-7.376660156E0,3.388204193E0,9.130329585E0
1.238292417E1,2.803819427E0,-8.456514587E0,3.606001282E0,9.611310399E0
1.239284617E1,2.082619171E0,-9.792785797E0,4.111200714E0,1.082302765E1
1.240276717E1,2.070195007E0,-1.039962387E1,4.882846069E0,1.167390551E1
1.241268817E1,2.406545563E0,-9.605674896E0,5.683381348E0,1.141758623E1
1.242260917E1,3.445834351E0,-8.248147888E0,6.291117554E0,1.093086813E1
1.243253017E1,5.204976196E0,-7.291936340E0,6.286926270E0,1.094484147E1
1.244245117E1,5.888754272E0,-7.626191254E0,5.329966278E0,1.101111985E1
1.245237317E1,5.260061646E0,-9.447603607E0,2.727178802E0,1.115181450E1
1.246229417E1,3.902983704E0,-1.217118988E1,-1.504221954E0,1.286988067E1
1.247221517E1,1.437460785E0,-1.447534836E1,-1.497485962E0,1.462342189E1
1.248213617E1,-5.818400574E-1,-1.687276291E1,-2.745291138E-1,1.688502390E1
1.249205717E1,-1.381926270E0,-2.030048492E1,1.374292145E0,2.039382473E1
1.250197817E1,-6.400689697E-1,-2.408356796E1,3.129991150E0,2.429454216E1
1.251189917E1,-3.969744873E-1,-2.682796097E1,3.252286835E0,2.702729080E1
1.252182117E1,-5.066963196E-1,-2.496583328E1,-6.318360901E-1,2.497896694E1
1.253174217E1,1.731898499E-1,-2.112796417E1,-2.889141998E0,2.132529030E1
1.254166317E1,3.178939362E0,-1.705238937E1,-3.230581970E0,1.764444101E1
1.255158417E1,7.208559723E0,-1.443493240E1,-3.870351563E0,1.659247504E1
1.256150517E1,9.801467743E0,-1.323173447E1,-4.214336243E0,1.699729969E1
1.257142617E1,1.065559158E1,-1.167003204E1,-3.762126617E0,1.624453374E1
1.258134717E1,9.696236572E0,-9.430239716E0,-3.511547699E0,1.397416874E1
1.259126917E1,7.416627045E0,-7.111561432E0,-3.251089325E0,1.077730228E1
1.260119017E1,5.147196350E0,-5.833369446E0,-3.110082550E0,8.378212388E0
1.261111117E1,3.068618774E0,-5.122946777E0,-2.121538239E0,6.337344031E0
1.262103217E1,2.050436096E0,-4.147425385E0,-7.343728638E-1,4.684520147E0
1.263095317E1,2.204615479E0,-3.273991699E0,4.661306763E-1,3.974497309E0
1.264087417E1,1.619332581E0,-2.579885101E0,1.610500946E0,3.445541821E0
1.265079617E1,1.099912720E0,-2.352358246E0,2.412233734E0,3.544329118E0
1.266071717E1,3.764671326E-1,-2.515069885E0,2.691403198E0,3.702830702E0
1.267063817E1,-7.455995178E-1,-2.809058533E0,3.061433716E0,4.221268160E0
1.268055917E1,-1.377884674E0,-3.293451233E0,3.365301819E0,4.906184213E0
1.269048017E1,-1.346450043E0,-3.804189148E0,3.118165741E0,5.099778464E0
1.270040117E1,-8.869056702E-1,-4.120631104E0,2.235900421E0,4.771315652E0
1.271032217E1,-2.224374390E-1,-4.178111572E0,8.366102600E-1,4.266850296E0
1.272024417E1,1.278341675E-1,-4.405189362E0,-1.995350647E-1,4.411558583E0
1.273016517E1,-1.929487610E-1,-4.808750153E0,-4.260140991E-1,4.831438219E0
1.274008617E1,-2.926414490E-1,-5.331163788E0,-2.043251038E-1,5.343097893E0
1.275000717E1,3.517684937E-2,-6.180647278E0,-6.750961304E-2,6.181116059E0
1.275992817E1,6.345304871E-1,-6.985822906E0,2.546205139E-1,7.019200968E0
1.276984879E1,1.427581329E0,-7.674241333E0,5.981561279E-1,7.828777634E0
1.277976979E1,2.568957825E0,-8.110284576E0,7.194039917E-1,8.537786734E0
1.278969179E1,4.042343903E0,-8.200546875E0,8.445437622E-1,9.181653851E0
1.279961279E1,5.422473907E0,-8.177345123E0,1.242865448E0,9.890243226E0
1.280953379E1,6.744225311E0,-8.187673645E0,2.425705719E0,1.088148074E1
1.281945479E1,7.986342316E0,-8.173303528E0,4.100123749E0,1.214065768E1
1.282937579E1,9.119485931E0,-7.744894409E0,6.018684082E0,1.339301949E1
1.283929679E1,9.941576385E0,-6.771318970E0,7.939789124E0,1.441270110E1
1.284921879E1,1.030831375E1,-6.652915192E0,9.424701233E0,1.547086314E1
1.285913979E1,9.893825684E0,-8.744066620E0,9.748777313E0,1.641295667E1
1.286906079E1,8.775052185E0,-9.883646851E0,9.286239166E0,1.615308806E1
1.287898179E1,6.764732666E0,-9.798773346E0,7.784711609E0,1.422600794E1
1.288890279E1,6.548582153E0,-9.089398499E0,4.974904633E0,1.225768206E1
1.289882379E1,8.160280609E0,-8.012088776E0,1.977837067E0,1.160584274E1
1.290874479E1,9.738448792E0,-9.382638702E0,-2.276615753E0,1.371328820E1
1.291866679E1,1.064196991E1,-1.420201675E1,-4.748874664E0,1.837118978E1
1.292858779E1,1.036235138E1,-2.222997253E1,-3.046015778E0,2.471493915E1
1.293850879E1,7.209158478E0,-3.156201645E1,-6.370751953E-1,3.238114749E1
1.294842979E1,2.963237915E0,-3.087943588E1,8.312214661E-1,3.103242286E1
1.295835079E1,-7.122189331E-1,-1.257190659E1,-1.263821869E0,1.265532839E1
1.296827179E1,-3.218906250E0,-2.663411407E0,-4.486170959E-1,4.201948961E0
1.297819379E1,-4.188589783E0,-4.648882599E0,1.187929688E0,6.369267676E0
1.298811479E1,-3.233426056E0,-8.177195435E0,2.177970886E0,9.058980429E0
1.299803579E1,-1.543739777E0,-1.282622772E1,2.780917053E0,1.321471716E1
1.300795679E1,-5.116360474E-1,-1.611848145E1,2.720891876E0,1.635452439E1
1.301787779E1,-7.072792053E-1,-1.578183151E1,2.430495758E0,1.598354652E1
1.302779879E1,-2.008523254E0,-1.433988007E1,2.343975677E0,1.466835192E1
1.303771979E1,-2.409539337E0,-1.290511368E1,3.189567261E0,1.351003990E1
1.304764179E1,-1.921703796E0,-1.199380875E1,4.332590332E0,1.289634571E1
1.305756279E1,-3.236270142E-1,-1.145193558E1,4.862189026E0,1.244557934E1
1.306748379E1,1.751208344E0,-1.166060165E1,1.890568542E0,1.194196847E1
1.307740479E1,2.314037933E0,-1.108789261E1,-1.486408997E-1,1.132776360E1
1.308732579E1,1.315015411E0,-9.447902985E0,-8.771759033E-1,9.579226164E0
1.309724679E1,1.183289337E0,-8.361911316E0,-1.636247406E0,8.602269473E0
1.310716779E1,1.668580170E0,-7.997868347E0,-1.501527557E0,8.306903327E0
1.311708979E1,1.735790405E0,-7.954907684E0,-2.237846375E-1,8.145158326E0
1.312701079E1,1.654509430E0,-7.647596741E0,1.454674988E0,7.958593889E0
1.313693179E1,1.623224487E0,-7.004983063E0,2.385140076E0,7.575852337E0
1.314685279E1,1.597478027E0,-6.431824951E0,2.381248169E0,7.042062986E0
1.315677379E1,1.675316162E0,-5.854924622E0,2.088007965E0,6.437903683E0
1.316669479E1,1.854493561E0,-5.187163239E0,1.623224487E0,5.742879641E0
1.317661679E1,2.425855408E0,-4.720882874E0,7.360194397E-1,5.358473120E0
1.318653779E1,2.215393066E0,-4.678520966E0,7.993377686E-2,5.177153105E0
1.319645879E1,1.698068848E0,-5.530399475E0,2.028282166E-1,5.788773225E0
1.320637979E1,1.447789307E0,-6.813830566E0,6.297404480E-1,6.994351571E0
1.321630079E1,1.782942352E0,-7.776179352E0,1.274150391E0,8.079066033E0
1.322622179E1,2.281256104E0,-8.087831268E0,2.739153900E0,8.838558034E0
1.323614279E1,2.434537354E0,-8.270601196E0,4.044888611E0,9.523179099E0
1.324606479E1,2.105072479E0,-8.032147064E0,4.772824860E0,9.577399112E0
1.325598579E1,2.353855133E0,-7.529342651E0,5.176834717E0,9.435637362E0
1.326590679E1,2.766546936E0,-6.793772278E0,4.718487854E0,8.721998128E0
1.327582779E1,2.945424957E0,-6.389912109E0,4.001927948E0,8.094561893E0
1.328574879E1,2.796634369E0,-6.819069672E0,3.560495911E0,8.185230975E0
1.329566979E1,2.535876617E0,-7.444169769E0,3.458408203E0,8.591095452E0
1.330559179E1,2.463726654E0,-8.082741852E0,3.496578827E0,9.144765080E0
1.331551279E1,2.655926971E0,-8.502019958E0,3.611539764E0,9.611530103E0
1.332543379E1,3.157683563E0,-8.422235870E0,3.739822998E0,9.741216485E0
1.333535479E1,3.701951752E0,-7.947872314E0,3.959116974E0,9.620172988E0
1.334527579E1,4.270619202E0,-7.443121948E0,4.114194489E0,9.516556572E0
1.335519679E1,4.552183685E0,-7.068900146E0,4.023632812E0,9.321016393E0
1.336511779E1,4.667294312E0,-7.403005371E0,3.735182648E0,9.515235894E0
1.337503979E1,4.273912354E0,-8.010442200E0,3.527863770E0,9.740602333E0
1.338496079E1,3.353626099E0,-8.238418121E0,3.405717773E0,9.524560604E0
1.339488179E1,2.337688751E0,-8.276588745E0,3.912264404E0,9.448413768E0
1.340480279E1,1.479373627E0,-8.154891815E0,4.903054047E0,9.629680463E0
1.341472379E1,8.806187439E-1,-7.473808136E0,5.828729095E0,9.518790905E0
1.342464479E1,1.299597473E0,-6.422244873E0,5.566474457E0,8.597663676E0
1.343456579E1,3.152594147E0,-5.982908478E0,4.187242584E0,7.954058346E0
1.344448779E1,4.697232056E0,-6.910080414E0,2.167492676E0,8.631988462E0
1.345440879E1,3.809727631E0,-9.180558929E0,3.938310242E-1,9.947451420E0
1.346432979E1,2.001787262E0,-1.206610840E1,-1.100960541E0,1.228048200E1
1.347425079E1,6.505471802E-1,-1.485900055E1,-1.164877625E0,1.491878175E1
1.348417179E1,8.232879639E-3,-1.687800201E1,9.421408081E-1,1.690427902E1
1.349409279E1,-2.189945984E-1,-1.810889236E1,1.833088074E0,1.820275125E1
1.350401479E1,-1.462458801E-1,-2.009122009E1,2.031275940E0,2.019417229E1
1.351393579E1,-4.213737488E-1,-2.311059128E1,1.981728973E0,2.319922919E1
1.352385679E1,9.015751648E-1,-2.292063629E1,4.125421143E-1,2.294207046E1
1.353377779E1,1.475332031E0,-2.154140442E1,-1.232985992E0,2.162704241E1
1.354369879E1,2.825673981E0,-1.965517685E1,-1.859582977E0,1.994413346E1
1.355361979E1,5.602549438E0,-1.701616470E1,-1.298250275E0,1.796173364E1
1.356354079E1,8.564440155E0,-1.452579346E1,-6.182144165E-1,1.687395922E1
1.357346279E1,1.064062271E1,-1.200024536E1,-1.848655701E-1,1.603941756E1
1.358338379E1,1.147244293E1,-9.477541351E0,-4.953199768E-1,1.488912619E1
1.359330479E1,1.049796936E1,-7.932753754E0,-1.281784515E0,1.322039766E1
1.360322579E1,8.454868011E0,-7.462581482E0,-1.743424530E0,1.141115439E1
1.361314679E1,6.175707550E0,-7.337591400E0,-1.902992706E0,9.777576005E0
1.362306779E1,5.088967438E0,-6.774911499E0,-1.952240295E0,8.695300890E0
1.363298979E1,4.889432373E0,-6.161936188E0,-1.514550476E0,8.010609818E0
1.364291079E1,4.190535736E0,-5.534890137E0,-1.109941864E0,7.030474345E0
1.365283179E1,3.543880463E0,-4.800517273E0,-8.831634521E-3,5.966919877E0
1.366275279E1,2.965782623E0,-4.029171295E0,1.105900269E0,5.123778225E0
1.367267379E1,1.611848145E0,-3.335064697E0,1.476080475E0,3.987420788E0
1.368259479E1,1.498384094E-1,-2.912044373E0,2.397414551E0,3.774923907E0
1.369251579E1,-5.656736755E-1,-3.052751770E0,2.132016449E0,3.766267943E0
1.370243779E1,-1.191971283E0,-3.560944977E0,1.860930176E0,4.190964780E0
1.371235879E1,-1.719923401E0,-4.108955383E0,1.945354614E0,4.860664093E0
1.372227979E1,-2.079026642E0,-4.551435242E0,2.548749847E0,5.615517814E0
1.373220079E1,-2.286345520E0,-4.730013885E0,3.204536133E0,6.153816622E0
1.374212179E1,-2.318977661E0,-4.974305878E0,3.409459991E0,6.461098497E0
1.375204279E1,-1.899549866E0,-5.563181305E0,3.207679596E0,6.696751773E0
1.376196458E1,-1.362466736E0,-6.367309113E0,2.298021240E0,6.905059200E0
1.377188658E1,-9.129515076E-1,-7.227420502E0,1.099463654E0,7.367354199E0
1.378180758E1,-3.525169373E-1,-7.782017212E0,2.871029663E-1,7.795286280E0
1.379172858E1,1.390608215E-1,-8.000562744E0,1.559756470E-1,8.003291232E0
1.380164958E1,1.052910461E0,-7.990982666E0,4.146377563E-2,8.060157793E0
1.381157058E1,2.463876343E0,-7.896379395E0,2.014810181E-1,8.274302918E0
1.382149158E1,3.851191406E0,-7.724686432E0,6.626719666E-1,8.656881070E0
1.383141358E1,5.262905731E0,-7.650590515E0,9.987231445E-1,9.339548163E0
1.384133458E1,6.724316711E0,-7.589667206E0,1.663640442E0,1.027556242E1
1.385125558E1,8.141120453E0,-7.240443420E0,3.166365509E0,1.134582450E1
1.386117658E1,9.225465546E0,-6.595434723E0,4.235442352E0,1.210569889E1
1.387109758E1,1.001866608E1,-5.974825287E0,5.161117401E0,1.275575713E1
1.388101858E1,1.025741959E1,-5.634133759E0,6.924749908E0,1.359817198E1
1.389094058E1,9.290580139E0,-6.228996735E0,8.889414368E0,1.428765087E1
1.390086158E1,8.749904480E0,-7.493417358E0,9.908046112E0,1.519478561E1
1.391078258E1,8.723708954E0,-7.466024323E0,1.013257919E1,1.531384270E1
1.392070358E1,7.756719818E0,-6.794520721E0,1.020338196E1,1.450659221E1
1.393062458E1,6.931934967E0,-6.065386963E0,9.157955933E0,1.298879510E1
1.394054558E1,7.472760315E0,-5.159919891E0,6.218368835E0,1.100613606E1
1.395046658E1,9.387728119E0,-5.839207306E0,-3.423381042E-1,1.106087594E1
1.396038858E1,9.397757263E0,-8.888665924E0,-7.987539825E0,1.520286210E1
1.397030958E1,8.632698212E0,-1.541539352E1,-1.121018829E1,2.092429587E1
1.398023058E1,7.792645111E0,-2.584989487E1,-6.391708374E0,2.774520352E1
1.399015158E1,6.161636810E0,-2.946981720E1,1.627715149E0,3.015104228E1
1.400007258E1,4.660109253E0,-1.666514465E1,2.163900146E0,1.743921238E1
1.400999358E1,-1.066382446E0,-9.219328308E0,1.160536652E0,9.353076034E0
1.401991558E1,-3.342249756E0,-1.606668915E1,3.049159241E0,1.669150999E1
1.402983658E1,4.592449951E-1,-2.181039505E1,4.345613251E0,2.224384393E1
1.403975758E1,2.374063110E0,-2.138976974E1,8.071215820E-1,2.153624551E1
1.404967858E1,4.041595459E-3,-1.696961151E1,-1.482068024E0,1.703420843E1
1.405959958E1,-3.333268433E0,-1.357062973E1,1.051263885E0,1.401348727E1
1.406952058E1,-4.601730652E0,-1.173888885E1,1.689686279E0,1.272133941E1
1.407944158E1,-3.864064636E0,-1.070648575E1,3.409609680E0,1.188214083E1
1.408936358E1,-1.749112701E0,-1.033001862E1,5.062622223E0,1.163610002E1
1.409928458E1,1.315165100E0,-1.030876282E1,4.570595398E0,1.135299927E1
1.410920558E1,4.190086670E0,-1.001372635E1,3.071762238E0,1.128127940E1
1.411912658E1,4.777914276E0,-9.084009705E0,2.065255280E0,1.046962160E1
1.412904758E1,3.935765533E0,-8.471184082E0,1.741478577E0,9.501787080E0
1.413896858E1,3.130140839E0,-8.234376526E0,1.314416656E0,8.906763137E0
1.414889058E1,1.989662476E0,-8.039332123E0,7.376660156E-1,8.314671906E0
1.415881158E1,2.195933533E-1,-8.021369476E0,1.067879333E0,8.095119257E0
1.416873258E1,-3.791615295E-1,-8.350984039E0,1.910477142E0,8.575116372E0
1.417865358E1,-3.011737061E-1,-8.856482849E0,3.121758270E0,9.395390825E0
1.418857458E1,-3.366499329E-1,-8.236322479E0,2.510878601E0,8.617125536E0
1.419849558E1,-5.777984619E-1,-7.591164093E0,1.951491852E0,7.859258476E0
1.420841658E1,-5.391787720E-1,-7.217241669E0,1.565145264E0,7.404658719E0
1.421833858E1,-3.571572876E-1,-7.069049835E0,1.812281342E0,7.306393814E0
1.422825958E1,2.827619934E-1,-6.865173798E0,2.396666107E0,7.276989353E0
1.423818058E1,7.780819702E-1,-6.743177490E0,2.909200287E0,7.385072818E0
1.424810158E1,8.626560974E-1,-6.771917725E0,2.690056000E0,7.337536814E0
1.425802258E1,1.035995636E0,-6.500083008E0,2.828069000E0,7.163961218E0
1.426794358E1,1.448986816E0,-5.963299255E0,3.280877380E0,6.958782738E0
1.427786558E1,1.913171539E0,-5.029241638E0,3.459755402E0,6.397140317E0
1.428778658E1,2.328258362E0,-4.351301422E0,3.903283081E0,6.292076754E0
1.429770758E1,2.794688416E0,-4.147575073E0,4.174219666E0,6.514351245E0
1.430762858E1,3.388503571E0,-4.236340485E0,4.087998962E0,6.792663150E0
1.431754958E1,4.022435303E0,-4.167783051E0,3.655548248E0,6.849338239E0
1.432747058E1,4.724924469E0,-4.142186279E0,2.959346008E0,6.945527137E0
1.433739158E1,5.268893280E0,-4.719685364E0,2.471660156E0,7.493048129E0
1.434731358E1,5.445525970E0,-5.854774933E0,2.639760590E0,8.420242192E0
1.435723458E1,5.505102081E0,-7.236551514E0,2.904110870E0,9.545034661E0
1.436715558E1,5.490282898E0,-8.696764984E0,3.290756836E0,1.079842618E1
1.437707658E1,5.305267639E0,-9.802814941E0,3.736080780E0,1.175582175E1
1.438699758E1,4.644541626E0,-1.092652817E1,4.471651154E0,1.268686126E1
1.439691858E1,4.264182587E0,-1.148351990E1,5.142106934E0,1.328517016E1
1.440684058E1,3.771856384E0,-1.167317551E1,5.603746948E0,1.348673077E1
1.441676158E1,3.196003876E0,-1.124955643E1,6.042185211E0,1.316339480E1
1.442668258E1,2.715952148E0,-9.973160706E0,6.547684021E0,1.223570581E1
1.443660358E1,2.666704559E0,-8.283923492E0,6.943011932E0,1.113283954E1
1.444652458E1,3.755540314E0,-6.516399078E0,6.295009460E0,9.807888871E0
1.445644558E1,4.912783813E0,-5.458548889E0,5.344336395E0,9.082572999E0
1.446636658E1,5.315296783E0,-5.121449890E0,3.542084198E0,8.187062314E0
1.447628858E1,4.875062256E0,-6.309978333E0,9.789642334E-1,8.033705840E0
1.448620958E1,4.085454254E0,-8.620573425E0,-5.107379150E-1,9.553327999E0
1.449613058E1,2.207908630E0,-1.060814026E1,-1.437011719E-2,1.083548369E1
1.450605158E1,6.032455444E-2,-1.291289749E1,3.848497009E-1,1.291877200E1
1.451597258E1,-1.410067749E0,-1.683294571E1,-7.283853149E-1,1.690759881E1
1.452589358E1,-2.501148834E0,-2.088995911E1,-9.677375793E-1,2.106140197E1
1.453581458E1,-3.479514313E0,-2.452739502E1,1.690285034E0,2.483056966E1
1.454573658E1,-2.678829346E0,-2.514366348E1,4.073329468E0,2.561194942E1
1.455565758E1,1.445094910E0,-2.194825836E1,2.915786591E0,2.218819857E1
1.456557858E1,7.126530304E0,-1.920281754E1,1.031954041E0,2.050854857E1
1.457549958E1,1.244077927E1,-1.782343597E1,-7.765850830E-1,2.174973432E1
1.458542058E1,1.447325272E1,-1.616533401E1,-2.920277252E0,2.189340282E1
1.459534158E1,1.329684906E1,-1.392389511E1,-3.693419495E0,1.960414236E1
1.460526358E1,1.157408157E1,-1.131811386E1,-4.443659363E0,1.678705377E1
1.461518458E1,9.675729218E0,-9.267528076E0,-5.205874329E0,1.437386309E1
1.462510558E1,7.798033905E0,-8.168363800E0,-4.672383728E0,1.222140211E1
1.463502658E1,6.626270599E0,-7.106322327E0,-3.410507812E0,1.029751633E1
1.464494758E1,6.522386627E0,-5.863307190E0,-2.377206573E0,9.086859172E0
1.465486858E1,5.989195404E0,-4.487817535E0,-9.976753235E-1,7.550253232E0
1.466479058E1,4.863685913E0,-3.007096710E0,-7.738906860E-2,5.718746397E0
1.467471158E1,3.368295593E0,-1.719025269E0,9.297166443E-1,3.894205454E0
1.468463258E1,2.136656799E0,-1.169368286E0,1.867815857E0,3.069439777E0
1.469455358E1,1.022074585E0,-1.827699280E0,3.268004150E0,3.881362163E0
1.470447458E1,-2.239343262E-1,-2.878214722E0,4.122726746E0,5.033005304E0
1.471439558E1,-1.250499573E0,-3.664828949E0,4.242926788E0,5.744314418E0
1.472431658E1,-2.120191040E0,-4.181704102E0,4.175566864E0,6.278313299E0
1.473423858E1,-2.555336151E0,-4.275409241E0,3.927233276E0,6.342872238E0
1.474415958E1,-2.584525452E0,-4.315226440E0,3.221600647E0,5.973245497E0
1.475408058E1,-2.589614868E0,-4.521048431E0,2.047741699E0,5.598145242E0
1.476400083E1,-2.444865875E0,-4.802612915E0,6.982978821E-1,5.434158619E0
1.477392183E1,-2.063309326E0,-5.177134094E0,-5.575904846E-1,5.600970447E0
1.478384283E1,-1.504521332E0,-5.486091614E0,-1.105151825E0,5.795010456E0
1.479376383E1,-6.506968689E-1,-5.838608551E0,-1.155447235E0,5.987304447E0
1.480368583E1,3.820056152E-1,-6.335275726E0,-5.646258545E-1,6.371848176E0
1.481360683E1,1.370250549E0,-6.679410095E0,4.770579529E-1,6.835180325E0
1.482352783E1,2.448608093E0,-6.843768311E0,1.598825226E0,7.442384590E0
1.483344883E1,3.755240936E0,-7.030430145E0,2.590662689E0,8.380949569E0
1.484336983E1,5.561684418E0,-7.142247620E0,3.768114166E0,9.805239364E0
1.485329083E1,7.661517792E0,-7.197333069E0,4.597539368E0,1.147335288E1
1.486321283E1,9.795480194E0,-7.000193024E0,4.876409454E0,1.298974610E1
1.487313383E1,1.158201508E1,-6.507717133E0,5.051096191E0,1.421291765E1
1.488305483E1,1.271126678E1,-5.804778900E0,6.342610474E0,1.534602453E1
1.489297583E1,1.393437332E1,-6.229745178E0,9.123527527E0,1.778244188E1
1.490289683E1,1.432371368E1,-7.774083710E0,1.067520081E1,1.948242961E1
1.491281783E1,1.293729675E1,-7.696095886E0,9.969418488E0,1.805527192E1
1.492273983E1,1.081111816E1,-6.732250214E0,8.009095001E0,1.504490185E1
1.493266083E1,9.367071075E0,-5.468428345E0,6.219117279E0,1.250292561E1
1.494258183E1,7.814200287E0,-4.287534027E0,3.881578217E0,9.721693454E0
1.495250283E1,7.118746490E0,-4.713997192E0,-4.227209473E-1,8.548509468E0
1.496242383E1,9.296118622E0,-6.476432190E0,-6.077212372E0,1.285669108E1
1.497234483E1,8.069120178E0,-1.090976303E1,-7.534881134E0,1.552121334E1
1.498226583E1,8.539591827E0,-1.926823151E1,-6.418652344E-1,2.108557244E1
1.499218783E1,7.539671173E0,-3.017784485E1,2.883603516E0,3.123882409E1
1.500210883E1,5.665718079E0,-3.846940247E1,1.259331207E0,3.890477095E1
1.501202983E1,4.614154816E0,-2.516581741E1,-3.337160339E0,2.580204313E1
1.502195083E1,-2.790497131E0,-6.012995911E0,-2.662812653E0,7.143778082E0
1.503187183E1,-4.960235138E0,-6.547684021E0,3.495830383E0,8.927313635E0
1.504179283E1,-2.991229706E0,-1.178798676E1,6.804250488E0,1.393563460E1
1.505171483E1,-1.191073151E0,-1.384620667E1,6.338119812E0,1.527441839E1
1.506163583E1,5.216651917E-1,-1.308728485E1,3.905827789E0,1.366764976E1
1.507155683E1,6.421646118E-1,-1.222642502E1,1.639390869E0,1.235254818E1
1.508147783E1,-1.495989075E0,-1.174966644E1,1.354982300E0,1.192177092E1
1.509139883E1,-2.980152740E0,-1.172586594E1,2.788102112E0,1.241574628E1
1.510131983E1,-3.613336029E0,-1.217223770E1,2.927612000E0,1.303036761E1
1.511124183E1,-2.026336212E0,-1.281814453E1,2.588866425E0,1.323303053E1
1.512116283E1,2.391127625E0,-1.339953552E1,4.716691589E-1,1.361938014E1
1.513108383E1,6.738387451E0,-1.265737885E1,4.441264343E-1,1.434616161E1
1.514100483E1,6.418352966E0,-1.147828079E1,5.402265930E-1,1.316199185E1
1.515092583E1,4.383634186E0,-1.014335678E1,-8.247848511E-2,1.105037276E1
1.516084683E1,3.617527313E0,-8.928932190E0,-6.015989685E-1,9.652681246E0
1.517076783E1,2.712658997E0,-8.171207886E0,-6.222560120E-1,8.632170045E0
1.518068983E1,1.178499298E0,-7.535180511E0,8.116122437E-1,7.669844873E0
1.519061083E1,2.412982178E-1,-6.884633331E0,2.486030273E0,7.323711317E0
1.520053183E1,3.647914124E-1,-6.364614716E0,3.670217743E0,7.356078543E0
1.521045283E1,3.122506714E-1,-5.619613953E0,2.836601257E0,6.302687375E0
1.522037383E1,1.601669312E-2,-5.495072937E0,2.058369598E0,5.867961189E0
1.523029483E1,3.588038635E-1,-5.625451813E0,1.454225922E0,5.821444953E0
1.524021683E1,4.772076416E-1,-5.732479248E0,1.007255402E0,5.839829527E0
1.525013783E1,5.072950745E-1,-6.136938171E0,6.620732117E-1,6.193359294E0
1.526005883E1,1.107247467E0,-6.526877289E0,6.914122009E-1,6.656138139E0
1.526997983E1,1.694476318E0,-6.640041962E0,1.373094635E0,6.989048299E0
1.527990083E1,2.130070496E0,-6.654112701E0,2.007325745E0,7.269372243E0
1.528982183E1,2.654430084E0,-6.637347565E0,2.124082947E0,7.457352756E0
1.529974283E1,3.153941345E0,-6.065686340E0,2.202370148E0,7.182640953E0
1.530966483E1,3.344794464E0,-5.887556763E0,2.514321442E0,7.223073235E0
1.531958583E1,3.379222870E0,-6.242917786E0,2.995420990E0,7.704915093E0
1.532950683E1,3.406466217E0,-6.741530914E0,3.271896057E0,8.231497735E0
1.533942783E1,3.502117310E0,-7.275171204E0,3.384761353E0,8.754972936E0
1.534934883E1,3.777095490E0,-7.686964874E0,3.517235870E0,9.258878306E0
1.535926983E1,4.534969482E0,-7.894134064E0,3.584146729E0,9.784140667E0
1.536919183E1,5.572761383E0,-7.978408813E0,3.609893188E0,1.037988466E1
1.537911283E1,6.222410431E0,-8.292306061E0,3.404669952E0,1.091203505E1
1.538903383E1,6.347550201E0,-8.169261932E0,3.173101501E0,1.082112782E1
1.539895483E1,6.187532959E0,-7.772586823E0,2.991978149E0,1.037548087E1
1.540887583E1,5.802234192E0,-7.326664124E0,3.046764221E0,9.829989879E0
1.541879683E1,4.750371552E0,-7.107819214E0,3.910019073E0,9.400817678E0
1.542871883E1,3.300636292E0,-7.140451355E0,4.914580078E0,9.275416046E0
1.543863983E1,2.060764618E0,-7.514673157E0,5.635780334E0,9.616604569E0
1.544856083E1,1.183738403E0,-8.067473602E0,6.134692841E0,1.020391215E1
1.545848183E1,6.361770630E-1,-8.389903107E0,6.295159149E0,1.050829311E1
1.546840283E1,4.038601685E-1,-8.015980682E0,6.241121521E0,1.016713564E1
1.547832383E1,6.924600220E-1,-7.097191315E0,6.165079651E0,9.426443260E0
1.548824483E1,1.990710297E0,-6.277196503E0,5.648354187E0,8.675830130E0
1.549816683E1,4.118385773E0,-5.579946442E0,4.322112122E0,8.171753597E0
1.550808783E1,5.398523712E0,-5.539231110E0,2.188449097E0,8.038435731E0
1.551800883E1,4.484973450E0,-7.617958374E0,3.390449524E-1,8.846650672E0
1.552792983E1,2.397564240E0,-1.114776810E1,-1.072669373E0,1.145302001E1
1.553785083E1,5.260061646E-1,-1.486498810E1,-2.082619171E0,1.501938269E1
1.554777183E1,-5.932164001E-1,-1.744532227E1,-7.093748474E-1,1.746981360E1
1.555769383E1,-4.173321533E-1,-1.989078690E1,7.279362488E-1,1.990847711E1
1.556761483E1,6.418652344E-1,-2.275597870E1,2.356399841E0,2.288665938E1
1.557753583E1,2.322570190E0,-2.523931458E1,1.738185425E0,2.540548408E1
1.558745683E1,2.303260345E0,-2.579241440E1,3.372486877E-1,2.589724668E1
1.559737783E1,2.428549805E0,-2.356130402E1,-1.024020538E0,2.370825846E1
1.560729883E1,5.476062469E0,-2.008553192E1,-2.142344971E0,2.092858081E1
1.561722083E1,9.576186218E0,-1.569486237E1,-3.150797882E0,1.865367456E1
1.562714183E1,1.194156738E1,-1.256621841E1,-3.179238739E0,1.762437051E1
1.563706283E1,1.197120575E1,-1.095257401E1,-2.026186523E0,1.635157718E1
1.564698383E1,1.058419006E1,-9.547895050E0,-1.691482544E0,1.435438931E1
1.565690483E1,8.883576508E0,-7.999514923E0,-2.626438293E0,1.223962208E1
1.566682583E1,7.172784119E0,-7.156917114E0,-3.133284302E0,1.060602494E1
1.567674783E1,5.663023682E0,-6.560108185E0,-2.887645111E0,9.134733215E0
1.568666883E1,4.555776215E0,-5.876479797E0,-2.496358795E0,7.843463454E0
1.569658983E1,3.577410736E0,-5.235512695E0,-1.294957123E0,6.471891123E0
1.570651083E1,2.640059967E0,-4.558470612E0,1.504371643E-1,5.269933803E0
1.571643183E1,1.881437531E0,-3.817511444E0,4.266128540E-1,4.277288783E0
1.572635283E1,5.361849976E-1,-3.312611389E0,5.676196289E-1,3.403392515E0
1.573627383E1,-7.274871826E-1,-2.899320831E0,5.638774109E-1,3.041916603E0
1.574619583E1,-1.523232422E0,-2.781515808E0,4.948709106E-1,3.209667338E0
1.575611683E1,-2.064806213E0,-3.107687531E0,6.054908752E-1,3.779916095E0
1.576603817E1,-2.535128174E0,-3.444487152E0,1.521286469E0,4.539347874E0
1.577595917E1,-2.945125580E0,-3.533701630E0,2.212848358E0,5.104655693E0
1.578588017E1,-2.724334717E0,-3.655099182E0,2.170037384E0,5.048842633E0
1.579580117E1,-2.255659332E0,-3.563339996E0,1.810036011E0,4.589294206E0
1.580572317E1,-1.454824677E0,-3.594325562E0,1.432820435E0,4.133843911E0
1.581564417E1,-7.515870667E-1,-3.938459930E0,1.109043732E0,4.160087468E0
1.582556517E1,4.640350342E-3,-4.473597107E0,4.397854614E-1,4.495164498E0
1.583548617E1,1.014141083E0,-5.188360748E0,-1.085243225E-1,5.287659872E0
1.584540717E1,2.081271973E0,-5.969735870E0,-2.549198914E-1,6.327276155E0
1.585532817E1,2.959346008E0,-6.776408386E0,3.502716064E-2,7.394502439E0
1.586524917E1,4.033063202E0,-7.502548370E0,8.379574585E-1,8.558972108E0
1.587517117E1,5.125491486E0,-8.315956879E0,2.318678284E0,1.004002344E1
1.588509217E1,6.303541718E0,-9.108558655E0,4.331243134E0,1.189370195E1
1.589501317E1,7.743247833E0,-9.193432159E0,6.237528992E0,1.354192932E1
1.590493417E1,9.290580139E0,-8.518635406E0,7.609875183E0,1.472386596E1
1.591485517E1,1.039962387E1,-7.723937988E0,8.499175873E0,1.549346266E1
1.592477617E1,1.121228394E1,-7.163802795E0,8.576415253E0,1.583004359E1
1.593469817E1,1.146765289E1,-7.028933258E0,7.921826477E0,1.560987829E1
1.594461917E1,1.120285355E1,-7.520211639E0,6.861281891E0,1.513719590E1
1.595454017E1,1.067744614E1,-7.924520874E0,5.705834656E0,1.446936198E1
1.596446117E1,9.917177124E0,-7.891589355E0,4.668192444E0,1.350628022E1
1.597438217E1,9.390871582E0,-7.629933472E0,3.775299225E0,1.267506363E1
1.598430317E1,9.280850372E0,-6.904841309E0,3.588038635E0,1.211135989E1
1.599422517E1,9.904752960E0,-7.137307892E0,2.028431854E0,1.237577597E1
1.600414617E1,9.465266876E0,-1.021011795E1,-1.868863678E0,1.404743525E1
1.601406717E1,1.032941986E1,-1.757794647E1,-5.374274139E0,2.108468495E1
1.602398817E1,1.083791245E1,-3.242931290E1,-3.110980682E0,3.433364067E1
1.603390917E1,4.651576996E0,-4.118071426E1,3.092868347E0,4.155784198E1
1.604383017E1,-3.893852692E0,-2.363959122E1,1.827848969E0,2.402776297E1
1.605375217E1,-6.587501221E0,-2.815794525E0,-9.009764099E-1,7.220500650E0
1.606367317E1,-4.788242798E0,-1.584604797E0,1.048270111E0,5.151418414E0
1.607359417E1,-1.928739166E0,-5.623805237E0,1.787582703E0,6.208274481E0
1.608351517E1,2.502795410E-1,-1.083985840E1,1.888772278E0,1.100602702E1
1.609343617E1,1.768721924E0,-1.632145935E1,1.850601654E0,1.652099086E1
1.610335717E1,1.534758453E0,-1.871588013E1,2.413880310E0,1.893321078E1
1.611327817E1,-6.584806824E-1,-1.754755966E1,2.518961792E0,1.773966221E1
1.612320017E1,-2.032772827E0,-1.483909195E1,2.399061127E0,1.516859616E1
1.613312117E1,-1.726060638E0,-1.303818695E1,2.685116272E0,1.342324304E1
1.614304217E1,1.229393463E0,-1.168559967E1,2.679577789E0,1.205175444E1
1.615296317E1,4.727469177E0,-1.051233948E1,1.372795258E0,1.160787719E1
1.616288417E1,5.278024292E0,-9.509425049E0,5.035528564E-1,1.088762006E1
1.617280517E1,3.447630615E0,-8.276738434E0,7.285350037E-1,8.995627783E0
1.618272717E1,2.077380066E0,-7.524402924E0,4.995112610E-1,7.821870543E0
1.619264817E1,1.384171600E0,-7.101532288E0,5.162763977E-1,7.253566927E0
1.620256917E1,9.565109253E-1,-6.655459900E0,7.283853149E-1,6.763180080E0
1.621249017E1,8.934919739E-1,-6.205645294E0,8.175997925E-1,6.322723373E0
1.622241117E1,4.159849548E-1,-6.050717468E0,1.666185150E0,6.289705742E0
1.623233217E1,1.549278259E-1,-6.128256226E0,1.764680328E0,6.379155403E0
1.624225417E1,3.038681030E-1,-6.004763031E0,1.324894867E0,6.156692399E0
1.625217517E1,1.299298096E0,-5.324876862E0,1.384321289E0,5.653214534E0
1.626209617E1,1.533860321E0,-4.634662170E0,1.413211212E0,5.082321010E0
1.627201717E1,1.711690521E0,-4.435576172E0,7.870632935E-1,4.819096289E0
1.628193817E1,1.836830292E0,-4.631369019E0,1.325194244E0,5.155546944E0
1.629185917E1,1.549128571E0,-5.154082031E0,2.409389648E0,5.896568442E0
1.630178017E1,1.744921417E0,-5.973627777E0,2.556234283E0,6.727801519E0
1.631170217E1,1.703008575E0,-7.113657074E0,1.751956787E0,7.521549558E0
1.632162317E1,2.110012207E0,-7.075336761E0,1.768272858E0,7.592057080E0
1.633154417E1,2.796634369E0,-7.207811279E0,2.633473663E0,8.167551087E0
1.634146517E1,3.180585938E0,-7.815098419E0,3.297792206E0,9.059101702E0
1.635138617E1,3.935017090E0,-8.175399170E0,3.369942169E0,9.678740688E0
1.636130717E1,4.522844696E0,-8.302484894E0,3.651057587E0,1.013496922E1
1.637122917E1,4.755161591E0,-8.637787628E0,3.659290466E0,1.051728784E1
1.638115017E1,4.735702057E0,-9.096882935E0,3.459905090E0,1.082363600E1
1.639107117E1,4.669689331E0,-9.131011963E0,3.438948669E0,1.081701187E1
1.640099217E1,4.602479095E0,-8.691675568E0,3.412154388E0,1.041013139E1
1.641091317E1,4.701123962E0,-7.905959473E0,3.564687195E0,9.864672143E0
1.642083417E1,4.518503723E0,-7.137158203E0,3.889362030E0,9.299625805E0
1.643075617E1,3.895948334E0,-6.804100800E0,4.126319275E0,8.860062746E0
1.644067717E1,3.228037262E0,-6.991660767E0,3.997137909E0,8.676442606E0
1.645059817E1,2.459235992E0,-7.506290588E0,3.912114716E0,8.814583462E0
1.646051917E1,1.741179199E0,-8.311017151E0,4.383484497E0,9.556131405E0
1.647044017E1,1.185085602E0,-9.285490723E0,5.294190674E0,1.075421874E1
1.648036117E1,1.031504974E0,-9.892777863E0,6.084846497E0,1.166003487E1
1.649028317E1,1.028511200E0,-9.607471161E0,6.428681488E0,1.160557121E1
1.650020417E1,1.491797791E0,-8.632997589E0,6.369105377E0,1.083141779E1
