"Time (s)","Acceleration x (m/s^2)","Acceleration y (m/s^2)","Acceleration z (m/s^2)","Absolute acceleration (m/s^2)"
8.839541668E-3,9.462123413E0,-3.187321930E0,-3.246448975E0,1.049905860E1
1.876154167E-2,9.864187317E0,-2.951113129E0,-3.584895172E0,1.090241870E1
2.868354166E-2,9.516460419E0,-3.047961731E0,-4.162693634E0,1.082502231E1
3.860554166E-2,9.416318665E0,-3.548520813E0,-4.353397064E0,1.096408332E1
4.852754166E-2,9.394613800E0,-3.801794128E0,-4.237088928E0,1.098477718E1
5.845054166E-2,9.111402740E0,-4.092639313E0,-3.695664825E0,1.065013122E1
6.837254166E-2,1.020398071E1,-4.912484436E0,-3.728746033E0,1.192297248E1
7.829454166E-2,1.170730453E1,-5.858367462E0,-4.590354309E0,1.387273590E1
8.821708334E-2,1.208437042E1,-5.735922089E0,-5.040468292E0,1.429472390E1
9.813908333E-2,1.143487106E1,-4.916376343E0,-4.977000275E0,1.340513201E1
1.080610833E-1,1.027463379E1,-4.809797974E0,-5.342240753E0,1.253960894E1
1.179830833E-1,1.014066238E1,-5.413941650E0,-5.909710693E0,1.292549722E1
1.279050833E-1,1.121901993E1,-5.695057068E0,-6.180796967E0,1.401792903E1
1.378280833E-1,1.398077682E1,-5.396278381E0,-5.482050018E0,1.595728089E1
1.477500833E-1,1.537482788E1,-4.619393921E0,-5.565726013E0,1.699121651E1
1.576720833E-1,1.585203552E1,-3.520529022E0,-5.934858398E0,1.728883163E1
1.675940834E-1,1.516825745E1,-3.551813965E0,-5.883365479E0,1.665248948E1
1.775160833E-1,1.456366470E1,-4.910388794E0,-6.568790131E0,1.671410337E1
1.874380833E-1,1.405187897E1,-4.461322632E0,-4.779111786E0,1.549834222E1
1.973600833E-1,1.391970383E1,-4.191733246E0,-3.613934784E0,1.497962973E1
2.072830833E-1,1.807147018E1,-5.530998230E0,-1.687291260E0,1.897411204E1
2.172050833E-1,1.723381210E1,-5.830375671E0,-2.895728302E0,1.842234519E1
2.271270833E-1,1.623673553E1,-4.734205170E0,-1.609602814E0,1.698926428E1
2.370490833E-1,1.431398392E1,-3.380420380E0,-1.200653229E0,1.475665767E1
2.469710833E-1,1.359622650E1,-3.235072632E0,-2.160756683E0,1.414185064E1
2.568930833E-1,1.197285233E1,-3.558250580E0,-1.228645020E0,1.255069355E1
2.668150833E-1,1.040186920E1,-3.735332336E0,9.415420532E-1,1.109225369E1
2.767370833E-1,9.335337067E0,-4.530927887E0,3.177741852E0,1.085245912E1
2.866600833E-1,6.968009949E0,-6.248605957E0,5.606740723E0,1.091026034E1
2.965820833E-1,4.963528290E0,-8.204289093E0,8.107590179E0,1.255706937E1
3.065040833E-1,4.315825195E0,-9.119785309E0,8.422684937E0,1.314300014E1
3.164260833E-1,2.998714142E0,-9.056167603E0,6.671476593E0,1.164109351E1
3.263480833E-1,1.271905060E0,-8.830287323E0,4.608316956E0,1.004132969E1
3.362700833E-1,2.035018158E0,-7.478747864E0,3.325484619E0,8.433968014E0
3.461920834E-1,4.327650604E0,-5.575306091E0,2.036964111E0,7.345870987E0
3.561140833E-1,6.723119202E0,-3.863765259E0,1.872605896E-1,7.756550799E0
3.660370833E-1,8.030051422E0,-3.338657227E0,-1.318009186E0,8.795766375E0
3.759590834E-1,8.515941010E0,-3.575315094E0,-2.868035889E0,9.671078490E0
3.858810833E-1,8.632548523E0,-3.769161987E0,-3.748055878E0,1.013782023E1
3.958030833E-1,7.959847412E0,-3.579805756E0,-3.586841125E0,9.436080189E0
4.057250833E-1,6.668033752E0,-2.686313782E0,-1.834285583E0,7.419134684E0
4.156470833E-1,4.386478271E0,-7.771838379E-1,1.049317932E-1,4.456031533E0
4.255690833E-1,3.131637726E0,-3.279679871E-1,7.435038757E-1,3.235354055E0
4.354910833E-1,2.576142883E0,-9.009764099E-1,1.613644409E0,3.170507676E0
4.454140833E-1,8.916957092E-1,-7.500901794E-1,2.006427612E0,2.320238841E0
4.553360833E-1,-4.328997803E-1,-3.652404785E-2,2.081122284E0,2.125983581E0
4.652580833E-1,-1.237027588E0,1.978884888E-1,1.533411255E0,1.980087671E0
4.751800833E-1,-1.214125214E0,-2.363584900E-1,1.091679840E0,1.649766724E0
4.851020833E-1,4.173321533E-1,-1.167871399E0,5.998027039E-1,1.377625861E0
4.950240833E-1,2.627336426E0,-1.964664459E0,-7.334747314E-3,3.280679340E0
5.049460833E-1,2.780318298E0,-2.822979584E0,-1.384770355E0,4.197257737E0
5.148680834E-1,2.694995728E0,-2.699935455E0,-3.402574310E0,5.111767343E0
5.247910833E-1,2.554587708E0,-9.156459045E-1,-4.411027222E0,5.178946508E0
5.347130833E-1,2.736160126E0,-1.390608215E-1,-4.797224121E0,5.524424804E0
5.446350834E-1,3.629203033E0,-3.546125793E-1,-4.295018463E0,5.634185685E0
5.545570833E-1,4.471202087E0,-7.144642639E-1,-2.897374878E0,5.375582617E0
5.644790833E-1,5.057682495E0,-1.160386963E0,-2.252964935E0,5.657075315E0
5.744010833E-1,5.507497101E0,-1.493743744E0,-1.894161072E0,6.012623459E0
5.843230833E-1,6.042783966E0,-1.913470917E0,-1.967358856E0,6.636799671E0
5.942450833E-1,8.208181000E0,-3.049608307E0,-3.239712982E0,9.336492187E0
6.041680833E-1,9.161698151E0,-3.762725372E0,-4.605622559E0,1.092275489E1
6.140900833E-1,7.182962952E0,-3.590583344E0,-4.766687622E0,9.338552157E0
6.240120833E-1,4.610562286E0,-4.064946899E0,-3.789519653E0,7.220909714E0
6.339340833E-1,3.462449799E0,-4.936284943E0,-1.804347839E0,6.293738060E0
6.438560833E-1,4.138144684E0,-5.840404816E0,-1.615141296E0,7.337796075E0
6.537780833E-1,4.988825684E0,-5.891598358E0,-1.456022186E0,7.856164046E0
6.637000833E-1,9.267228699E0,-7.210655365E0,-3.649411011E0,1.229606763E1
6.736230833E-1,1.608839401E1,-9.149423676E0,-5.027145996E0,1.917864887E1
6.835450833E-1,1.911135773E1,-8.863069153E0,-6.410419464E0,2.202025129E1
6.934670833E-1,1.700224365E1,-7.562723236E0,-7.169041901E0,1.994157049E1
7.033890833E-1,1.549757263E1,-6.218967590E0,-7.957003326E0,1.849768140E1
7.133110833E-1,1.538874893E1,-6.094426575E0,-1.024963577E1,1.946819618E1
7.232330834E-1,1.520777527E1,-7.138954468E0,-1.161629379E1,2.042496955E1
7.331550833E-1,1.620081024E1,-8.588839417E0,-1.206266556E1,2.194862901E1
7.430770833E-1,1.481020203E1,-9.230405273E0,-1.153875504E1,2.092093051E1
7.530000834E-1,1.128578110E1,-8.965605927E0,-9.028774567E0,1.700793094E1
7.629220833E-1,8.691525879E0,-8.362360382E0,-4.970264282E0,1.304512247E1
7.728440833E-1,5.876479797E0,-7.169640656E0,-1.298100586E0,9.360653133E0
7.827660833E-1,4.639601898E0,-7.149133301E0,1.091230774E-1,8.523374952E0
7.926880833E-1,4.797074432E0,-8.845555573E0,4.002676392E-1,1.007055066E1
8.026100833E-1,3.551813965E0,-8.815767517E0,2.693498840E0,9.878667692E0
8.125320833E-1,2.960244141E0,-8.247249756E0,4.618944855E0,9.905292801E0
8.224540833E-1,3.137475586E0,-8.167016602E0,5.091512146E0,1.012261869E1
8.323770833E-1,3.945944366E0,-8.764573975E0,4.145629120E0,1.046778270E1
8.422990833E-1,3.991150360E0,-8.703201599E0,2.168839874E0,9.817273841E0
8.522210833E-1,3.757785645E0,-8.269104309E0,7.448510742E-1,9.113388072E0
8.621430833E-1,3.495081940E0,-7.313341827E0,7.246430969E-1,8.137915831E0
8.720650833E-1,3.673660583E0,-6.416706390E0,2.534230042E-1,7.398251564E0
8.819870833E-1,4.253704376E0,-6.369554443E0,8.532257080E-3,7.659327485E0
8.919090834E-1,1.459315338E1,-1.017524048E1,7.856711884E0,1.944797074E1
9.018310833E-1,1.022448807E1,-1.172242310E1,8.704399109E-1,1.557924983E1
9.117540833E-1,6.523284760E0,-1.120869141E1,-5.035229187E0,1.391192079E1
9.216760834E-1,9.129964142E0,-1.244182709E1,-1.964215393E0,1.555678143E1
9.315980833E-1,1.063253952E1,-1.298370026E1,-8.918453979E-1,1.680543832E1
9.415200833E-1,1.043569885E1,-1.164593216E1,-1.394051056E0,1.569951989E1
9.514420833E-1,1.011311966E1,-1.010398865E1,-1.484612732E0,1.437253808E1
9.613640833E-1,1.011820908E1,-8.690927124E0,-1.528022461E0,1.342554363E1
9.712860833E-1,9.721683655E0,-6.907086639E0,-1.664388885E0,1.204114485E1
9.812080833E-1,9.055718536E0,-5.639073486E0,-1.751208344E0,1.081073164E1
9.911310833E-1,8.518336029E0,-5.308560791E0,-2.254162445E0,1.028708485E1
1.001053083E0,7.718848572E0,-5.008434906E0,-2.693049774E0,9.587364631E0
1.010975083E0,6.123466187E0,-4.339326324E0,-2.784808960E0,8.005107871E0
1.020897083E0,5.190007324E0,-3.803889771E0,-3.585793304E0,7.366387652E0
1.030819083E0,5.192701721E0,-3.247347107E0,-4.247417450E0,7.453185184E0
1.040741083E0,5.295088806E0,-2.957250366E0,-4.321812744E0,7.447238454E0
1.050663083E0,4.929548950E0,-2.545606384E0,-3.988006897E0,6.832624951E0
1.060585083E0,4.491110687E0,-2.666554871E0,-3.855682068E0,6.492062407E0
1.070508083E0,4.318220215E0,-3.058140564E0,-3.024759979E0,6.094950571E0
1.080430167E0,4.384831696E0,-3.214714966E0,-1.704655151E0,5.697981265E0
1.090352167E0,4.547243958E0,-3.718118134E0,-7.012916565E-1,5.915542245E0
1.100274167E0,4.988376617E0,-4.357288971E0,2.453697510E0,7.063320743E0
1.110196167E0,7.742499390E0,-4.567751312E0,-2.546504517E0,9.343197210E0
1.120118167E0,7.093299408E0,-3.613934784E0,1.392105103E-1,7.962085197E0
1.130040167E0,6.398144989E0,-4.226760406E0,4.945715332E-1,7.684163184E0
1.139962167E0,6.950496368E0,-4.511917419E0,5.343887329E-2,8.286715530E0
1.149885167E0,7.369624786E0,-4.205205231E0,-8.381071472E-1,8.526285482E0
1.159807167E0,7.458240509E0,-4.025728455E0,-2.293680267E0,8.780251150E0
1.169729167E0,7.667655029E0,-3.631747742E0,-3.159928894E0,9.053600164E0
1.179651167E0,9.201215973E0,-3.374432831E0,-3.731440430E0,1.048679265E1
1.189573167E0,1.068388275E1,-3.938759308E0,-3.627257080E0,1.195057193E1
1.199495167E0,1.129102020E1,-4.816384277E0,-2.776875458E0,1.258553662E1
1.209417167E0,1.183798279E1,-4.897066498E0,-2.331701202E0,1.302136426E1
1.219340167E0,1.251517456E1,-4.536166992E0,-2.276016998E0,1.350506048E1
1.229262167E0,1.254226822E1,-4.617597656E0,-2.098037109E0,1.352894896E1
1.239184167E0,1.172167465E1,-5.643564148E0,-1.988015900E0,1.316053495E1
1.249106167E0,1.100750977E1,-6.194568329E0,-2.235301666E0,1.282710106E1
1.259028167E0,1.055051010E1,-6.372099152E0,-2.707569580E0,1.261934404E1
1.268950167E0,1.021011795E1,-6.878795471E0,-3.144211578E0,1.270631348E1
1.278872167E0,1.041848465E1,-7.239994354E0,-2.934946747E0,1.302214472E1
1.288794167E0,1.097338074E1,-7.103178864E0,-1.875300293E0,1.320556648E1
1.298717167E0,1.174322983E1,-7.032226410E0,-6.179150391E-1,1.370173252E1
1.308639167E0,1.160192368E1,-7.745942230E0,4.519102478E-1,1.395738073E1
1.318561167E0,1.058508820E1,-8.262218628E0,1.357826385E0,1.349637141E1
1.328483167E0,1.025023453E1,-9.242679749E0,1.378782806E0,1.387066973E1
1.338405167E0,9.680369568E0,-9.981393585E0,1.743723907E0,1.401350584E1
1.348327167E0,8.455766144E0,-1.021176453E1,2.112556915E0,1.342546135E1
1.358249167E0,8.003556519E0,-1.079764618E1,2.360142059E0,1.364611119E1
1.368171167E0,8.236472168E0,-1.127305756E1,2.437531128E0,1.417260944E1
1.378094167E0,8.608598328E0,-1.152453461E1,2.312091980E0,1.456944173E1
1.388016167E0,8.821306000E0,-1.173499695E1,1.905387726E0,1.480392162E1
1.397938167E0,8.890611877E0,-1.183843185E1,1.731449432E0,1.490601776E1
1.407860167E0,8.466992798E0,-1.172601562E1,1.250050507E0,1.451730126E1
1.417782167E0,7.994425507E0,-1.183873123E1,-8.214916992E-1,1.430878209E1
1.427704167E0,7.781119080E0,-1.107995911E1,-3.564088440E0,1.400050122E1
1.437626167E0,6.802005157E0,-9.098080444E0,-5.030139771E0,1.242355215E1
1.447548167E0,5.920039215E0,-7.585326233E0,-5.432053986E0,1.104949089E1
1.457471167E0,5.634582825E0,-6.929090881E0,-5.756878510E0,1.062555760E1
1.467393167E0,5.734425201E0,-6.171216888E0,-5.849236450E0,1.025578458E1
1.477315167E0,5.345982971E0,-5.443130951E0,-5.542524261E0,9.430099876E0
1.487237167E0,4.570146332E0,-5.326673126E0,-4.727918243E0,8.462440251E0
1.497159167E0,4.666096802E0,-5.373675385E0,-2.812651062E0,7.652440950E0
1.507081167E0,4.724774780E0,-5.224136353E0,-2.656974792E-1,7.048807878E0
1.517003167E0,4.514761505E0,-5.193001099E0,1.647474060E0,7.075627367E0
1.526925167E0,4.213587799E0,-4.831652527E0,2.938838654E0,7.052372715E0
1.536848167E0,4.282594299E0,-4.069138184E0,3.819307709E0,7.034600974E0
1.546770167E0,4.630919952E0,-3.490142212E0,4.011058960E0,7.050894003E0
1.556692167E0,4.829556885E0,-3.247197418E0,3.607049103E0,6.846876222E0
1.566614167E0,4.677323456E0,-3.306474152E0,2.882555695E0,6.412429599E0
1.576536167E0,4.729265442E0,-3.488795013E0,1.631756744E0,6.099202599E0
1.586458167E0,4.576133881E0,-3.187770996E0,6.405180359E-1,5.613657326E0
1.596380167E0,4.218677216E0,-2.702330475E0,-3.733236694E-1,5.023862857E0
1.606302167E0,3.935166779E0,-2.335742798E0,-1.219813385E0,4.735945174E0
1.616225167E0,3.324436798E0,-2.154170380E0,-1.656754761E0,4.293852162E0
1.626147167E0,2.148033142E0,-2.806064758E0,-1.659299469E0,3.904013388E0
1.636069167E0,1.762135620E0,-3.441493378E0,-1.758094025E0,4.247339545E0
1.645991167E0,2.006277924E0,-3.670367432E0,-1.824705505E0,4.563583939E0
1.655913167E0,2.468816071E0,-3.959266663E0,-1.806144104E0,5.003299094E0
1.665835167E0,2.802322540E0,-4.283043365E0,-2.028731232E0,5.505744500E0
1.675757167E0,3.156935120E0,-4.352648621E0,-2.697241058E0,6.015554728E0
1.685679167E0,3.385809174E0,-4.535717926E0,-3.665427704E0,6.743278217E0
1.695602167E0,3.960913239E0,-5.293591919E0,-4.731660461E0,8.130163578E0
1.705524167E0,4.508474579E0,-6.330785065E0,-6.136189728E0,9.902424296E0
1.715446167E0,5.094356232E0,-7.036268005E0,-7.681426392E0,1.159594085E1
1.725368167E0,6.262377319E0,-7.700137482E0,-9.465566254E0,1.371518981E1
1.735290167E0,7.877668304E0,-8.466843109E0,-1.191656937E1,1.660571334E1
1.745212167E0,9.487271118E0,-9.145980835E0,-1.391850632E1,1.916721411E1
1.755134167E0,1.003243744E1,-1.034109558E1,-1.430275726E1,2.030164831E1
1.765056167E0,1.067684738E1,-1.032882111E1,-1.371807312E1,2.022041408E1
1.774979167E0,1.172391998E1,-9.401499481E0,-1.246847168E1,1.952693725E1
1.784901167E0,1.179981216E1,-8.931027832E0,-1.113968491E1,1.852272672E1
1.794823167E0,1.109867020E1,-8.360863495E0,-1.037432648E1,1.734102559E1
1.804745167E0,1.002270767E1,-8.450676727E0,-8.958121490E0,1.587817832E1
1.814667167E0,6.760391693E0,-8.740025024E0,-5.774990845E0,1.246761615E1
1.824589167E0,4.478237457E0,-8.219557343E0,-2.954406281E0,9.815510690E0
1.834511167E0,5.978567505E0,-9.021739197E0,-1.025218048E0,1.087134396E1
1.844433167E0,8.050259399E0,-7.577392731E0,3.855981445E-1,1.106219883E1
1.854355167E0,1.035576508E1,-7.018604736E0,1.140478363E0,1.256198128E1
1.864278167E0,9.301806793E0,-8.775501251E0,1.297352142E0,1.285364362E1
1.874200167E0,6.914571075E0,-1.036519547E1,1.675166473E0,1.257198285E1
1.884122167E0,6.060147858E0,-1.096963852E1,2.117197266E0,1.270987355E1
1.894044167E0,5.931116180E0,-1.119312378E1,2.488275604E0,1.290951876E1
1.903966167E0,5.259313202E0,-1.068912186E1,3.151546326E0,1.232274100E1
1.913888167E0,6.156098328E0,-1.003827530E1,3.106939087E0,1.217857086E1
1.923810167E0,8.317304077E0,-9.213939514E0,2.938539276E0,1.275575327E1
1.933732167E0,9.465266876E0,-8.619375916E0,3.213068390E0,1.319881535E1
1.943655167E0,9.733509064E0,-8.471333771E0,3.202141113E0,1.329505180E1
1.953577167E0,9.626781006E0,-8.353828125E0,2.818039856E0,1.305383873E1
1.963499167E0,8.173902283E0,-7.611521759E0,3.114872589E0,1.159527375E1
1.973421167E0,7.763455811E0,-6.796915741E0,2.172282715E0,1.054457784E1
1.983343167E0,7.509434052E0,-6.196514282E0,1.564696198E0,9.860865237E0
1.993265167E0,7.187752991E0,-5.934109955E0,1.053359528E0,9.380139674E0
2.003187167E0,7.063960419E0,-5.750441895E0,5.384303284E-1,9.124528810E0
2.013109167E0,6.932533722E0,-5.620212708E0,-6.945556641E-2,8.924776678E0
2.023032167E0,6.900200958E0,-5.161267090E0,-5.707630920E-1,8.635810428E0
2.032954167E0,6.386918335E0,-4.991370392E0,-1.230291595E0,8.198787814E0
2.042876167E0,6.243965607E0,-4.955445099E0,-1.814826050E0,8.175398230E0
2.052798167E0,6.619684296E0,-4.876110077E0,-2.147883453E0,8.497651028E0
2.062720167E0,7.219037933E0,-4.485272827E0,-2.119442596E0,8.759236150E0
2.072642167E0,7.504644012E0,-3.697461090E0,-1.936822357E0,8.587326773E0
2.082563833E0,7.669151917E0,-3.319796448E0,-2.033072205E0,8.600600105E0
2.092485833E0,7.637717285E0,-2.968027954E0,-2.404000854E0,8.539504399E0
2.102407833E0,7.228168945E0,-2.596650238E0,-2.873873749E0,8.200498100E0
2.112330833E0,6.638994141E0,-2.381547546E0,-3.580404510E0,7.909949960E0
2.122252833E0,6.051316223E0,-2.141895905E0,-3.699706421E0,7.409046747E0
2.132174833E0,5.649551697E0,-1.939516754E0,-3.181184692E0,6.767502912E0
2.142096833E0,5.308411102E0,-2.245480499E0,-2.791844330E0,6.404358349E0
2.152018833E0,4.993615723E0,-2.908002777E0,-2.713108063E0,6.383857259E0
2.161940833E0,4.943470001E0,-3.175945587E0,-2.032623138E0,6.217401616E0
2.171862833E0,4.714745636E0,-3.673061829E0,-1.708247681E0,6.215972953E0
2.181784833E0,4.616549835E0,-4.056264954E0,-1.380429382E0,6.298523877E0
2.191707833E0,4.461322632E0,-4.532424774E0,-1.035546570E0,6.443495221E0
2.201629833E0,4.546794891E0,-4.550986176E0,-1.099763031E0,6.526430700E0
2.211551833E0,5.111121368E0,-4.625231781E0,-1.134341125E0,6.985918727E0
2.221473833E0,6.022575989E0,-4.272265778E0,-1.128652954E0,7.469774689E0
2.231395833E0,7.449708252E0,-3.827091522E0,-1.199156342E0,8.460659460E0
2.241317833E0,8.536298676E0,-3.830085297E0,-1.080752563E0,9.418384923E0
2.251239833E0,9.418863373E0,-4.085454254E0,-1.194665680E0,1.033601228E1
2.261161833E0,1.039213943E1,-4.316274261E0,-1.582509155E0,1.136358750E1
2.271084833E0,1.123832977E1,-4.116439819E0,-2.171234894E0,1.216385604E1
2.281006833E0,1.202733902E1,-3.822301483E0,-2.603236542E0,1.288579501E1
2.290928833E0,1.272728348E1,-3.647465057E0,-2.851121063E0,1.354313986E1
2.300850833E0,1.314850754E1,-3.576961670E0,-3.141816559E0,1.398388060E1
2.310772833E0,1.356164841E1,-4.028572540E0,-3.567231903E0,1.459016270E1
2.320694833E0,1.340342743E1,-4.646188202E0,-3.816313934E0,1.469024110E1
2.330616833E0,1.272279282E1,-5.230572968E0,-3.960613861E0,1.431484589E1
2.340538833E0,1.193153824E1,-5.854625244E0,-4.158951416E0,1.392605897E1
2.350460833E0,1.102442459E1,-6.848408661E0,-4.538562012E0,1.374907938E1
2.360383833E0,9.787546692E0,-7.299420776E0,-4.766987000E0,1.310731776E1
2.370305833E0,9.663454742E0,-6.814878387E0,-5.071453857E0,1.286641245E1
2.380227833E0,1.085662354E1,-6.598278809E0,-4.220772858E0,1.338725070E1
2.390149833E0,1.224708206E1,-5.730832672E0,-2.439626770E0,1.373991415E1
2.400071833E0,1.355551117E1,-4.913831635E0,-1.110390930E0,1.446134822E1
2.409993833E0,1.354817642E1,-5.276527405E0,1.802252197E-1,1.454054012E1
2.419915833E0,1.282083893E1,-6.737788696E0,7.893086243E-1,1.450498933E1
2.429837833E0,1.164668060E1,-8.002808075E0,1.497336273E0,1.421028227E1
2.439760833E0,1.093056976E1,-8.869356079E0,2.548749847E0,1.430520739E1
2.449682833E0,1.069675598E1,-9.392518158E0,3.243754578E0,1.460006608E1
2.459604833E0,1.061757065E1,-9.807455292E0,3.315904541E0,1.482950467E1
2.469526833E0,1.038465500E1,-1.005519012E1,3.305276642E0,1.482810715E1
2.479448833E0,9.918674011E0,-1.027134064E1,3.010539551E0,1.459259679E1
2.489370833E0,9.454788666E0,-1.023346939E1,2.545007629E0,1.416312071E1
2.499292833E0,8.935817871E0,-9.754465485E0,2.094294891E0,1.339345023E1
2.509214833E0,8.246052246E0,-9.104367371E0,1.653162231E0,1.239434662E1
2.519136833E0,7.396419067E0,-8.664731598E0,1.192270660E0,1.145452304E1
2.529059833E0,6.448739777E0,-8.359366608E0,3.433859253E-1,1.056329346E1
2.538981833E0,5.606291656E0,-8.223299561E0,-5.046006775E-1,9.965329079E0
2.548903833E0,4.848866730E0,-8.006999359E0,-1.880838776E0,9.547832309E0
2.558825833E0,4.741240540E0,-6.862629089E0,-4.034410400E0,9.265608839E0
2.568747833E0,4.751868439E0,-5.754034424E0,-5.054239655E0,9.013018601E0
2.578669833E0,4.766088867E0,-5.583988037E0,-5.246739349E0,9.023569099E0
2.588591833E0,5.119204559E0,-5.132526855E0,-5.394182739E0,9.035833922E0
2.598513833E0,5.100493469E0,-4.652175751E0,-5.205125885E0,8.645872329E0
2.608436833E0,4.909790039E0,-4.076173553E0,-4.383334808E0,7.741760336E0
2.618358833E0,4.770130463E0,-3.582051086E0,-3.476819916E0,6.904600737E0
2.628280833E0,4.361779633E0,-2.905308380E0,-2.349514160E0,5.743357479E0
2.638202833E0,4.494852905E0,-2.428849182E0,-1.084195404E0,5.222881452E0
2.648124833E0,4.816533966E0,-2.095791779E0,5.292993164E-1,5.279346588E0
2.658046833E0,5.317242737E0,-1.656455383E0,1.928589478E0,5.893757047E0
2.667968833E0,6.082451477E0,-1.543739777E0,1.921105042E0,6.562773274E0
2.677890833E0,6.806346130E0,-1.476080475E0,2.242486725E0,7.316686950E0
2.687812833E0,6.572532349E0,-1.279688873E0,2.615361328E0,7.188595131E0
2.697735833E0,6.169420624E0,-1.455573120E0,1.688488770E0,6.559835232E0
2.707657833E0,5.581892395E0,-1.835632782E0,2.715353394E-1,5.882244628E0
2.717579833E0,4.287534027E0,-2.207160187E0,-7.295828247E-1,4.877170821E0
2.727501833E0,3.153791656E0,-2.264490967E0,-1.178499298E0,4.057484658E0
2.737423833E0,2.907104645E0,-2.530787201E0,-1.723665619E0,4.222222689E0
2.747345833E0,3.303779755E0,-3.227288818E0,-2.131567383E0,5.086642635E0
2.757267833E0,3.630699921E0,-3.951333160E0,-2.250420227E0,5.818883644E0
2.767189833E0,3.796405334E0,-4.759652252E0,-2.468367004E0,6.569613283E0
2.777112833E0,3.893104248E0,-5.751639404E0,-2.787802734E0,7.483946860E0
2.787034833E0,4.240681458E0,-6.877148895E0,-3.265609131E0,8.714514281E0
2.796956833E0,4.762795715E0,-7.602989502E0,-3.902384949E0,9.783571980E0
2.806878833E0,5.312602386E0,-7.563771057E0,-4.758754120E0,1.039615879E1
2.816800833E0,6.187532959E0,-7.570357361E0,-6.267017670E0,1.161341402E1
2.826722833E0,7.437284088E0,-8.336613922E0,-8.059091034E0,1.377538655E1
2.836644833E0,8.707841949E0,-8.792715454E0,-9.925709381E0,1.586373421E1
2.846566833E0,9.795031128E0,-9.085506592E0,-1.170206543E1,1.776027590E1
2.856488833E0,1.009410919E1,-9.397607574E0,-1.261801071E1,1.869278638E1
2.866411833E0,1.069915100E1,-8.740324402E0,-1.256307495E1,1.867340234E1
2.876333833E0,1.184621567E1,-7.497159576E0,-1.197360077E1,1.843657622E1
2.886255833E0,1.165715881E1,-6.652615814E0,-1.153830597E1,1.769969360E1
2.896177833E0,1.156390274E1,-5.710475006E0,-1.117291580E1,1.706362854E1
2.906099833E0,1.048973648E1,-4.727918243E0,-9.441017303E0,1.488356779E1
2.916021833E0,6.699169006E0,-5.326224060E0,-6.489754486E0,1.074078402E1
2.925943833E0,5.592370605E0,-6.474486237E0,-3.266207886E0,9.157603124E0
2.935865833E0,7.997568970E0,-7.537126465E0,-9.877958679E-1,1.103381736E1
2.945787833E0,9.545649719E0,-8.201594696E0,6.342311096E-1,1.260110444E1
2.955710833E0,9.996661835E0,-9.286239166E0,1.626218262E0,1.374089049E1
2.965632833E0,1.034034714E1,-9.362580414E0,2.399360504E0,1.415406732E1
2.975554833E0,1.060424835E1,-9.539063416E0,1.175056458E-1,1.426385718E1
2.985476833E0,1.027029282E1,-1.051937485E1,-1.040186920E0,1.473832251E1
2.995398833E0,1.063194077E1,-9.754315796E0,-6.399192810E-1,1.444279536E1
3.005320833E0,1.011551468E1,-8.719218292E0,9.363029480E-1,1.338749671E1
3.015242833E0,9.736502838E0,-7.777825928E0,1.849404144E0,1.259818873E1
3.025164833E0,9.030570831E0,-7.273075562E0,1.695224762E0,1.171847365E1
3.035087833E0,8.656199341E0,-6.604266357E0,1.719324646E0,1.102280356E1
3.045009833E0,8.828790436E0,-5.668412476E0,1.720522156E0,1.063196299E1
3.054931833E0,8.369246063E0,-5.596112823E0,1.255439301E0,1.014578170E1
3.064853833E0,7.629783783E0,-5.305117950E0,1.027613068E0,9.349538259E0
3.074775833E0,7.046596527E0,-5.064568176E0,1.096170502E0,8.746768729E0
3.084697458E0,6.503376160E0,-4.841382294E0,1.342408447E0,8.217964738E0
3.094619458E0,6.177054749E0,-4.737348633E0,1.279239807E0,7.888911960E0
3.104541458E0,5.861959991E0,-4.718188477E0,1.409618683E0,7.655775746E0
3.114463458E0,5.558690643E0,-4.618196411E0,1.534010010E0,7.387825558E0
3.124386458E0,5.375022583E0,-4.561763763E0,1.513053589E0,7.210401346E0
3.134308458E0,5.186265106E0,-4.474644928E0,1.305285645E0,6.973059845E0
3.144230458E0,5.109474792E0,-4.278403015E0,9.855505371E-1,6.736673873E0
3.154152458E0,5.078938293E0,-4.026925964E0,6.372248840E-1,6.512895091E0
3.164074458E0,5.190905457E0,-3.650458832E0,2.686912537E-1,6.351656802E0
3.173996458E0,5.439538422E0,-3.252735901E0,-6.346801758E-2,6.338209311E0
3.183918458E0,5.631589050E0,-2.774630127E0,-3.254232788E-1,6.286435229E0
3.193840458E0,5.841901703E0,-2.324665833E0,-6.415658569E-1,6.320086510E0
3.203762458E0,6.104605408E0,-1.977088623E0,-1.439107361E0,6.576177963E0
3.213685458E0,6.230194244E0,-1.715283051E0,-2.508932648E0,6.931973694E0
3.223607458E0,6.376739502E0,-2.098935242E0,-3.999981995E0,7.814613988E0
3.233529458E0,6.402635651E0,-2.181413727E0,-4.191583557E0,7.957492183E0
3.243451458E0,6.157445526E0,-2.134860535E0,-4.770429840E0,8.076432738E0
3.253373458E0,6.124813385E0,-2.894530792E0,-6.322552185E0,9.266407807E0
3.263295458E0,6.495143280E0,-3.528761902E0,-7.034022675E0,1.020375038E1
3.273217458E0,6.697372742E0,-3.937262421E0,-6.447392578E0,1.009582627E1
3.283139458E0,7.119644623E0,-3.536246338E0,-5.551355896E0,9.695974938E0
3.293061458E0,7.753576355E0,-2.767894135E0,-4.398004303E0,9.333896618E0
3.302984458E0,8.292306061E0,-2.521057434E0,-3.050805817E0,9.188334263E0
3.312906458E0,8.665629730E0,-2.723586273E0,-1.608405304E0,9.224859263E0
3.322828458E0,8.749305725E0,-2.693498840E0,-7.294331360E-1,9.183537411E0
3.332750458E0,8.978179779E0,-2.963537292E0,-3.360511780E-1,9.460612867E0
3.342672458E0,9.185648346E0,-3.173999634E0,-1.321751404E-1,9.719458806E0
3.352594458E0,9.327253876E0,-3.259172516E0,-2.282752991E-1,9.882913536E0
3.362516458E0,9.509874115E0,-3.173101501E0,-5.566923523E-1,1.004072633E1
3.372438458E0,9.466314697E0,-2.904859314E0,-1.079405365E0,9.960644433E0
3.382360458E0,9.332942047E0,-2.639311523E0,-1.731299744E0,9.852267322E0
3.392283458E0,9.224417725E0,-2.475402374E0,-2.384840698E0,9.844031919E0
3.402205458E0,9.247020721E0,-2.548300781E0,-2.713257751E0,9.968098952E0
3.412127458E0,9.561965790E0,-3.074756012E0,-2.477498016E0,1.034520714E1
3.422049458E0,9.921518097E0,-3.456611938E0,-1.879641266E0,1.067322532E1
3.431971458E0,1.034962784E1,-3.580105133E0,-1.536405029E0,1.105859347E1
3.441893458E0,1.084075653E1,-3.734733582E0,-1.814227295E0,1.160868889E1
3.451815458E0,1.108938950E1,-3.982318726E0,-2.341131592E0,1.201308948E1
3.461737458E0,1.101858673E1,-4.061354370E0,-3.138224030E0,1.215534051E1
3.471659458E0,1.052042267E1,-4.047882385E0,-4.163292389E0,1.201655726E1
3.481582458E0,9.845476227E0,-3.896996155E0,-4.931644592E0,1.168080047E1
3.491504458E0,9.720037079E0,-3.780688019E0,-5.386249237E0,1.173816014E1
3.501426458E0,1.010294083E1,-3.761228485E0,-5.022505646E0,1.189293135E1
3.511348458E0,1.055889267E1,-3.450325012E0,-3.633244629E0,1.168740449E1
3.521270458E0,1.109043732E1,-3.369343414E0,-2.013762360E0,1.176458728E1
3.531192458E0,1.120599701E1,-3.918251953E0,-4.626878357E-1,1.188028398E1
3.541114458E0,1.080857346E1,-4.659959564E0,6.158193970E-1,1.178642087E1
3.551036458E0,1.018946091E1,-5.927673340E0,7.619155884E-1,1.181282947E1
3.560958458E0,1.044857208E1,-7.522456970E0,7.458988953E-1,1.289637091E1
3.570881458E0,1.166808609E1,-8.405770111E0,1.162482605E0,1.442749354E1
3.580803458E0,1.285661453E1,-8.556506653E0,1.213376770E0,1.549124354E1
3.590725458E0,1.282772461E1,-8.959768066E0,9.937834167E-1,1.567850656E1
3.600647458E0,1.190429489E1,-1.020158569E1,1.093925171E0,1.571563743E1
3.610569458E0,1.119836288E1,-1.159279266E1,1.188827820E0,1.616197651E1
3.620491458E0,1.102128113E1,-1.240365646E1,9.503736877E-1,1.661994409E1
3.630413458E0,1.105915237E1,-1.246203506E1,7.110214233E-1,1.667671193E1
3.640335458E0,1.089584198E1,-1.191671906E1,4.418811035E-1,1.615310572E1
3.650257458E0,1.023212219E1,-1.116393448E1,1.082249451E-1,1.514402424E1
3.660180458E0,9.351503448E0,-9.877359924E0,-5.554948425E-1,1.361328140E1
3.670102458E0,8.539142761E0,-8.882378998E0,-1.545685730E0,1.241784040E1
3.680024458E0,7.625143433E0,-8.172555084E0,-2.619851990E0,1.148029152E1
3.689946458E0,7.225923615E0,-6.770869904E0,-4.247866516E0,1.077511120E1
3.699868458E0,5.451663208E0,-6.236181793E0,-5.535937958E0,9.962790983E0
3.709790458E0,4.475842438E0,-6.588099976E0,-6.006858673E0,9.975899856E0
3.719712458E0,4.415667572E0,-6.041436768E0,-6.420448608E0,9.859981676E0
3.729634458E0,4.546046448E0,-5.133275299E0,-5.508694611E0,8.795610832E0
3.739556458E0,4.856800232E0,-4.292024689E0,-3.877835999E0,7.552985930E0
3.749479458E0,5.532195740E0,-3.088227997E0,-1.848805389E0,6.600032063E0
3.759401458E0,6.203399963E0,-2.524949341E0,2.393522644E-1,6.701852713E0
3.769323458E0,6.769073639E0,-2.185904388E0,1.337019653E0,7.237828229E0
3.779245458E0,7.176825714E0,-7.897576904E-1,1.345701599E0,7.344484824E0
3.789167458E0,6.962022400E0,4.198768616E-1,1.295256500E0,7.093922884E0
3.799089458E0,6.589596863E0,1.206640778E0,1.396446075E0,6.843159389E0
3.809011458E0,5.948929138E0,1.600621490E0,1.319356384E0,6.300194308E0
3.818933458E0,5.178181915E0,1.766775970E0,1.188977509E0,5.598993909E0
3.828855458E0,3.724405060E0,2.136207733E0,1.234632568E0,4.467537813E0
3.838778458E0,2.473905487E0,1.062789917E0,7.932005310E-1,2.806937450E0
3.848700458E0,1.770518188E0,1.257385254E-1,7.725434875E-1,1.935812045E0
3.858622458E0,8.881031799E-1,-1.969903564E-1,1.101259918E0,1.428392756E0
3.868544458E0,5.676196289E-1,-6.625222778E-1,9.491761780E-1,1.289210312E0
3.878466458E0,1.130748596E0,-1.281485138E0,7.461982727E-1,1.864834687E0
3.888388458E0,1.805844727E0,-1.968107300E0,5.393284607E-1,2.724958111E0
3.898310458E0,2.633323975E0,-2.658172302E0,-1.302291870E-2,3.741716817E0
3.908232458E0,3.641926575E0,-3.222498779E0,-8.729846191E-1,4.940670977E0
3.918154458E0,4.436324615E0,-3.442092133E0,-2.174528046E0,6.021423965E0
3.928077458E0,5.393883362E0,-3.682192841E0,-3.751349030E0,7.531609481E0
3.937999458E0,6.574927368E0,-4.001029816E0,-5.618266754E0,9.529051936E0
3.947921458E0,9.444609833E0,-4.957989807E0,-7.351362762E0,1.295472317E1
3.957843458E0,1.255693771E1,-5.523663483E0,-8.898395691E0,1.635142162E1
3.967765458E0,1.382165771E1,-6.173462219E0,-1.069855225E1,1.853669005E1
3.977687458E0,1.499491791E1,-6.620582428E0,-1.344578934E1,2.120068220E1
3.987609458E0,1.457249634E1,-6.145620117E0,-1.616623215E1,2.261577675E1
3.997531458E0,1.431997147E1,-6.372398529E0,-1.814870956E1,2.398008975E1
4.007453458E0,1.385099670E1,-6.223757629E0,-1.690928696E1,2.272683995E1
4.017376458E0,1.281724640E1,-5.225333862E0,-1.279688873E1,1.885063077E1
4.027298458E0,9.839488678E0,-3.712280273E0,-8.095315704E0,1.327142414E1
4.037220458E0,6.954238586E0,-4.278552704E0,-6.114035797E0,1.020043535E1
4.047142458E0,7.164700928E0,-7.198530579E0,-7.517068176E0,1.263558846E1
4.057064458E0,1.051114197E1,-8.397237854E0,-6.460415497E0,1.492429822E1
4.066986458E0,1.355042175E1,-6.453080750E0,-1.195264435E0,1.505605652E1
4.076908458E0,1.469060074E1,-5.867049408E0,3.336561584E-1,1.582236851E1
4.086830792E0,1.571267532E1,-7.122788086E0,1.739532623E0,1.733921133E1
4.096752792E0,1.415905609E1,-6.209088135E0,7.684120789E0,1.726491695E1
4.106675792E0,1.330732727E1,-6.760391693E0,1.112666199E1,1.861694019E1
4.116597792E0,1.282503021E1,-7.787555695E0,9.506281586E0,1.776222996E1
4.126519792E0,1.069735474E1,-7.885601807E0,6.337521057E0,1.472346044E1
4.136441792E0,8.524173889E0,-7.713759155E0,4.849465485E0,1.247721669E1
4.146363792E0,1.004486160E1,-8.607849884E0,3.111579437E0,1.358956404E1
4.156285792E0,1.213631241E1,-9.500443726E0,2.278112640E0,1.558006120E1
4.166207792E0,1.309701462E1,-9.115893402E0,2.355352020E0,1.613006471E1
4.176129792E0,1.304103104E1,-7.958051147E0,2.604733429E0,1.549786130E1
4.186051792E0,1.225202179E1,-6.899901581E0,2.497406616E0,1.428137667E1
4.195974792E0,1.097353043E1,-5.970933380E0,2.287842407E0,1.270057630E1
4.205896792E0,1.003049149E1,-6.293362885E0,1.346300354E0,1.191762143E1
4.215818792E0,9.184301147E0,-6.594237213E0,7.679031372E-2,1.130669044E1
4.225740792E0,7.927814026E0,-6.858886871E0,-1.458566895E0,1.058404373E1
4.235662792E0,6.732250214E0,-6.880591736E0,-2.563868408E0,9.961885203E0
4.245584792E0,6.174210663E0,-5.943540344E0,-2.674488373E0,8.977718930E0
4.255506792E0,6.884034576E0,-4.448748779E0,-2.213596802E0,8.490071175E0
4.265428792E0,7.942034454E0,-2.753673706E0,-1.758393402E0,8.587815643E0
4.275350792E0,8.319250031E0,-1.566941528E0,-1.743873596E0,8.643281897E0
4.285272792E0,7.411687317E0,-1.041384430E0,-2.377805328E0,7.853123493E0
4.295195792E0,6.003266144E0,-9.306147766E-1,-2.923720093E0,6.741912743E0
4.305117792E0,4.800816650E0,-1.190624084E0,-2.807711334E0,5.687589046E0
4.315039792E0,3.839815063E0,-1.418300629E0,-2.820883942E0,4.971231498E0
4.324961792E0,3.411256256E0,-1.665736084E0,-3.131038971E0,4.920848604E0
4.334883792E0,3.339405670E0,-1.684896240E0,-3.372786255E0,5.036486145E0
4.344805792E0,2.420616302E0,-1.798210602E0,-3.938010864E0,4.959926836E0
4.354727792E0,1.347647552E0,-2.366578674E0,-5.004542999E0,5.697569585E0
4.364649792E0,1.504671021E0,-2.848726044E0,-5.652096405E0,6.505802696E0
4.374571792E0,2.442470856E0,-2.725382538E0,-4.810995483E0,6.044754040E0
4.384494792E0,2.735860748E0,-2.706970825E0,-4.204456787E0,5.700007189E0
4.394416792E0,3.398532715E0,-2.735561371E0,-4.150568848E0,6.021672723E0
4.404338792E0,3.971840515E0,-2.832559662E0,-3.492836609E0,5.999901574E0
4.414260792E0,4.872068481E0,-2.964435425E0,-3.046315155E0,6.465675889E0
4.424182792E0,6.004912720E0,-3.146756287E0,-2.711611176E0,7.301635917E0
4.434104792E0,7.217840424E0,-2.941533051E0,-2.262545013E0,8.115968642E0
4.444026792E0,8.500074005E0,-2.362986145E0,-1.785037994E0,9.001184492E0
4.453948792E0,9.674382019E0,-2.299667816E0,-1.392254791E0,1.004094183E1
4.463870792E0,1.061742096E1,-2.716999969E0,-1.185834045E0,1.102351664E1
4.473793792E0,1.166105072E1,-3.464695129E0,-1.107995911E0,1.221523111E1
4.483715792E0,1.321916061E1,-3.913461914E0,-1.207538910E0,1.383905856E1
4.493637792E0,1.499252289E1,-3.963308258E0,-1.792971497E0,1.561083924E1
4.503559792E0,1.630140106E1,-3.932322693E0,-2.559228058E0,1.696315085E1
4.513481792E0,1.713382004E1,-4.014801178E0,-3.454067230E0,1.793368334E1
4.523403792E0,1.697964066E1,-4.547393646E0,-4.148323517E0,1.806088519E1
4.533325792E0,1.564591415E1,-4.734055481E0,-4.088148651E0,1.684989230E1
4.543247792E0,1.571447159E1,-4.795278168E0,-3.237317963E0,1.674573192E1
4.553169792E0,1.603495514E1,-4.826563110E0,-2.144141235E0,1.688232328E1
4.563092792E0,1.633822449E1,-5.459896088E0,-1.070424042E0,1.725960174E1
4.573014792E0,1.528396683E1,-6.679559784E0,-9.711804199E-1,1.670806249E1
4.582936792E0,1.321137680E1,-9.130113831E0,-1.823208618E0,1.616241149E1
4.592858792E0,1.055515045E1,-1.129161896E1,-1.131946106E0,1.549816640E1
4.602780792E0,8.480315094E0,-1.253089188E1,1.559457092E0,1.521088103E1
4.612702792E0,8.556057587E0,-1.170730453E1,3.306324463E0,1.487275638E1
4.622624792E0,1.001222946E1,-1.073956696E1,2.924618225E0,1.497118662E1
4.632546792E0,1.221504868E1,-1.119013000E1,2.795586548E0,1.680005142E1
4.642468792E0,1.360999786E1,-1.163859741E1,2.888094177E0,1.813918630E1
4.652391792E0,1.360865067E1,-1.145298340E1,2.479443970E0,1.795867044E1
4.662313792E0,1.241667938E1,-1.039558228E1,1.913470917E0,1.630654558E1
4.672235792E0,1.097233292E1,-9.240883484E0,1.508562927E0,1.442434675E1
4.682157792E0,9.394913177E0,-8.504864044E0,7.460485840E-1,1.269463251E1
4.692079792E0,7.943531342E0,-7.996670837E0,1.094224548E-1,1.127201880E1
4.702001792E0,6.608757019E0,-7.268734589E0,-1.228944397E-1,9.824727727E0
4.711923792E0,5.499862976E0,-6.441554718E0,9.909393311E-2,8.470651660E0
4.721845792E0,4.541855164E0,-5.780828705E0,5.739065552E-1,7.373994682E0
4.731767792E0,3.936214600E0,-5.257666626E0,1.150806885E0,6.667923231E0
4.741690792E0,3.448977814E0,-4.498894501E0,1.669328613E0,5.909497247E0
4.751612792E0,3.603456573E0,-3.359314270E0,1.829645233E0,5.255234849E0
4.761534792E0,4.957690430E0,-2.028282166E0,1.002914429E0,5.449629372E0
4.771456792E0,6.408473511E0,-7.427554321E-1,-6.604266357E-1,6.485089183E0
4.781378792E0,7.118746490E0,3.935316467E-1,-3.096311188E0,7.772937780E0
4.791300792E0,7.355703735E0,1.755549316E0,-5.756130066E0,9.503755267E0
4.801222792E0,5.686075745E0,1.831890564E0,-7.602540436E0,9.668810759E0
4.811144792E0,4.407734070E0,1.441203003E0,-8.237519989E0,9.453143461E0
4.821066792E0,4.311184845E0,5.101391602E-1,-7.253017273E0,8.452976771E0
4.830988792E0,4.700076141E0,-4.002676392E-1,-5.361550598E0,7.141229217E0
4.840911792E0,4.660408630E0,-9.536668396E-1,-2.638263702E0,5.439607008E0
4.850833792E0,4.204456787E0,-1.237027588E0,5.349874878E-1,4.415190340E0
4.860755792E0,3.847898254E0,-1.149759064E0,2.355950775E0,4.656046707E0
4.870677792E0,3.737727356E0,-9.821076965E-1,3.253634033E0,5.051858642E0
4.880599792E0,3.713777161E0,-1.035845947E0,3.302432556E0,5.076532125E0
4.890521792E0,3.698808289E0,-1.165626068E0,2.375260620E0,4.547716999E0
4.900443792E0,3.425776062E0,-1.408271484E0,1.125659180E0,3.871211540E0
4.910365792E0,3.289858704E0,-1.722168732E0,-2.164498901E-1,3.719662079E0
4.920287792E0,3.478616180E0,-1.963017883E0,-1.786085815E0,4.375421383E0
4.930210792E0,4.087400208E0,-2.513123932E0,-3.316952362E0,5.833078546E0
4.940132792E0,5.022505646E0,-3.309767303E0,-4.735851746E0,7.655613256E0
4.950054792E0,6.305188293E0,-4.415667572E0,-6.487209778E0,1.006664841E1
4.959976792E0,7.975415039E0,-5.773194580E0,-8.835975494E0,1.322919059E1
4.969898792E0,9.714049530E0,-6.911577301E0,-1.139939484E1,1.649481318E1
4.979820792E0,1.193842392E1,-7.601941681E0,-1.342588074E1,1.950819716E1
4.989742792E0,1.452773941E1,-7.755671997E0,-1.396041916E1,2.158932522E1
4.999664792E0,1.654509430E1,-7.309749298E0,-1.322275314E1,2.240566404E1
5.009586792E0,1.719519241E1,-6.136040039E0,-1.208212509E1,2.189299834E1
5.019508792E0,1.496378265E1,-4.849914551E0,-1.088162155E1,1.912710511E1
5.029431792E0,1.319670731E1,-3.744613037E0,-9.536818085E0,1.670706766E1
5.039353792E0,9.773625641E0,-3.053649902E0,-8.178991699E0,1.310513034E1
5.049275792E0,6.222260742E0,-3.235372009E0,-7.020850067E0,9.923532458E0
5.059197792E0,5.109175415E0,-3.094814301E0,-6.891069946E0,9.119670717E0
5.069119792E0,5.098547516E0,-3.287613373E0,-7.553143158E0,9.687804706E0
5.079041792E0,6.233786774E0,-4.630171509E0,-6.484665070E0,1.011679133E1
5.088963208E0,7.863896942E0,-4.912634125E0,-4.432881775E0,1.027741650E1
5.098885208E0,1.025337799E1,-6.741680603E0,-1.708996124E0,1.238962006E1
5.108807208E0,1.304656952E1,-1.014021332E1,3.438649292E0,1.687783195E1
5.118730208E0,1.407972107E1,-9.232500916E0,6.032754822E0,1.788495874E1
5.128652208E0,1.386222336E1,-8.011490021E0,3.264261932E0,1.634015345E1
5.138574208E0,1.395263535E1,-7.458090820E0,1.357676697E0,1.587899360E1
5.148496208E0,1.187420746E1,-6.871909790E0,4.225712585E-1,1.372583380E1
5.158418208E0,9.257498932E0,-6.238127747E0,8.893006897E-1,1.119849901E1
5.168340208E0,7.440876617E0,-5.383854218E0,1.623074799E0,9.326676947E0
5.178262208E0,8.615783386E0,-5.730383606E0,1.200503540E0,1.041682429E1
5.188184208E0,9.756710815E0,-5.943540344E0,1.101259918E0,1.147744968E1
5.198106208E0,9.729766846E0,-5.910309448E0,1.513053589E0,1.148431329E1
5.208028208E0,9.633067932E0,-5.929768982E0,2.011067963E0,1.148923637E1
5.217951208E0,9.310937805E0,-5.895789642E0,1.989363098E0,1.119872599E1
5.227873208E0,9.034762115E0,-5.633984070E0,1.873354340E0,1.081102028E1
5.237795208E0,8.711584167E0,-5.398374023E0,1.712588654E0,1.039072186E1
5.247717208E0,8.255033569E0,-5.144352264E0,1.705403595E0,9.875137512E0
5.257639208E0,7.728578339E0,-4.814288635E0,1.003213806E0,9.160498684E0
5.267561208E0,7.365583191E0,-4.510869598E0,1.362167358E-1,8.638189352E0
5.277483208E0,6.966513062E0,-4.245321808E0,-5.403762817E-1,8.176005627E0
5.287405208E0,6.649023285E0,-3.852987671E0,-1.032552795E0,7.753785521E0
5.297327208E0,6.668482819E0,-3.286715240E0,-1.569486237E0,7.598318710E0
5.307249208E0,6.860234070E0,-2.701132965E0,-1.735790405E0,7.574424012E0
5.317172208E0,6.920858002E0,-2.090702362E0,-1.666634216E0,7.419365300E0
5.327094208E0,6.781946869E0,-1.695374451E0,-1.476379852E0,7.144843968E0
5.337016208E0,6.915020142E0,-1.458117828E0,-1.363364868E0,7.197386673E0
5.346938208E0,6.969806213E0,-1.240021362E0,-1.322050781E0,7.201643555E0
5.356860208E0,6.774612122E0,-8.848100281E-1,-1.277144165E0,6.950493177E0
5.366782208E0,6.678212585E0,-8.056246948E-1,-1.392703857E0,6.869292432E0
5.376704208E0,6.688092041E0,-8.156538391E-1,-1.796564026E0,6.973055904E0
5.386626208E0,6.709347839E0,-6.514453125E-1,-2.315684509E0,7.127560885E0
5.396548208E0,6.482569427E0,-5.969586182E-1,-2.725532227E0,7.057520237E0
5.406471208E0,5.899980927E0,-9.937834167E-1,-3.175945587E0,6.773773748E0
5.416393208E0,5.463638306E0,-1.691781921E0,-3.402574310E0,6.655146996E0
5.426315208E0,5.041815491E0,-2.398013306E0,-3.134631500E0,6.402834208E0
5.436237208E0,4.799469452E0,-3.170107727E0,-2.961142273E0,6.469378145E0
5.446159208E0,4.918322296E0,-3.869603119E0,-2.619402924E0,6.784172328E0
5.456081208E0,5.276078339E0,-4.297563171E0,-2.401007080E0,7.216015995E0
5.466003208E0,5.921835480E0,-4.128714294E0,-2.341880035E0,7.589388597E0
5.475925208E0,7.055128784E0,-3.834575958E0,-2.426154785E0,8.388387329E0
5.485847208E0,8.063731384E0,-3.127596130E0,-2.410587158E0,8.978672053E0
5.495769208E0,9.128317566E0,-2.678230591E0,-2.514022064E0,9.839685342E0
5.505692208E0,1.013272888E1,-2.399061127E0,-2.522554321E0,1.071405475E1
5.515614208E0,1.085123474E1,-2.279310150E0,-2.504591675E0,1.136738887E1
5.525536208E0,1.172975784E1,-2.201771393E0,-2.473007355E0,1.218814103E1
5.535458208E0,1.267219803E1,-2.211501160E0,-2.444267120E0,1.309388338E1
5.545380208E0,1.360670471E1,-2.390678558E0,-2.465672607E0,1.403343502E1
5.555302208E0,1.465213074E1,-2.290836182E0,-2.666105804E0,1.506787927E1
5.565224208E0,1.543784683E1,-2.177372131E0,-2.956651611E0,1.586851767E1
5.575146208E0,1.551748123E1,-2.377655640E0,-2.997516632E0,1.598219560E1
5.585068208E0,1.570189774E1,-2.851719818E0,-2.944826202E0,1.622818227E1
5.594990208E0,1.466859650E1,-3.604654083E0,-3.400628357E0,1.548307229E1
5.604913208E0,1.306468185E1,-4.179159393E0,-4.214934998E0,1.434980704E1
5.614835208E0,1.156629776E1,-4.496349792E0,-5.100942535E0,1.341700488E1
5.624757208E0,1.095302307E1,-4.888234863E0,-5.250930634E0,1.309335049E1
5.634679208E0,1.099703156E1,-4.502786407E0,-4.578678589E0,1.273475897E1
5.644601208E0,1.186477707E1,-3.365750885E0,-3.652704163E0,1.286248272E1
5.654523208E0,1.287592438E1,-2.603685608E0,-2.421215057E0,1.335780258E1
5.664445208E0,1.268656815E1,-3.080743561E0,-1.318158875E0,1.312164376E1
5.674367208E0,1.211894852E1,-4.123924255E0,-7.393125916E-1,1.282272387E1
5.684289208E0,1.223001755E1,-4.597539368E0,-2.770738220E-1,1.306856792E1
5.694211208E0,1.223480759E1,-4.833299103E0,3.360511780E-1,1.315918794E1
5.704134208E0,1.201356766E1,-5.004243622E0,1.258732452E0,1.307488698E1
5.714056208E0,1.142603943E1,-5.360203400E0,1.758543091E0,1.274278742E1
5.723978208E0,1.077698914E1,-5.763913879E0,1.860481110E0,1.236234557E1
5.733900208E0,1.016266663E1,-6.343658295E0,1.794019318E0,1.211364102E1
5.743822208E0,9.610165558E0,-6.859485626E0,1.707349548E0,1.192991482E1
5.753744208E0,9.251960449E0,-7.176077271E0,1.481319580E0,1.180208307E1
5.763666208E0,8.662635956E0,-7.148085480E0,1.223256226E0,1.129746624E1
5.773588208E0,8.000113678E0,-6.986870728E0,9.509724426E-1,1.066407661E1
5.783510208E0,7.404202881E0,-6.826105042E0,8.887019348E-1,1.010978345E1
5.793432208E0,6.757248230E0,-6.611750793E0,8.900491333E-1,9.495674787E0
5.803355208E0,6.309678955E0,-6.338269501E0,9.369017029E-1,8.992413112E0
5.813277208E0,5.667514343E0,-6.038143616E0,8.595126343E-1,8.325782793E0
5.823199208E0,5.586383057E0,-5.760620728E0,3.909869385E-1,8.034008813E0
5.833121208E0,5.796396332E0,-5.104984131E0,-8.226892090E-1,7.767618100E0
5.843043208E0,5.351222076E0,-4.496798859E0,-2.334994354E0,7.369462417E0
5.852965208E0,4.662953339E0,-4.818030853E0,-3.643722839E0,7.631072747E0
5.862887208E0,4.594844971E0,-4.353846130E0,-4.378095703E0,7.696512094E0
5.872809208E0,4.895868988E0,-3.177741852E0,-4.461322632E0,7.346494133E0
5.882731208E0,5.405858459E0,-2.327360229E0,-4.650828552E0,7.501341050E0
5.892653208E0,5.906716919E0,-1.897603912E0,-4.284989319E0,7.539982681E0
5.902576208E0,6.837032318E0,-1.412163391E0,-3.175197144E0,7.669491069E0
5.912498208E0,7.300019531E0,-1.281185760E0,-1.398841095E0,7.542445129E0
5.922420208E0,7.332352295E0,-1.327439575E0,-1.478924561E-1,7.453010008E0
5.932342208E0,6.497238922E0,-1.331331482E0,4.803511047E-1,6.649608583E0
5.942264208E0,5.904471588E0,-1.458866272E0,6.213578796E-1,6.113686380E0
5.952186208E0,5.644761658E0,-1.418450317E0,7.640112305E-1,5.870183016E0
5.962108208E0,5.917943573E0,-1.222358093E0,8.240364075E-1,6.098790982E0
5.972030208E0,6.031707001E0,-1.232836304E0,7.676037598E-1,6.204078515E0
5.981952208E0,6.180497589E0,-1.440903625E0,5.764512634E-1,6.372366104E0
5.991874208E0,5.811814270E0,-1.897154846E0,4.845423889E-1,6.132794057E0
6.001797208E0,5.386099548E0,-2.430046692E0,4.658312988E-1,5.927241691E0
6.011719208E0,5.123395844E0,-3.100652161E0,3.077600098E-1,5.996494394E0
6.021641208E0,5.281018066E0,-3.791615295E0,-1.652563477E-1,6.503292091E0
6.031563208E0,5.574857025E0,-4.526437225E0,-7.909552002E-1,7.224491327E0
6.041485208E0,5.865851898E0,-5.235662384E0,-1.346150665E0,7.976998226E0
6.051407208E0,6.284680939E0,-6.027216339E0,-2.221530304E0,8.986642765E0
6.061329208E0,6.469396820E0,-6.530619507E0,-3.410208435E0,9.804672760E0
6.071251208E0,6.471342773E0,-6.717131653E0,-4.753964081E0,1.046892112E1
6.081173208E0,7.029981079E0,-7.013066254E0,-6.027665405E0,1.161621636E1
6.091095833E0,7.979306946E0,-7.499853973E0,-7.468419342E0,1.325497780E1
6.101018833E0,9.043593750E0,-7.890391846E0,-8.928183746E0,1.495852053E1
6.110940833E0,1.016700760E1,-7.786507874E0,-1.044482986E1,1.652550209E1
6.120862833E0,1.125030487E1,-7.189399567E0,-1.194246552E1,1.791310438E1
6.130784833E0,1.184995789E1,-6.411317596E0,-1.276545410E1,1.856026168E1
6.140706833E0,1.222328156E1,-5.233716431E0,-1.311123505E1,1.867364143E1
6.150628833E0,1.245978973E1,-4.205803986E0,-1.269165756E1,1.827603127E1
6.160550833E0,1.254645950E1,-4.007017365E0,-1.154070099E1,1.751164223E1
6.170472833E0,1.249242188E1,-3.884272614E0,-9.087602234E0,1.592898906E1
6.180394833E0,1.159264297E1,-3.333118744E0,-5.984854431E0,1.346541994E1
6.190316833E0,9.997859344E0,-2.517015839E0,-3.957470398E0,1.104328448E1
6.200239833E0,7.148384857E0,-3.314407654E0,-3.733087006E0,8.718981750E0
6.210161833E0,6.188580780E0,-4.468058624E0,-4.248914337E0,8.735865898E0
6.220083833E0,7.465724945E0,-4.785398712E0,-3.937711487E0,9.702714133E0
6.230005833E0,9.417815552E0,-4.779560852E0,-2.153421936E0,1.077852855E1
6.239927833E0,1.096439941E1,-5.140310669E0,3.882925415E-1,1.211575913E1
6.249849833E0,1.246113693E1,-7.503596191E0,3.665876770E0,1.500075138E1
6.259771833E0,1.194396240E1,-7.838599548E0,5.339246979E0,1.525153891E1
6.269693833E0,1.164548309E1,-7.080725555E0,2.817890167E0,1.391741556E1
6.279615833E0,1.040965302E1,-7.767946472E0,-1.422042847E-2,1.298853612E1
6.289537833E0,8.101752319E0,-7.887098694E0,-3.863465881E-1,1.131344245E1
6.299459833E0,8.636290741E0,-8.027207336E0,-5.078938293E-1,1.180167495E1
6.309382833E0,8.923244019E0,-7.544311523E0,6.706054688E-2,1.168526496E1
6.319304833E0,9.141939240E0,-6.336772614E0,1.104852448E0,1.117812324E1
6.329226833E0,9.652826843E0,-5.180127869E0,1.473685455E0,1.105362111E1
6.339148833E0,9.218430176E0,-4.699776764E0,1.558109894E0,1.046398887E1
6.349070833E0,8.466543732E0,-4.568948822E0,1.473685455E0,9.732903211E0
6.358992833E0,8.092621307E0,-4.468507690E0,1.353934479E0,9.342976998E0
6.368914833E0,7.864495697E0,-4.263434143E0,9.383985901E-1,8.994873828E0
6.378836833E0,7.594157867E0,-4.189188538E0,8.448431396E-1,8.714028589E0
6.388758833E0,7.461084595E0,-4.357887726E0,7.258406067E-1,8.670975340E0
6.398680833E0,7.408992920E0,-4.437821503E0,5.029541016E-1,8.651034540E0
6.408603833E0,7.320227509E0,-4.352049866E0,-1.960922241E-2,8.516246434E0
6.418525833E0,7.181016998E0,-4.129911804E0,-4.496649170E-1,8.296106025E0
6.428447833E0,7.016359406E0,-3.667523346E0,-7.875123596E-1,7.956142439E0
6.438369833E0,7.053781586E0,-2.997816010E0,-1.163081360E0,7.752128336E0
6.448291833E0,7.063810730E0,-2.286195831E0,-1.424737244E0,7.560025769E0
6.458213833E0,7.280410309E0,-1.587448883E0,-1.667532349E0,7.635773200E0
6.468135833E0,7.718399506E0,-9.503736877E-1,-1.713037720E0,7.963127483E0
6.478057833E0,7.852071533E0,-3.974235535E-1,-1.767973480E0,8.058455377E0
6.487979833E0,8.051307220E0,6.735992432E-3,-2.182012482E0,8.341748726E0
6.497901833E0,8.169860687E0,4.966671753E-1,-2.779569855E0,8.644033232E0
6.507823833E0,8.027506714E0,4.731660461E-1,-3.442840576E0,8.747451136E0
6.517746833E0,7.543413391E0,-7.963439941E-2,-3.869603119E0,8.478399349E0
6.527668833E0,6.910529480E0,-6.384223938E-1,-4.001628571E0,8.010994449E0
6.537590833E0,5.848188629E0,-1.806144104E0,-3.554358673E0,7.077918645E0
6.547512833E0,4.750521240E0,-3.016527100E0,-2.822829895E0,6.295653772E0
6.557434833E0,4.328099670E0,-3.766168213E0,-2.365979919E0,6.205991520E0
6.567356833E0,4.414919128E0,-3.967798920E0,-2.005529480E0,6.265547675E0
6.577278833E0,4.557123413E0,-3.933071136E0,-1.925895081E0,6.320244792E0
6.587200833E0,4.754862213E0,-3.814517670E0,-2.054328003E0,6.432691759E0
6.597122833E0,5.359454956E0,-3.540737000E0,-2.206860809E0,6.791966619E0
6.607044833E0,6.355633392E0,-3.232527924E0,-2.273322601E0,7.484070299E0
6.616967833E0,7.667505341E0,-2.955753479E0,-2.351160736E0,8.547226075E0
6.626889833E0,8.802594910E0,-2.515369263E0,-2.233206024E0,9.423373537E0
6.636811833E0,1.007869125E1,-2.190993805E0,-2.187550964E0,1.054352173E1
6.646733833E0,1.131901199E1,-1.941313019E0,-2.282453613E0,1.170889932E1
6.656655833E0,1.242012222E1,-1.652114410E0,-2.484683075E0,1.277351040E1
6.666577833E0,1.346689545E1,-1.526226196E0,-2.702330475E0,1.381988529E1
6.676499833E0,1.440304871E1,-1.775008850E0,-2.967578888E0,1.481232571E1
6.686421833E0,1.513188309E1,-2.021695862E0,-3.251688080E0,1.560879929E1
6.696343833E0,1.536345154E1,-2.190844116E0,-3.664529572E0,1.594566455E1
6.706265833E0,1.481544113E1,-2.350861359E0,-4.061054993E0,1.554078546E1
6.716187833E0,1.373723328E1,-2.758613434E0,-4.343816986E0,1.466936509E1
6.726110833E0,1.276216095E1,-3.165018311E0,-4.814887390E0,1.400261524E1
6.736032833E0,1.163665146E1,-3.622616730E0,-5.186265106E0,1.324508795E1
6.745954833E0,1.039722885E1,-4.243076477E0,-5.471422119E0,1.249169827E1
6.755876833E0,9.847571869E0,-4.815935211E0,-5.387147369E0,1.221430557E1
6.765798833E0,1.022224274E1,-4.303850098E0,-4.410428467E0,1.193604840E1
6.775720833E0,1.121931931E1,-3.418740692E0,-3.151845703E0,1.214475380E1
6.785642833E0,1.201207077E1,-3.821253662E0,-1.993404694E0,1.276187627E1
6.795564833E0,1.265438507E1,-4.427343292E0,-9.966275024E-1,1.344351504E1
6.805486833E0,1.352407654E1,-5.176385651E0,-5.939648438E-1,1.449304691E1
6.815408833E0,1.383977005E1,-5.672454071E0,1.384620667E-1,1.495777864E1
6.825330833E0,1.350356918E1,-5.828729095E0,1.105151825E0,1.474929911E1
6.835253833E0,1.282982025E1,-6.148464203E0,1.788929901E0,1.433904355E1
6.845175833E0,1.194126801E1,-6.444698181E0,2.081571350E0,1.372810823E1
6.855097833E0,1.101589233E1,-6.742429047E0,2.115251312E0,1.308757126E1
6.865019833E0,1.027178970E1,-6.997348938E0,1.807940369E0,1.255950653E1
6.874941833E0,9.644593964E0,-7.095694427E0,1.353186035E0,1.204982094E1
6.884863833E0,9.050329742E0,-7.151079254E0,9.729766846E-1,1.157553828E1
6.894785833E0,8.329728241E0,-7.170089722E0,7.229965210E-1,1.101441252E1
6.904707833E0,7.656578064E0,-7.164850616E0,6.249504089E-1,1.050470538E1
6.914629833E0,7.052883453E0,-6.922205200E0,5.328918457E-1,9.896669316E0
6.924551833E0,6.386918335E0,-6.580914917E0,4.155358887E-1,9.180078270E0
6.934474833E0,6.569089508E0,-6.217470703E0,-2.495310974E-1,9.048322755E0
6.944396833E0,5.939648438E0,-5.901328125E0,-2.428998871E0,8.718092263E0
6.954318833E0,4.470004578E0,-6.041287079E0,-3.718267822E0,8.384724569E0
6.964240833E0,4.677323456E0,-5.215604095E0,-4.752317505E0,8.465483002E0
6.974162833E0,4.982089691E0,-4.236340485E0,-5.364394684E0,8.458399891E0
6.984084833E0,5.219346313E0,-3.200045471E0,-5.322930908E0,8.112672828E0
6.994006833E0,5.684878235E0,-1.924697571E0,-4.962630157E0,7.787810948E0
7.003928833E0,6.556665344E0,-6.845265198E-1,-4.242178345E0,7.839292959E0
7.013850833E0,7.132218475E0,2.514770508E-2,-2.666554871E0,7.614439419E0
7.023772833E0,7.717800751E0,-7.589218140E-2,-7.473957825E-1,7.754276788E0
7.033694833E0,7.665709076E0,-5.224136353E-2,2.086660767E-1,7.668726513E0
7.043617833E0,7.114555206E0,-4.490661621E-2,5.538482666E-3,7.114699084E0
7.053539833E0,6.780150604E0,-1.914518738E-1,8.786727905E-2,6.783422196E0
7.063461833E0,6.654861145E0,-1.371148682E-1,1.618135071E-1,6.658240080E0
7.073383833E0,6.239624634E0,-6.915618896E-2,1.297801208E-1,6.241357307E0
7.083305833E0,5.526806946E0,-5.593867493E-1,1.041833496E-1,5.556020403E0
7.093227792E0,4.684957581E0,-1.358275452E0,9.415420532E-2,4.878791320E0
7.103149792E0,4.229454803E0,-1.832788696E0,2.526745605E-1,4.616410594E0
7.113071792E0,4.201163635E0,-2.217339020E0,3.231779480E-1,4.761387634E0
7.122993792E0,4.290976868E0,-2.730471954E0,2.377056885E-1,5.091607169E0
7.132915792E0,4.425696716E0,-3.318000183E0,-1.213975525E-1,5.532689582E0
7.142837792E0,4.656516724E0,-3.950435028E0,-6.625222778E-1,6.142313951E0
7.152760792E0,4.866380310E0,-4.589456177E0,-1.515298920E0,6.858636609E0
7.162682792E0,5.207969971E0,-5.344336395E0,-2.596051483E0,7.900909190E0
7.172604792E0,5.735772400E0,-5.579796753E0,-3.931574249E0,8.915744103E0
7.182526792E0,6.185137939E0,-5.290149078E0,-5.402116241E0,9.768544850E0
7.192448792E0,6.559808807E0,-5.541775818E0,-6.690187683E0,1.088581564E1
7.202370792E0,7.396568756E0,-6.094276886E0,-7.617509308E0,1.224238082E1
7.212292792E0,8.221353607E0,-6.494394836E0,-8.654253387E0,1.358911039E1
7.222214792E0,9.223369904E0,-6.391109619E0,-1.034858002E1,1.526466321E1
7.232136792E0,1.019215530E1,-6.188730469E0,-1.220412140E1,1.706226813E1
7.242058792E0,1.120539825E1,-6.661896515E0,-1.321182587E1,1.856055382E1
7.251980792E0,1.216190918E1,-6.449937286E0,-1.318039124E1,1.905876279E1
7.261903792E0,1.290586212E1,-5.582790527E0,-1.313293991E1,1.924065846E1
7.271825792E0,1.298819092E1,-4.873565369E0,-1.296678543E1,1.898900385E1
7.281747792E0,1.256726624E1,-4.635260925E0,-1.223989700E1,1.814488642E1
7.291669792E0,1.183169586E1,-6.100114746E0,-9.784103851E0,1.652056643E1
7.301591792E0,1.093745544E1,-7.871231689E0,-7.231312408E0,1.529300818E1
7.311513792E0,9.090596008E0,-8.291707306E0,-5.011728058E0,1.328566009E1
7.321435792E0,1.010713211E1,-7.882608032E0,-3.080444183E0,1.318251741E1
7.331357792E0,1.304222855E1,-5.112318878E0,-2.300565948E0,1.419606049E1
7.341279792E0,1.453776855E1,-3.496728516E0,-6.014492798E-1,1.496447681E1
7.351201792E0,1.256382339E1,-5.886958008E0,3.077300720E0,1.421181595E1
7.361123792E0,9.431137848E0,-8.255332947E0,5.108277283E0,1.353482102E1
7.371046792E0,7.507039032E0,-9.086255035E0,4.703668671E0,1.269016015E1
7.380968792E0,6.733896790E0,-8.133486328E0,3.273243256E0,1.105500281E1
7.390890792E0,8.337661743E0,-7.615862732E0,2.113904114E0,1.148854034E1
7.400812792E0,1.012838791E1,-6.888375549E0,1.747915192E0,1.237292071E1
7.410734792E0,1.034109558E1,-5.427114258E0,1.643582153E0,1.179377757E1
7.420656792E0,9.655371552E0,-4.811444550E0,2.011217651E0,1.097365914E1
7.430578792E0,9.158704376E0,-4.679568787E0,1.916614380E0,1.046200939E1
7.440500792E0,8.663833466E0,-4.215533752E0,1.486109619E0,9.748910551E0
7.450422792E0,8.259374542E0,-3.639381866E0,1.008003845E0,9.081764143E0
7.460344792E0,8.118367767E0,-3.158282318E0,6.640191650E-1,8.736335837E0
7.470266792E0,7.929610291E0,-2.433639221E0,3.668870544E-1,8.302766125E0
7.480189792E0,7.723039856E0,-2.173629913E0,-7.200027466E-2,8.023415461E0
7.490111792E0,7.229665833E0,-2.321073303E0,-1.062789917E-2,7.593125989E0
7.500033792E0,6.997348938E0,-2.554438019E0,8.846603394E-2,7.449555154E0
7.509955792E0,6.994355164E0,-2.862198029E0,1.922003174E-1,7.559770014E0
7.519877792E0,7.020401001E0,-2.836451569E0,2.637515259E-1,7.576348235E0
7.529799792E0,7.064559174E0,-2.468367004E0,-3.772155762E-2,7.483465434E0
7.539721792E0,7.113956451E0,-2.038760376E0,-4.897814941E-1,7.416522512E0
7.549643792E0,7.160509644E0,-1.551373901E0,-6.908134460E-1,7.359135992E0
7.559565792E0,7.103178864E0,-1.247505798E0,-9.565109253E-1,7.275048717E0
7.569487792E0,6.866970062E0,-1.075663147E0,-1.255888367E0,7.063255951E0
7.579409792E0,6.943760376E0,-8.481362915E-1,-1.405726776E0,7.135209254E0
7.589332792E0,7.059469757E0,-5.505551147E-1,-1.637295227E0,7.267734162E0
7.599254792E0,7.133116608E0,-2.398013306E-1,-2.335443420E0,7.509537482E0
7.609176792E0,7.400310974E0,1.526824951E-1,-3.169658661E0,8.051996677E0
7.619098792E0,7.455246735E0,9.220825195E-2,-3.998335419E0,8.460253682E0
7.629020792E0,7.151079254E0,-2.965333557E-1,-4.873565369E0,8.658955245E0
7.638942792E0,6.568939819E0,-1.011296997E0,-5.157674561E0,8.412805646E0
7.648864792E0,5.761518860E0,-2.018103333E0,-4.712949371E0,7.712310446E0
7.658786792E0,5.387895813E0,-2.949167175E0,-3.846551056E0,7.247272821E0
7.668708792E0,5.511239319E0,-3.683240662E0,-3.093616791E0,7.315086155E0
7.678630792E0,5.791905670E0,-3.903881836E0,-2.544408875E0,7.433739382E0
7.688552792E0,5.968238983E0,-3.895648956E0,-2.268981628E0,7.479587888E0
7.698474792E0,6.242019653E0,-3.692970428E0,-2.192341003E0,7.576753857E0
7.708397792E0,6.835834808E0,-3.320993958E0,-2.088756409E0,7.881658565E0
7.718319792E0,7.613318024E0,-3.019221497E0,-1.943109283E0,8.417480826E0
7.728241792E0,8.881929932E0,-3.009342041E0,-1.741029510E0,9.538134125E0
7.738163792E0,1.015533188E1,-2.846780090E0,-1.523531799E0,1.065626912E1
7.748085792E0,1.122051682E1,-2.530188446E0,-1.684447174E0,1.162493929E1
7.758007792E0,1.244976059E1,-2.365530853E0,-2.098785553E0,1.284512264E1
7.767929792E0,1.360999786E1,-2.114802246E0,-2.867287445E0,1.406860930E1
7.777851792E0,1.457219696E1,-1.596280518E0,-3.932622070E0,1.517769917E1
7.787773792E0,1.510703476E1,-1.115929413E0,-4.908293152E0,1.592354041E1
7.797695792E0,1.510209503E1,-6.792874146E-1,-5.869594116E0,1.621686902E1
7.807617792E0,1.475751160E1,-7.946974182E-1,-6.464606781E0,1.613092785E1
7.817540792E0,1.410172531E1,-1.432371368E0,-6.483617249E0,1.558677764E1
7.827462792E0,1.319760544E1,-1.937870178E0,-6.475384369E0,1.482776898E1
7.837384792E0,1.230995132E1,-2.693199463E0,-6.196963348E0,1.404245633E1
7.847306792E0,1.137724091E1,-3.383863220E0,-5.302273865E0,1.300024035E1
7.857228792E0,1.117426300E1,-3.458557892E0,-4.622088318E0,1.257733981E1
7.867150792E0,1.194051956E1,-2.414029999E0,-3.725901947E0,1.273914807E1
7.877072792E0,1.261711258E1,-1.591789856E0,-2.574795685E0,1.297516465E1
7.886994792E0,1.301618271E1,-2.044598236E0,-1.272952881E0,1.323713728E1
7.896916792E0,1.355670868E1,-3.035986633E0,-5.700146484E-1,1.390418936E1
7.906838792E0,1.399918854E1,-4.414470062E0,-2.335144043E-2,1.467873874E1
7.916760792E0,1.377675110E1,-5.357808380E0,1.087488556E0,1.482186266E1
7.926682792E0,1.316736832E1,-5.589676208E0,2.432292023E0,1.451000045E1
7.936605792E0,1.274240204E1,-6.105204163E0,2.949316864E0,1.443401530E1
7.946527792E0,1.198288147E1,-6.446644135E0,2.862347717E0,1.390473672E1
7.956449792E0,1.110570557E1,-6.539451141E0,2.370620270E0,1.310423435E1
7.966371792E0,1.029289581E1,-6.680906982E0,1.856738892E0,1.241070915E1
7.976293792E0,9.509724426E0,-6.968309326E0,1.153650970E0,1.184580534E1
7.986215792E0,8.621920624E0,-7.429500275E0,6.679110718E-1,1.140092517E1
7.996137792E0,7.642806702E0,-6.878346405E0,2.553689575E-1,1.028539532E1
8.006059792E0,7.144043884E0,-6.774761810E0,-2.023791504E-1,9.847624989E0
8.015981792E0,6.677314453E0,-6.824608154E0,-3.242257690E-1,9.553372552E0
8.025903792E0,6.253096619E0,-6.693031769E0,-3.821553040E-1,9.167547887E0
8.035825792E0,6.109245758E0,-6.329138489E0,-5.920188904E-1,8.816539237E0
8.045748792E0,6.214327240E0,-5.837560730E0,-9.948312378E-1,8.583977371E0
8.055670792E0,6.184988251E0,-5.416037292E0,-2.408790894E0,8.566785464E0
8.065592792E0,4.586013336E0,-5.328170013E0,-3.464395752E0,7.837279626E0
8.075514792E0,4.633314972E0,-4.960983582E0,-4.444258118E0,8.113593282E0
8.085436333E0,5.138963470E0,-3.700305176E0,-5.796695709E0,8.585038444E0
8.095358333E0,4.948110352E0,-2.478096771E0,-5.791456604E0,8.010351381E0
8.105280333E0,5.053191833E0,-1.535506897E0,-4.980443115E0,7.259293544E0
8.115202333E0,5.447172546E0,-9.982740784E-1,-3.944297791E0,6.798950283E0
8.125124333E0,6.506968689E0,-3.975732422E-1,-3.143163757E0,7.237277417E0
8.135046333E0,6.978488159E0,3.218307495E-2,-1.813478851E0,7.210342452E0
8.144968333E0,7.031627655E0,-1.869612122E-1,-1.022373962E-1,7.034855681E0
8.154890333E0,6.953789520E0,-6.156697083E-1,1.711391144E0,7.187704608E0
8.164813333E0,6.677763519E0,-6.423143005E-1,2.217189331E0,7.065481003E0
8.174735333E0,6.303841095E0,-3.471281433E-1,1.431173859E0,6.473574678E0
8.184657333E0,5.801934814E0,-2.254312134E-1,7.231462097E-1,5.851171444E0
8.194579333E0,5.466781769E0,-2.885998535E-1,2.185455322E-2,5.474437908E0
8.204501333E0,5.199288025E0,-5.405259705E-1,-5.400769043E-1,5.255135332E0
8.214423333E0,5.053640900E0,-1.001267853E0,-6.694079590E-1,5.195183411E0
8.224345333E0,4.949607239E0,-1.517095184E0,-5.129832458E-1,5.202243884E0
8.234267333E0,5.128036194E0,-2.011067963E0,-4.852908325E-1,5.529616329E0
8.244189333E0,5.559588776E0,-2.716700592E0,-6.277944946E-1,6.219615373E0
8.254111333E0,5.869743805E0,-3.550317078E0,-9.316625977E-1,6.922906823E0
8.264033333E0,6.112987976E0,-4.442910919E0,-1.474134521E0,7.699425434E0
8.273955333E0,6.510710907E0,-5.239853668E0,-2.161056061E0,8.632241092E0
8.283878333E0,6.824009399E0,-5.563031616E0,-2.974165192E0,9.293012624E0
8.293800333E0,7.441774750E0,-5.656138000E0,-4.298461304E0,1.028827867E1
8.303722333E0,8.449479218E0,-6.013744354E0,-6.131549377E0,1.204801718E1
8.313644333E0,9.373208313E0,-6.606212311E0,-8.469836884E0,1.425612893E1
8.323566333E0,1.047566574E1,-6.932533722E0,-1.121857086E1,1.684208801E1
8.333488333E0,1.134056717E1,-6.574478302E0,-1.368559067E1,1.895066280E1
8.343410333E0,1.124805954E1,-5.983357544E0,-1.526390854E1,1.988231161E1
8.353332333E0,1.151196075E1,-5.054838409E0,-1.521196655E1,1.973526180E1
8.363254333E0,1.214664093E1,-3.963008881E0,-1.346614700E1,1.856295883E1
8.373176333E0,1.236743179E1,-3.119512939E0,-1.107666595E1,1.689311276E1
8.383098333E0,1.234437973E1,-2.229763184E0,-9.475894775E0,1.572094579E1
8.393020333E0,1.168320465E1,-1.211430817E0,-7.862250366E0,1.413434881E1
8.402943333E0,9.990524597E0,-9.735754395E-1,-6.734944611E0,1.208792413E1
8.412865333E0,7.788304138E0,-2.029779053E0,-5.679190063E0,9.850425581E0
8.422787333E0,9.364077301E0,-3.135679321E0,-4.786596222E0,1.097405722E1
8.432709333E0,1.323727295E1,-4.378095703E0,-3.775748291E0,1.444470118E1
8.442631333E0,1.451576431E1,-4.657265167E0,-1.289867706E0,1.529906177E1
8.452553333E0,1.390114243E1,-4.600533142E0,1.985471191E0,1.477662890E1
8.462475333E0,1.306752594E1,-5.028193817E0,3.986959076E0,1.455811835E1
8.472397333E0,1.246667542E1,-6.345454559E0,3.497776337E0,1.441933524E1
8.482319333E0,1.083207458E1,-6.411167908E0,1.836830292E0,1.272048974E1
8.492241333E0,8.678203583E0,-6.914870453E0,7.985893250E-1,1.112494475E1
8.502163333E0,8.358767853E0,-7.193590851E0,9.226812744E-1,1.106653017E1
8.512085333E0,9.616153107E0,-7.191345520E0,3.224295044E-1,1.201206942E1
8.522008333E0,1.037866745E1,-6.001469879E0,1.076411591E0,1.203715251E1
8.531930333E0,1.048779053E1,-4.799918518E0,2.173629913E0,1.173701985E1
8.541852333E0,1.013542328E1,-4.410428467E0,2.521356812E0,1.133736850E1
8.551774333E0,9.518406372E0,-4.126918030E0,2.215393066E0,1.060846260E1
8.561696333E0,8.656947784E0,-3.689826965E0,1.701511688E0,9.563091028E0
8.571618333E0,8.044571228E0,-3.530258789E0,1.462009735E0,8.905915216E0
8.581540333E0,8.078101501E0,-3.590283966E0,1.409169617E0,8.951626770E0
8.591462333E0,8.033194885E0,-3.626808014E0,1.602866821E0,8.958523231E0
8.601384333E0,8.043523407E0,-3.736080780E0,1.612596588E0,9.014268476E0
8.611306333E0,7.861352234E0,-3.783382416E0,1.495390320E0,8.851611924E0
8.621228333E0,7.585924988E0,-3.568130035E0,1.390757904E0,8.497765437E0
8.631150333E0,7.418572998E0,-3.222798157E0,1.000818787E0,8.150048560E0
8.641073333E0,7.251819763E0,-2.951711884E0,3.921844482E-1,7.839343184E0
8.650995333E0,7.074588318E0,-2.523602142E0,-3.847000122E-2,7.511314637E0
8.660917333E0,6.958729248E0,-2.095791779E0,-4.275109863E-1,7.280042690E0
8.670839333E0,6.583010559E0,-1.818268890E0,-8.900491333E-1,6.887257599E0
8.680761333E0,6.305637360E0,-1.660197601E0,-1.337169342E0,6.656225690E0
8.690683333E0,6.099515991E0,-1.509910126E0,-1.460961914E0,6.451227296E0
8.700605333E0,6.046825562E0,-1.584006042E0,-1.367855530E0,6.398765761E0
8.710527333E0,6.251899109E0,-1.274599457E0,-1.997146912E0,6.685764132E0
8.720449333E0,6.473588104E0,-7.888595581E-1,-3.311713257E0,7.314170291E0
8.730371333E0,6.495891724E0,-2.249821472E-1,-4.581672363E0,7.952291990E0
8.740293333E0,6.890770569E0,-2.387535095E-1,-5.911357269E0,9.082062928E0
8.750215333E0,6.612050171E0,-7.702981567E-1,-5.936504974E0,8.919341793E0
8.760138333E0,5.594166870E0,-1.720522156E0,-5.555547180E0,8.069634684E0
8.770060333E0,4.606820068E0,-3.121458893E0,-5.155728607E0,7.586028884E0
8.779982333E0,4.476141815E0,-3.594774628E0,-4.618495789E0,7.368090222E0
8.789904333E0,5.215454407E0,-3.166066132E0,-3.851191406E0,7.215027004E0
8.799826333E0,6.556515656E0,-2.431094513E0,-3.260669403E0,7.715574057E0
8.809748333E0,7.953261108E0,-1.964814148E0,-2.825075226E0,8.665789458E0
8.819670333E0,9.069789276E0,-1.696871338E0,-2.414928131E0,9.537941483E0
8.829592333E0,1.011072464E1,-1.538800049E0,-2.112407227E0,1.044303225E1
8.839514333E0,1.092113937E1,-1.413360901E0,-2.050585785E0,1.120150777E1
8.849436333E0,1.151480484E1,-1.079255676E0,-2.238445129E0,1.177990492E1
8.859358333E0,1.207254501E1,-7.238946533E-1,-2.681374054E0,1.238790270E1
8.869280333E0,1.259585678E1,-5.504054260E-1,-3.027304688E0,1.296623029E1
8.879203333E0,1.313758026E1,-5.183720398E-1,-3.237317963E0,1.354049306E1
8.889125333E0,1.366508331E1,-6.770420837E-1,-3.391796722E0,1.409599847E1
8.899047333E0,1.385848114E1,-9.484277344E-1,-3.459006958E0,1.431508798E1
8.908969333E0,1.376088409E1,-9.455836487E-1,-3.605402527E0,1.425675233E1
8.918891333E0,1.359308304E1,-1.124311981E0,-3.969894562E0,1.420549354E1
8.928813333E0,1.302890625E1,-1.417552185E0,-4.266876984E0,1.378289126E1
8.938735333E0,1.220651642E1,-1.770518188E0,-4.774471436E0,1.322608616E1
8.948657333E0,1.137005585E1,-2.193688202E0,-5.258864136E0,1.271794362E1
8.958579333E0,1.078462326E1,-2.694995728E0,-5.504653015E0,1.240452763E1
8.968501333E0,1.072474777E1,-2.906655579E0,-5.306614838E0,1.231377369E1
8.978423333E0,1.124446701E1,-1.936672668E0,-4.365222473E0,1.221654233E1
8.988345333E0,1.187390808E1,-1.494641876E0,-3.218756561E0,1.239290286E1
8.998267333E0,1.196746353E1,-2.275268555E0,-2.026785278E0,1.234928698E1
9.008190333E0,1.230665817E1,-3.187920685E0,-7.695497131E-1,1.273612502E1
9.018112333E0,1.311856979E1,-4.203858032E0,4.580474854E-2,1.377575384E1
9.028034333E0,1.327694046E1,-5.001549225E0,1.086889801E0,1.422933491E1
9.037956333E0,1.300151321E1,-5.599405975E0,2.046843567E0,1.430322557E1
9.047878333E0,1.274075546E1,-6.284680939E0,2.486778717E0,1.442248705E1
9.057800333E0,1.258597733E1,-6.818770294E0,2.606679382E0,1.454981893E1
9.067722333E0,1.215068253E1,-7.329957275E0,2.396965485E0,1.439141421E1
9.077644333E0,1.159773239E1,-7.777975616E0,1.841919708E0,1.408534591E1
9.087566792E0,1.083851120E1,-8.228388977E0,1.220412140E0,1.366269066E1
9.097488792E0,1.000264938E1,-8.401878204E0,5.923182678E-1,1.307652068E1
9.107410792E0,9.078620911E0,-8.954528961E0,1.803749084E-1,1.275294012E1
9.117332792E0,7.844138031E0,-8.738677826E0,-7.649093628E-2,1.174311894E1
9.127255792E0,7.286996613E0,-7.580236816E0,-8.750802612E-1,1.055111725E1
9.137177792E0,7.026987305E0,-7.025939484E0,-1.844464417E0,1.010665252E1
9.147099792E0,6.399641876E0,-6.666536865E0,-3.042722626E0,9.729146463E0
9.157021792E0,5.047353973E0,-6.605463867E0,-4.293222198E0,9.356264847E0
9.166943792E0,4.737648010E0,-6.160588989E0,-5.060376892E0,9.273919325E0
9.176865792E0,4.424050140E0,-5.078938293E0,-5.706583099E0,8.827962647E0
9.186787792E0,4.220174103E0,-4.127516785E0,-6.020779724E0,8.431847529E0
9.196709792E0,4.307742004E0,-3.005599823E0,-5.604794769E0,7.681405853E0
9.206631792E0,4.235442352E0,-1.869013367E0,-4.848267975E0,6.703572573E0
9.216553792E0,4.929848328E0,-9.975256348E-1,-3.838467865E0,6.327108145E0
9.226475792E0,5.977369995E0,-1.303788757E-1,-2.759960632E0,6.585084161E0
9.236397792E0,6.703060913E0,3.531156921E-1,-1.132694550E0,6.807254457E0
9.246319792E0,6.694977722E0,2.017803955E-1,1.484762421E0,6.860609410E0
9.256242792E0,6.445746002E0,-3.483256531E-1,4.092789001E0,7.643290790E0
9.266164792E0,6.450536041E0,-9.469308472E-1,5.611381073E0,8.601958544E0
9.276086792E0,6.332581329E0,-1.107846222E0,5.841003571E0,8.685979061E0
9.286008792E0,6.506819000E0,-6.465055847E-1,4.319417725E0,7.836710563E0
9.295930792E0,6.127657471E0,1.074765015E-1,2.054028625E0,6.463649965E0
9.305852792E0,5.497917023E0,6.068380737E-1,-7.888595581E-2,5.531868313E0
9.315774792E0,5.294789429E0,3.661386108E-1,-1.307680664E0,5.466157818E0
9.325696792E0,5.047054596E0,-3.980223083E-1,-1.558109894E0,5.297064120E0
9.335618792E0,4.790188751E0,-1.272503815E0,-1.317111053E0,5.128348249E0
9.345540792E0,5.170847168E0,-2.183359680E0,-1.152902527E0,5.730087623E0
9.355462792E0,5.770051117E0,-3.142115936E0,-1.390907593E0,6.715728284E0
9.365384792E0,6.167175293E0,-3.993096313E0,-1.935475159E0,7.597692633E0
9.375307792E0,6.650220795E0,-4.894521790E0,-2.609373779E0,8.659711986E0
9.385229792E0,7.098538513E0,-5.071453857E0,-3.554807739E0,9.420485726E0
9.395151792E0,7.933202820E0,-4.984933777E0,-4.838687897E0,1.054505440E1
9.405073792E0,9.074279938E0,-5.072801056E0,-6.305337982E0,1.215866580E1
9.414995792E0,1.027283752E1,-5.433401184E0,-8.465645599E0,1.437776737E1
9.424917792E0,1.119222565E1,-5.763015747E0,-1.155701706E1,1.708926297E1
9.434839792E0,1.171224426E1,-6.277495880E0,-1.492276794E1,1.998180731E1
9.444761792E0,1.221684494E1,-6.129902802E0,-1.719638992E1,2.196685765E1
9.454683792E0,1.240739868E1,-5.078638916E0,-1.709070969E1,2.172161304E1
9.464605792E0,1.321092773E1,-4.149221649E0,-1.435484894E1,1.994508310E1
9.474527792E0,1.407433228E1,-3.424578552E0,-1.095122681E1,1.815885282E1
9.484449792E0,1.372031845E1,-2.977608032E0,-7.928263092E0,1.612360517E1
9.494371792E0,1.330283661E1,-3.133134613E0,-5.665119324E0,1.479444393E1
9.504294792E0,1.072654404E1,-4.103267212E0,-4.162394257E0,1.221560783E1
9.514216792E0,8.569230194E0,-5.032534790E0,-3.422482910E0,1.051054241E1
9.524138792E0,1.122635468E1,-5.896089020E0,-3.493135986E0,1.315282875E1
9.534060792E0,1.223031693E1,-5.168452148E0,-3.875740356E0,1.383166342E1
9.543982792E0,1.283161652E1,-2.935994568E0,-2.306852875E0,1.336383241E1
9.553904792E0,1.309911026E1,-3.727847900E0,6.255491638E-1,1.363359275E1
9.563826792E0,1.035172348E1,-6.584357758E0,2.410287781E0,1.250285700E1
9.573748792E0,7.414980469E0,-8.509205017E0,2.545606384E0,1.157016064E1
9.583670792E0,5.706583099E0,-8.789122925E0,3.272494812E0,1.097829653E1
9.593592792E0,6.328240356E0,-8.310268707E0,4.372108154E0,1.132353839E1
9.603514792E0,7.365433502E0,-7.363487549E0,4.066294098E0,1.118057723E1
9.613436792E0,8.628506927E0,-6.358327789E0,2.365680542E0,1.097615181E1
9.623359792E0,9.951156464E0,-4.679568787E0,2.013762360E0,1.117940597E1
9.633281792E0,1.058314224E1,-3.677402802E0,2.574945374E0,1.149593558E1
9.643203792E0,1.076531342E1,-3.558699646E0,2.879112854E0,1.169810271E1
9.653125792E0,1.087204147E1,-3.337609406E0,2.289488983E0,1.160097764E1
9.663047792E0,1.077818665E1,-2.862497406E0,1.296004944E0,1.122687969E1
9.672969792E0,1.026445496E1,-2.331102448E0,7.065307617E-1,1.054951468E1
9.682891792E0,9.682914276E0,-2.569257202E0,5.149291992E-1,1.003120449E1
9.692813792E0,9.145831146E0,-3.514391785E0,5.839356995E-1,9.815200348E0
9.702735792E0,8.390052795E0,-4.500690765E0,3.586541748E-1,9.527740346E0
9.712657792E0,7.863298187E0,-4.853357391E0,-9.235794067E-2,9.240945100E0
9.722579792E0,7.762707367E0,-4.242328033E0,-4.354444885E-1,8.857007661E0
9.732501792E0,8.113278351E0,-3.330124969E0,-1.159339142E0,8.846416515E0
9.742423792E0,8.423732758E0,-2.436782684E0,-1.936073914E0,8.980287613E0
9.752346792E0,8.481362915E0,-1.853894806E0,-2.409689026E0,9.009830412E0
9.762268792E0,8.128546600E0,-1.444496155E0,-2.529440002E0,8.634691986E0
9.772190792E0,7.886949005E0,-1.087937622E0,-2.579735413E0,8.369146174E0
9.782112792E0,7.684569855E0,-9.651928711E-1,-2.690205688E0,8.198866859E0
9.792034792E0,7.391179962E0,-6.890171814E-1,-3.151097260E0,8.064347453E0
9.801956792E0,7.135811005E0,-2.909948730E-1,-3.505709839E0,7.955782688E0
9.811878792E0,7.263196106E0,7.200027466E-2,-3.821852417E0,8.207664565E0
9.821800792E0,7.093449097E0,2.664459229E-1,-4.046984253E0,8.171052262E0
9.831722792E0,5.894143066E0,-1.440005493E-1,-3.972588959E0,7.109368585E0
9.841644792E0,4.571643219E0,-1.395847321E0,-3.919599152E0,6.181550693E0
9.851566792E0,4.456382904E0,-1.847907257E0,-2.891087952E0,5.624277675E0
9.861488792E0,4.055815887E0,-2.855462036E0,-1.827848969E0,5.286240422E0
9.871410792E0,3.977528687E0,-3.452570343E0,-1.306183777E0,5.426517528E0
9.881333792E0,4.158202972E0,-3.377576294E0,-1.006956024E0,5.450929647E0
9.891255792E0,4.478985901E0,-3.168161774E0,-8.982820129E-1,5.559269223E0
9.901177792E0,4.912634125E0,-3.025059357E0,-8.244854736E-1,5.827927114E0
9.911099792E0,5.661526794E0,-2.900368652E0,-6.863227844E-1,6.398129643E0
9.921021792E0,6.701863403E0,-2.825075226E0,-5.939648438E-1,7.297178725E0
9.930943792E0,8.011040955E0,-2.701731720E0,-5.692662048E-1,8.473499600E0
9.940865792E0,9.342522125E0,-2.236798553E0,-7.873626709E-1,9.638772090E0
9.950787792E0,1.078387482E1,-1.916315002E0,-1.153501282E0,1.101339114E1
9.960709792E0,1.215726883E1,-1.728904724E0,-1.800755310E0,1.241092328E1
9.970631792E0,1.332843338E1,-1.454974365E0,-2.809956665E0,1.369890299E1
9.980553792E0,1.445588882E1,-1.055754547E0,-4.429888000E0,1.515622800E1
9.990475792E0,1.529294815E1,-5.742059326E-1,-6.213129730E0,1.651686885E1
1.000039779E1,1.570025116E1,-3.844006348E-1,-7.597151642E0,1.744598416E1
1.001032079E1,1.494117966E1,-5.051994324E-1,-8.442892914E0,1.716905696E1
1.002024279E1,1.411130539E1,-6.465055847E-1,-8.767567749E0,1.662579783E1
1.003016479E1,1.358664642E1,-9.169931030E-1,-8.448730774E0,1.602556985E1
1.004008679E1,1.341510315E1,-1.784439240E0,-8.007897491E0,1.572500042E1
1.005000879E1,1.286754181E1,-2.598895569E0,-6.932084656E0,1.484525810E1
1.005993079E1,1.203182968E1,-3.183729401E0,-5.742658081E0,1.370690265E1
1.006985279E1,1.137140305E1,-3.655997314E0,-4.672982483E0,1.282621881E1
1.007977479E1,1.163275955E1,-3.177292786E0,-3.700305176E0,1.261382347E1
1.008969683E1,1.283700531E1,-2.016756134E0,-2.622396698E0,1.325643146E1
1.009961883E1,1.385279297E1,-1.317859497E0,-1.769170990E0,1.402735159E1
1.010954083E1,1.363724121E1,-1.449435883E0,-7.943980408E-1,1.373704046E1
1.011946283E1,1.304402481E1,-3.249442749E0,-1.242416382E-2,1.344267889E1
1.012938483E1,1.235186417E1,-5.639073486E0,1.242266693E0,1.363491565E1
1.013930683E1,1.164847687E1,-5.472469940E0,2.132615204E0,1.304542020E1
1.014922983E1,1.117067047E1,-5.699398041E0,2.553090820E0,1.279786269E1
1.015915183E1,1.112097382E1,-6.266418915E0,2.589764557E0,1.302501229E1
1.016907383E1,1.083117645E1,-6.297254791E0,2.226320343E0,1.272502666E1
1.017899583E1,1.046818130E1,-6.388564911E0,1.529519348E0,1.235864114E1
1.018891783E1,1.024334885E1,-6.485263824E0,1.057101746E0,1.216972911E1
1.019883983E1,1.002405487E1,-6.485114136E0,7.291337585E-1,1.196118796E1
1.020876183E1,9.436526642E0,-6.327342224E0,4.549040222E-1,1.137058628E1
1.021868383E1,8.657097473E0,-6.150410156E0,1.589694214E-1,1.062064749E1
1.022860583E1,7.741900635E0,-6.013444977E0,-4.819976807E-2,9.803105077E0
1.023852783E1,6.919959869E0,-5.845793610E0,-3.981719971E-2,9.058737932E0
1.024844983E1,6.564299469E0,-5.788013763E0,-1.210981750E-1,8.752473685E0
1.025837183E1,6.284531250E0,-5.614225159E0,-6.795867920E-1,8.454389119E0
1.026829483E1,6.318959656E0,-5.261558533E0,-1.545386353E0,8.366688013E0
1.027821683E1,5.429808655E0,-5.212011566E0,-3.464096375E0,8.285399827E0
1.028813883E1,4.617447968E0,-4.738995209E0,-5.031337280E0,8.312235328E0
1.029806083E1,4.865182800E0,-3.722159729E0,-5.170847168E0,8.016366831E0
1.030798283E1,5.147795105E0,-2.300715637E0,-5.511987762E0,7.885118641E0
1.031790483E1,5.813460846E0,-8.240364075E-1,-5.813161469E0,8.262457822E0
1.032782683E1,6.515351257E0,-6.301895142E-2,-5.040468292E0,8.237723836E0
1.033774883E1,6.711742859E0,9.624984741E-2,-3.700454865E0,7.664862846E0
1.034767083E1,6.497538300E0,2.179467773E-1,-3.014281769E0,7.165989069E0
1.035759283E1,6.223458252E0,8.008346558E-2,-2.123933258E0,6.576392511E0
1.036751483E1,6.207142181E0,-1.583706665E-1,-1.059945831E0,6.298982497E0
1.037743683E1,6.536906433E0,-3.028202820E-1,-3.415896606E-1,6.552826057E0
1.038735883E1,6.648723907E0,-5.113366699E-1,6.020480347E-1,6.695480313E0
1.039728083E1,6.518345032E0,-9.235794067E-1,1.335373077E0,6.717517557E0
1.040720383E1,6.497837677E0,-1.273701324E0,1.810335388E0,6.864511910E0
1.041712583E1,6.498735809E0,-1.620979156E0,2.135010223E0,7.029893968E0
1.042704783E1,6.485563202E0,-1.943857727E0,2.264041901E0,7.139117497E0
1.043696983E1,6.327192535E0,-2.042502594E0,2.191442871E0,7.000543128E0
1.044689183E1,5.920039215E0,-2.280357971E0,1.871258698E0,6.614265333E0
1.045681383E1,5.110223236E0,-2.586022339E0,1.201551361E0,5.851975626E0
1.046673583E1,4.548142090E0,-3.120261383E0,5.020559692E-1,5.538383136E0
1.047665783E1,4.570146332E0,-3.849993896E0,-5.057981873E-1,5.997042797E0
1.048657983E1,4.575684814E0,-4.399052124E0,-2.014660492E0,6.659384957E0
1.049650183E1,5.050048370E0,-4.557273102E0,-3.665577393E0,7.727107110E0
1.050642383E1,6.213878174E0,-4.813240814E0,-5.189408569E0,9.418573692E0
1.051634583E1,7.749684448E0,-5.187312927E0,-6.612349548E0,1.143192858E1
1.052626783E1,9.369615784E0,-5.771098938E0,-8.028404846E0,1.362169473E1
1.053619083E1,1.062774948E1,-6.180647278E0,-9.511820068E0,1.554426521E1
1.054611283E1,1.154444321E1,-6.382277985E0,-1.134535721E1,1.739898765E1
1.055603483E1,1.237761063E1,-6.624025269E0,-1.296304321E1,1.910820360E1
1.056595683E1,1.313967590E1,-6.191275177E0,-1.372106689E1,1.998125742E1
1.057587883E1,1.354383545E1,-4.743635559E0,-1.432655777E1,2.027776651E1
1.058580083E1,1.346779358E1,-3.536545715E0,-1.488818985E1,2.038496545E1
1.059572283E1,1.285167480E1,-2.538121948E0,-1.405487274E1,1.921320005E1
1.060564483E1,1.190609116E1,-2.173480225E0,-1.170640640E1,1.683802167E1
1.061556683E1,9.301208038E0,-3.290906525E0,-8.080945587E0,1.275320424E1
1.062548883E1,8.007298737E0,-3.914809113E0,-5.126239929E0,1.028206688E1
1.063541083E1,9.361682281E0,-4.416865082E0,-3.858675842E0,1.104713409E1
1.064533283E1,1.210442871E1,-4.850513306E0,-2.771187286E0,1.333132224E1
1.065525483E1,1.246083755E1,-4.159999237E0,-1.724863129E0,1.324964977E1
1.066517683E1,1.283730469E1,-3.772904205E0,3.354524231E-1,1.338445838E1
1.067509983E1,1.201760925E1,-5.412744141E0,3.460653534E0,1.362706330E1
1.068502183E1,1.032462982E1,-7.375911713E0,3.721411285E0,1.322312204E1
1.069494383E1,8.826096039E0,-8.466693420E0,2.665357361E0,1.251754763E1
1.070486583E1,8.271050262E0,-8.758736115E0,2.212848358E0,1.224836432E1
1.071478783E1,8.789272614E0,-7.925568695E0,1.805844727E0,1.197192664E1
1.072470983E1,1.046039749E1,-6.347849579E0,1.568588104E0,1.233594660E1
1.073463183E1,1.183349213E1,-4.784350891E0,1.409169617E0,1.284162405E1
1.074455383E1,1.156569901E1,-4.015998688E0,1.873354340E0,1.238560033E1
1.075447583E1,1.105062012E1,-3.863316193E0,1.951342163E0,1.186798859E1
1.076439783E1,1.029993118E1,-3.517684937E0,1.717678070E0,1.101876162E1
1.077431983E1,9.479936371E0,-3.257226562E0,1.064436493E0,1.008026505E1
1.078424183E1,8.634793854E0,-3.256927185E0,2.785707092E-1,9.232813289E0
1.079416383E1,8.135731659E0,-2.993924103E0,2.577639771E-1,8.672955288E0
1.080408583E1,7.689659271E0,-2.802322540E0,5.725593567E-1,8.204370515E0
1.081400883E1,7.614515533E0,-2.743494873E0,4.869374084E-1,8.108311721E0
1.082393083E1,7.517666931E0,-2.668650513E0,2.309696960E-1,7.980623951E0
1.083385283E1,7.251071320E0,-2.359992371E0,1.990859985E-2,7.625483304E0
1.084377483E1,7.311695251E0,-1.917512512E0,-1.588197327E-1,7.560619379E0
1.085369683E1,7.395520935E0,-1.472787323E0,-2.498304749E-1,7.544882217E0
1.086361883E1,7.396119690E0,-1.043779449E0,-3.805087280E-1,7.479094123E0
1.087354083E1,7.384593658E0,-7.688012695E-1,-5.367837524E-1,7.443884449E0
1.088346283E1,7.020700378E0,-6.436614990E-1,-6.200106812E-1,7.077354532E0
1.089338483E1,6.516997833E0,-5.596861267E-1,-6.155200195E-1,6.569883881E0
1.090330683E1,6.162385254E0,-4.953199768E-1,-6.417155457E-1,6.215475262E0
1.091322883E1,5.938450928E0,-4.104464722E-1,-5.475613403E-1,5.977749505E0
1.092315083E1,5.933211823E0,-2.781216431E-1,-6.517446899E-1,5.975376584E0
1.093307283E1,5.981261902E0,-1.188528442E-1,-8.767268372E-1,6.046343514E0
1.094299583E1,6.076314240E0,-1.300794983E-1,-1.270857239E0,6.209154011E0
1.095291783E1,6.112239532E0,-2.389031982E-1,-1.720971222E0,6.354391299E0
1.096283983E1,6.122867432E0,-6.099815369E-1,-2.192939758E0,6.532271262E0
1.097276183E1,6.109545135E0,-1.289119263E0,-2.513572998E0,6.731004342E0
1.098268383E1,6.002368011E0,-2.106569366E0,-2.924767914E0,7.001451535E0
1.099260583E1,6.190526733E0,-3.175646210E0,-3.340154114E0,7.717770377E0
1.100252783E1,6.814429321E0,-3.899840240E0,-3.216211853E0,8.484646107E0
1.101244983E1,7.305707703E0,-3.939807129E0,-3.080294495E0,8.853454660E0
1.102237183E1,7.973618774E0,-3.700305176E0,-3.247945862E0,9.371232954E0
1.103229383E1,8.704848175E0,-3.250789948E0,-3.361260223E0,9.881299880E0
1.104221583E1,9.136101379E0,-3.093317413E0,-3.275488586E0,1.018654929E1
1.105213783E1,9.454339600E0,-3.018023987E0,-3.120710449E0,1.040345326E1
1.106205983E1,1.001387604E1,-2.684218140E0,-2.974614258E0,1.078568822E1
1.107198183E1,1.079944244E1,-2.387385406E0,-2.946173401E0,1.144585095E1
1.108190483E1,1.153965317E1,-2.031126251E0,-3.118614807E0,1.212496711E1
1.109182629E1,1.214873657E1,-1.635199585E0,-3.449127502E0,1.273429066E1
1.110174829E1,1.258268417E1,-1.255139923E0,-3.877536621E0,1.322628472E1
1.111167029E1,1.314446594E1,-8.699908447E-1,-4.442162476E0,1.390203857E1
1.112159229E1,1.355506210E1,-5.986051941E-1,-4.934039612E0,1.443754770E1
1.113151429E1,1.380863480E1,-4.926255798E-1,-5.215903473E0,1.476911385E1
1.114143629E1,1.360655502E1,-7.286846924E-1,-5.539979553E0,1.470920441E1
1.115135829E1,1.307291473E1,-6.002517700E-1,-5.506748657E0,1.419808729E1
1.116128029E1,1.272354126E1,-4.074526978E-1,-5.579647064E0,1.389917196E1
1.117120229E1,1.296319290E1,-2.971321106E-1,-4.866979065E0,1.384991491E1
1.118112429E1,1.374666367E1,4.556524658E-1,-3.855682068E0,1.428442037E1
1.119104629E1,1.453687042E1,-4.559518433E-1,-3.177292786E0,1.488703070E1
1.120096829E1,1.528246994E1,-1.766177216E0,-2.551144867E0,1.559428131E1
1.121089029E1,1.552272034E1,-2.365381165E0,-2.129022675E0,1.584558652E1
1.122081329E1,1.442355606E1,-3.918551331E0,-3.978726196E-1,1.495166601E1
1.123073529E1,1.368678818E1,-4.944368134E0,1.771715698E0,1.465994282E1
1.124065729E1,1.345028000E1,-5.212310944E0,3.298840027E0,1.479731607E1
1.125057929E1,1.324685303E1,-5.864804077E0,4.015399933E0,1.503324578E1
1.126050129E1,1.255454269E1,-6.299949188E0,3.968098297E0,1.459629083E1
1.127042329E1,1.143726608E1,-6.363417206E0,3.617377625E0,1.357901156E1
1.128034529E1,1.024619293E1,-6.606960754E0,2.930605774E0,1.253893338E1
1.129026729E1,9.392667847E0,-6.940018158E0,2.274969177E0,1.189796395E1
1.130018929E1,8.687933350E0,-7.443870392E0,1.891616364E0,1.159610300E1
1.131011129E1,7.958949280E0,-8.001610565E0,1.747466125E0,1.142034514E1
1.132003329E1,7.134014740E0,-8.104147339E0,1.573378143E0,1.091086107E1
1.132995529E1,6.452481995E0,-7.873027954E0,1.223705292E0,1.025263613E1
1.133987729E1,6.354435883E0,-7.333699493E0,3.254232788E-1,9.709165976E0
1.134979929E1,6.461912384E0,-6.598428497E0,-1.163081360E0,9.308508395E0
1.135972229E1,6.123615875E0,-6.037395172E0,-4.397854614E0,9.658671599E0
1.136964429E1,5.422623596E0,-5.128784637E0,-5.850583649E0,9.483596762E0
1.137956629E1,5.328020325E0,-3.835474091E0,-6.619384918E0,9.322817105E0
1.138948829E1,5.745502167E0,-2.090852051E0,-7.173981628E0,9.425946629E0
1.139941029E1,6.348448334E0,-9.975256348E-1,-6.706054688E0,9.288111924E0
1.140933229E1,6.604865112E0,-5.016069031E-1,-5.269042969E0,8.463962810E0
1.141925429E1,7.190148010E0,3.218307495E-2,-3.847000122E0,8.154671919E0
1.142917629E1,7.663164368E0,5.646258545E-1,-2.093247070E0,7.963954657E0
1.143909829E1,7.444020081E0,3.056643677E-1,-3.293151855E-2,7.450365773E0
1.144902029E1,7.553292847E0,-4.790039063E-2,1.733545074E0,7.749819727E0
1.145894229E1,7.708070984E0,-1.197509766E-3,2.649640045E0,8.150763896E0
1.146886429E1,7.409741364E0,9.056167603E-2,2.831960907E0,7.932998870E0
1.147878629E1,6.867568817E0,6.376739502E-2,2.305206299E0,7.244414664E0
1.148870829E1,6.136339417E0,1.413061523E-1,1.278042297E0,6.269610911E0
1.149863129E1,5.272485809E0,1.432521057E-1,5.701643372E-1,5.305159295E0
1.150855329E1,4.735402679E0,-2.665956116E-1,2.094145203E-1,4.747522111E0
1.151847529E1,4.107608185E0,-8.957373047E-1,4.227209473E-1,4.225338249E0
1.152839729E1,3.722309418E0,-1.477727051E0,7.210505676E-1,4.069297060E0
1.153831929E1,3.552861786E0,-2.132914581E0,7.857160950E-1,4.217760219E0
1.154824129E1,3.490441589E0,-2.925516357E0,3.552113342E-1,4.568150998E0
1.155816329E1,3.620670776E0,-3.769311676E0,-4.824467468E-1,5.248782930E0
1.156808529E1,3.809727631E0,-4.355792084E0,-1.548978882E0,5.990516244E0
1.157800729E1,4.591851196E0,-4.715494080E0,-2.879262543E0,7.184088990E0
1.158792929E1,5.734275513E0,-5.007237396E0,-4.263883209E0,8.725539641E0
1.159785129E1,7.010820923E0,-5.409001923E0,-5.742508392E0,1.055392413E1
1.160777329E1,8.847800903E0,-5.981112213E0,-7.366032257E0,1.297365466E1
1.161769529E1,1.086964645E1,-6.430328064E0,-8.985514526E0,1.549960659E1
1.162761729E1,1.242161911E1,-6.674470367E0,-1.103894440E1,1.790819559E1
1.163754029E1,1.371971970E1,-6.444847870E0,-1.299672318E1,1.996701244E1
1.164746229E1,1.446846268E1,-5.589676208E0,-1.425246185E1,2.106450952E1
1.165738429E1,1.407298508E1,-4.084705811E0,-1.487322098E1,2.087933028E1
1.166730629E1,1.347602646E1,-2.967578888E0,-1.505374557E1,2.042119167E1
1.167722829E1,1.321197556E1,-2.214345245E0,-1.400442764E1,1.937997979E1
1.168715029E1,1.222672440E1,-2.270927582E0,-1.104403381E1,1.663191463E1
1.169707229E1,1.044557831E1,-3.660338287E0,-7.512577515E0,1.337710744E1
1.170699429E1,1.048240173E1,-5.126389618E0,-4.899910583E0,1.265581844E1
1.171691629E1,1.183064804E1,-6.510710907E0,-1.968855743E0,1.364661066E1
1.172683829E1,1.493833557E1,-5.336103516E0,-1.118623810E0,1.590217562E1
1.173676029E1,1.754007523E1,-2.421065369E0,-1.434467010E0,1.776438831E1
1.174668229E1,1.648132690E1,-3.946842499E0,1.293460236E0,1.699660971E1
1.175660429E1,1.291798691E1,-7.957602081E0,5.488935699E0,1.613462834E1
1.176652629E1,8.133336639E0,-1.059661423E1,6.906188507E0,1.503778034E1
1.177644829E1,5.641019440E0,-1.120090759E1,6.046975250E0,1.392290706E1
1.178637129E1,6.558910675E0,-9.969717865E0,4.048331451E0,1.260172889E1
1.179629329E1,8.699459381E0,-7.466174011E0,2.376009064E0,1.170767983E1
1.180621529E1,1.050171158E1,-4.858895874E0,1.602417755E0,1.168171896E1
1.181613729E1,1.176224030E1,-3.916455688E0,2.192790070E0,1.258956910E1
1.182605929E1,1.135673355E1,-4.010609894E0,2.852168884E0,1.237720712E1
1.183598129E1,1.017688705E1,-4.051325226E0,2.417323151E0,1.121720631E1
1.184590329E1,9.106463013E0,-3.716920624E0,1.907483368E0,1.001906484E1
1.185582529E1,8.638236694E0,-3.344495087E0,1.681752777E0,9.414513953E0
1.186574729E1,8.368497620E0,-3.183879089E0,1.558558960E0,9.088341130E0
1.187566929E1,7.826175385E0,-3.181035004E0,1.492695923E0,8.578819614E0
1.188559129E1,7.511080627E0,-3.232378235E0,1.195713501E0,8.264038481E0
1.189551329E1,7.585326233E0,-3.448528748E0,9.761201477E-1,8.389418044E0
1.190543529E1,7.586523743E0,-3.141816559E0,3.823049927E-1,8.220250051E0
1.191535729E1,7.611222382E0,-2.406096497E0,-2.621049500E-1,7.986783176E0
1.192528029E1,7.843838654E0,-1.604064331E0,-4.475692749E-1,8.018674794E0
1.193520229E1,8.033643951E0,-7.915539551E-1,-9.583071899E-1,8.129227852E0
1.194512429E1,7.976762238E0,-2.433938599E-1,-1.116378479E0,8.058180767E0
1.195504629E1,7.787406006E0,2.734812927E-1,-1.172661438E0,7.879950455E0
1.196496829E1,7.455246735E0,3.743714905E-1,-1.370849304E0,7.589472031E0
1.197489029E1,7.036417694E0,5.643264771E-1,-2.080224152E0,7.359141992E0
1.198481229E1,6.875502319E0,9.407936096E-1,-3.137774963E0,7.615986901E0
1.199473429E1,7.120692444E0,1.292412415E0,-4.436923370E0,8.488867988E0
1.200465629E1,6.715784454E0,1.316362610E0,-5.447322235E0,8.746878923E0
1.201457829E1,6.088588715E0,3.200344849E-1,-5.889203339E0,8.476794829E0
1.202450029E1,5.192701721E0,-1.170715485E0,-5.045108643E0,7.334019848E0
1.203442229E1,4.176614685E0,-2.692451019E0,-4.677922211E0,6.824687460E0
1.204434429E1,3.437152405E0,-3.534749451E0,-3.619173889E0,6.116117230E0
1.205426629E1,3.367696838E0,-4.100123749E0,-2.827320557E0,6.012165856E0
1.206418829E1,3.728147278E0,-4.299658813E0,-2.349963226E0,6.156985886E0
1.207411129E1,4.331093445E0,-4.081562347E0,-1.853445740E0,6.233200040E0
1.208403329E1,5.422473907E0,-3.823349304E0,-1.454375610E0,6.792380407E0
1.209395604E1,6.770720215E0,-2.971919861E0,-1.274749146E0,7.503328946E0
1.210387804E1,8.284821625E0,-2.093247070E0,-1.407523041E0,8.660316031E0
1.211380004E1,1.005324417E1,-1.636546783E0,-1.572629700E0,1.030626838E1
1.212372204E1,1.166943329E1,-1.312171326E0,-1.677711182E0,1.186221656E1
1.213364404E1,1.318862411E1,-8.467890930E-1,-2.086810455E0,1.337952300E1
1.214356604E1,1.466275864E1,-2.868035889E-1,-2.904260559E0,1.495036710E1
1.215348804E1,1.572614731E1,5.598358154E-2,-3.772904205E0,1.617249670E1
1.216341004E1,1.583856354E1,3.236270142E-1,-4.639901276E0,1.650737754E1
1.217333204E1,1.530088165E1,4.695735168E-1,-5.515131226E0,1.627126765E1
1.218325404E1,1.403601196E1,-2.204914856E-1,-5.825136566E0,1.519837045E1
1.219317604E1,1.272937912E1,-8.559201050E-1,-5.768853607E0,1.400176289E1
1.220309804E1,1.197360077E1,-1.132694550E0,-5.769901428E0,1.333948555E1
1.221302004E1,1.126901596E1,-1.454375610E0,-5.921087036E0,1.281269686E1
1.222294304E1,1.028271698E1,-1.825004883E0,-5.893843689E0,1.199175987E1
1.223286504E1,9.953701172E0,-1.898052979E0,-5.219046936E0,1.139812366E1
1.224278704E1,1.066457291E1,-1.828747101E0,-4.220922546E0,1.161437120E1
1.225270904E1,1.197584610E1,-1.382974091E0,-2.874173126E0,1.239331991E1
1.226263104E1,1.260738281E1,-2.221230927E0,-1.564995575E0,1.289686704E1
1.227255304E1,1.340462494E1,-3.522624664E0,-5.897735596E-1,1.387229927E1
1.228247504E1,1.527109360E1,-4.374652863E0,6.667135620E-1,1.589932056E1
1.229239704E1,1.588347015E1,-5.313051453E0,2.473606110E0,1.693020576E1
1.230231904E1,1.508607834E1,-6.580615540E0,4.501738586E0,1.706340853E1
1.231224104E1,1.449405945E1,-7.809260559E0,5.175038452E0,1.725813816E1
1.232216304E1,1.414199158E1,-8.477620697E0,4.677024078E0,1.713886031E1
1.233208504E1,1.322589661E1,-8.620274048E0,3.802692261E0,1.623865555E1
1.234200704E1,1.192345505E1,-8.582103424E0,2.594554596E0,1.491821011E1
1.235192904E1,1.063927551E1,-8.217312012E0,1.392703857E0,1.351510356E1
1.236185104E1,9.793833618E0,-8.755442963E0,8.351133728E-1,1.316337239E1
1.237177404E1,8.330326996E0,-7.775730286E0,6.580316162E-1,1.141443538E1
1.238169604E1,7.877967682E0,-7.341034241E0,-6.885681152E-2,1.076837498E1
1.239161804E1,7.259004822E0,-7.897726593E0,-1.223705292E0,1.079651291E1
1.240154004E1,5.581892395E0,-8.272696838E0,-3.747606812E0,1.066018726E1
1.241146204E1,5.206173706E0,-7.815547485E0,-4.740043030E0,1.051926970E1
1.242138404E1,5.393883362E0,-6.445746002E0,-5.926475830E0,1.028419832E1
1.243130604E1,5.168452148E0,-5.453758850E0,-6.396797791E0,9.867897708E0
1.244122804E1,5.114564209E0,-4.167034607E0,-6.028114471E0,8.936504269E0
1.245115004E1,5.859415283E0,-2.342029724E0,-5.663921814E0,8.479260640E0
1.246107204E1,7.065157928E0,-7.114704895E-1,-4.498894501E0,8.406110786E0
1.247099404E1,7.223977661E0,4.445755005E-2,-2.192790070E0,7.549579989E0
1.248091604E1,7.243287506E0,6.530918884E-1,-5.676196289E-1,7.294788205E0
1.249083804E1,7.665260010E0,7.830216980E-1,1.105750580E0,7.784087509E0
1.250076004E1,7.945327606E0,1.069525909E0,2.189496918E0,8.310596440E0
1.251068204E1,7.691754913E0,1.262624359E0,2.651286621E0,8.233263913E0
1.252060504E1,7.053781586E0,1.170416107E0,2.606829071E0,7.610602232E0
1.253052704E1,5.790708160E0,1.077160034E0,2.080673218E0,6.246741213E0
1.254044904E1,4.353546753E0,1.145268402E0,1.617686005E0,4.783504683E0
1.255037104E1,3.316503296E0,7.960446167E-1,1.503174133E0,3.727252825E0
1.256029304E1,2.492766266E0,-1.386117554E-1,1.453327789E0,2.888816114E0
1.257021504E1,1.331331482E0,-8.710386658E-1,1.450633392E0,2.153018604E0
1.258013704E1,9.045689392E-1,-1.268611908E0,1.414857788E0,2.104624361E0
1.259005904E1,1.533710632E0,-1.769021301E0,1.181343384E0,2.622456264E0
1.259998104E1,2.364483032E0,-2.451601868E0,6.715036011E-1,3.471606086E0
1.260990304E1,3.099005585E0,-3.337010651E0,-8.816665649E-2,4.554914824E0
1.261982504E1,3.866309967E0,-4.445605316E0,-1.096769257E0,5.992884296E0
1.262974704E1,4.870721283E0,-5.578150177E0,-2.311792603E0,7.757839277E0
1.263966904E1,6.035149841E0,-6.424939270E0,-3.774101715E0,9.588885336E0
1.264959104E1,7.776778107E0,-6.139632568E0,-5.988297272E0,1.157726522E1
1.265951304E1,9.926457825E0,-6.144721985E0,-8.798104248E0,1.461844081E1
1.266943504E1,1.252759872E1,-6.924749908E0,-1.310988785E1,1.941035936E1
1.267935804E1,1.386806122E1,-7.924969940E0,-1.836815323E1,2.434167873E1
1.268928004E1,1.355296646E1,-8.303832092E0,-2.061752563E1,2.603303460E1
1.269920204E1,1.483115845E1,-7.036717072E0,-1.865360962E1,2.484825547E1
1.270912404E1,1.668864578E1,-5.715714111E0,-1.483085907E1,2.304635907E1
1.271904604E1,1.682366501E1,-4.838538208E0,-1.032822235E1,2.032533722E1
1.272896804E1,1.572959015E1,-4.388274536E0,-6.103856964E0,1.743370384E1
1.273889004E1,1.338576416E1,-4.548890533E0,-3.015778656E0,1.445565661E1
1.274881204E1,9.280251617E0,-5.091961212E0,-1.929936676E0,1.075991611E1
1.275873404E1,6.890770569E0,-5.831722870E0,-2.560126190E0,9.383280704E0
1.276865604E1,7.861501923E0,-7.007378082E0,-3.727398834E0,1.117139482E1
1.277857804E1,1.002540207E1,-7.737559662E0,-5.303920441E0,1.372989760E1
1.278850004E1,1.200698135E1,-6.698270874E0,-6.147566071E0,1.506077696E1
1.279842204E1,1.367586090E1,-5.610333252E0,-5.544170837E0,1.578742667E1
1.280834404E1,1.480406479E1,-4.639452209E0,-3.995940399E0,1.602037424E1
1.281826604E1,1.453058350E1,-6.227948914E0,-1.290167084E0,1.586158049E1
1.282818804E1,1.121123611E1,-8.188721466E0,2.645598450E0,1.413315837E1
1.283811104E1,7.316784668E0,-8.715326385E0,4.926405487E0,1.240006947E1
1.284803304E1,5.302722931E0,-7.816595306E0,4.917873230E0,1.064910840E1
1.285795504E1,5.855223999E0,-7.590265961E0,3.380420380E0,1.016479352E1
1.286787704E1,5.890700226E0,-7.234755249E0,2.310295715E0,9.611425438E0
1.287779904E1,6.234684906E0,-6.400240631E0,1.819316711E0,9.118349045E0
1.288772104E1,7.582332458E0,-4.988077240E0,1.419348450E0,9.186252233E0
1.289764304E1,8.618777161E0,-4.665647736E0,1.858086090E0,9.975172803E0
1.290756504E1,9.297166443E0,-4.587959290E0,2.448907471E0,1.065287858E1
1.291748704E1,9.051078186E0,-4.139791260E0,2.377505951E0,1.023290880E1
1.292740904E1,8.473429413E0,-3.754492493E0,2.009122009E0,9.483237377E0
1.293733104E1,8.124954071E0,-3.359014893E0,1.473535767E0,8.914548074E0
1.294725304E1,7.862400055E0,-3.035537567E0,1.083446960E0,8.497392557E0
1.295717504E1,7.545958099E0,-2.988684998E0,8.613088989E-1,8.161836477E0
1.296709704E1,7.210655365E0,-3.077300720E0,7.438032532E-1,7.875060241E0
1.297701904E1,7.199578400E0,-2.952759705E0,1.627116394E-1,7.783263717E0
1.298694204E1,7.245532837E0,-2.588117981E0,-5.129832458E-1,7.710982595E0
1.299686404E1,7.479496307E0,-2.003134460E0,-1.075064392E0,7.817363758E0
1.300678604E1,7.601791992E0,-1.143472137E0,-1.292562103E0,7.795222050E0
1.301670804E1,8.011040955E0,-4.457730103E-1,-1.434916077E0,8.150734623E0
1.302663004E1,8.248297577E0,1.197509766E-3,-1.561253357E0,8.394755887E0
1.303655204E1,8.080795898E0,1.456471252E-1,-1.571282501E0,8.233432099E0
1.304647404E1,7.810009003E0,2.287243652E-1,-1.520538025E0,7.959936642E0
1.305639604E1,7.783364410E0,4.246669006E-1,-1.895208893E0,8.022027192E0
1.306631804E1,7.902666321E0,8.443940735E-1,-2.362537079E0,8.291364048E0
1.307624004E1,8.076155548E0,1.279838562E0,-3.245999908E0,8.797658245E0
1.308616204E1,7.823930054E0,1.412313080E0,-3.979324951E0,8.890643216E0
1.309608342E1,7.193740540E0,8.650511169E-1,-4.312082977E0,8.431623568E0
1.310600542E1,7.029232635E0,3.454815674E-1,-4.347858582E0,8.272444814E0
1.311592742E1,6.406826935E0,-8.975335693E-1,-4.122127991E0,7.671045369E0
1.312584942E1,5.937103729E0,-2.359842682E0,-3.405867462E0,7.240027027E0
1.313577142E1,5.730533295E0,-3.481609955E0,-2.584824829E0,7.186232609E0
1.314569442E1,5.925428009E0,-4.256398773E0,-1.934427338E0,7.547823311E0
1.315561642E1,6.317163391E0,-4.414020996E0,-1.551673279E0,7.861159242E0
1.316553842E1,6.806495819E0,-4.085454254E0,-1.494342499E0,8.077894608E0
1.317546042E1,7.381001129E0,-3.627706146E0,-1.478625183E0,8.356181065E0
1.318538242E1,7.787705383E0,-3.182531891E0,-1.373992767E0,8.524360416E0
1.319530442E1,8.232879639E0,-2.892435150E0,-1.288969574E0,8.820880387E0
1.320522642E1,8.763825531E0,-2.725981293E0,-1.234482880E0,9.260645762E0
1.321514842E1,9.342671814E0,-2.542462921E0,-1.270857239E0,9.765485776E0
1.322507042E1,1.000130219E1,-2.338137817E0,-1.360071716E0,1.036063362E1
1.323499242E1,1.068343369E1,-1.972448273E0,-1.618584137E0,1.098390286E1
1.324491442E1,1.138667130E1,-1.454375610E0,-2.057770844E0,1.166215728E1
1.325483642E1,1.232222580E1,-9.116043091E-1,-2.599793701E0,1.262644837E1
1.326475842E1,1.346734451E1,-3.682342529E-1,-3.211721191E0,1.384991400E1
1.327468042E1,1.451696182E1,-2.395019531E-3,-3.712429962E0,1.498413569E1
1.328460242E1,1.524115585E1,2.059716797E-1,-4.050277405E0,1.577149337E1
1.329452442E1,1.565594330E1,9.175918579E-2,-4.317022705E0,1.624049462E1
1.330444642E1,1.538306076E1,-3.626957703E-1,-4.349654846E0,1.599029718E1
1.331436942E1,1.481454300E1,-1.369202728E0,-4.243375854E0,1.547099347E1
1.332429142E1,1.341615097E1,-2.935246124E0,-4.010609894E0,1.430712299E1
1.333421342E1,1.133817215E1,-4.212539978E0,-3.716172180E0,1.265344129E1
1.334413542E1,9.656419373E0,-4.638105011E0,-4.134103088E0,1.148256337E1
1.335405742E1,9.595945129E0,-3.946243744E0,-4.612059174E0,1.135456263E1
1.336397942E1,1.057745407E1,-2.392624512E0,-4.826712799E0,1.187031352E1
1.337390142E1,1.216011292E1,-9.693841553E-1,-4.509073334E0,1.300537558E1
1.338382342E1,1.320598801E1,-5.089416504E-1,-3.579506378E0,1.369196870E1
1.339374542E1,1.339998459E1,-1.223705292E0,-2.331401825E0,1.365622481E1
1.340366742E1,1.298010773E1,-2.160157928E0,-9.915380859E-1,1.319593220E1
1.341358942E1,1.223720261E1,-3.130440216E0,3.767665100E-1,1.263688002E1
1.342351142E1,1.132664612E1,-3.963158569E0,1.851649475E0,1.214199917E1
1.343343342E1,1.050994446E1,-4.668940887E0,2.747237091E0,1.182392715E1
1.344335542E1,9.961185608E0,-5.041965179E0,2.818039856E0,1.151468542E1
1.345327742E1,9.617799683E0,-5.172344055E0,2.603086853E0,1.122636517E1
1.346319942E1,9.435778198E0,-5.277275848E0,2.287842407E0,1.105069109E1
1.347312142E1,9.256750488E0,-5.255570984E0,1.905537415E0,1.081385818E1
1.348304442E1,9.000932465E0,-5.423821106E0,1.595083008E0,1.062915380E1
1.349296642E1,8.557105408E0,-5.753585358E0,1.577120361E0,1.043144794E1
1.350288842E1,7.860603790E0,-6.276597748E0,1.564696198E0,1.018003170E1
1.351281042E1,7.225474548E0,-6.918612671E0,1.460363159E0,1.010976480E1
1.352273242E1,6.742878113E0,-7.414232025E0,9.714797974E-1,1.006881397E1
1.353265442E1,6.059100037E0,-7.306605835E0,-1.203647003E0,9.568069199E0
1.354257642E1,4.946912842E0,-7.142397308E0,-4.349654846E0,9.716238123E0
1.355249842E1,5.487438812E0,-6.843917999E0,-5.636079712E0,1.042672493E1
1.356242042E1,5.540428619E0,-5.739813995E0,-7.029681702E0,1.063288478E1
1.357234242E1,5.331912231E0,-4.838687897E0,-7.379504242E0,1.031015380E1
1.358226442E1,5.549409943E0,-3.901187439E0,-7.101681976E0,9.820850322E0
1.359218642E1,6.284531250E0,-2.631078644E0,-6.972201233E0,9.748307437E0
1.360210842E1,7.331903229E0,-1.333127747E0,-6.253845062E0,9.728546274E0
1.361203042E1,7.652087402E0,-7.376660156E-1,-4.386927338E0,8.851199028E0
1.362195242E1,7.632627869E0,-4.721182251E-1,-2.227667542E0,7.965074166E0
1.363187442E1,8.124055939E0,-6.074368286E-1,1.763333130E-1,8.148641472E0
1.364179742E1,8.340805206E0,-8.952882385E-1,1.983375549E0,8.619997163E0
1.365171942E1,8.452472992E0,-1.116378479E0,2.678380280E0,8.936684033E0
1.366164142E1,8.172704773E0,-1.007105713E0,2.489173737E0,8.602520044E0
1.367156342E1,7.458240509E0,-1.038540344E0,1.798659668E0,7.742034238E0
1.368148542E1,6.621480560E0,-1.312021637E0,5.912704468E-1,6.776061269E0
1.369140742E1,5.673501892E0,-1.875000916E0,-2.173480225E-1,5.979255164E0
1.370132942E1,5.146298218E0,-2.523901520E0,-5.542973328E-1,5.758620474E0
1.371125142E1,4.981341248E0,-2.951113129E0,-6.463558960E-1,5.825856612E0
1.372117342E1,4.982838135E0,-3.221301270E0,-7.903564453E-1,5.985826681E0
1.373109542E1,4.927453308E0,-3.329526215E0,-1.050216064E0,6.038915027E0
1.374101742E1,4.889282684E0,-3.325933685E0,-1.040486298E0,6.004126230E0
1.375093942E1,4.492158508E0,-3.289858704E0,-1.102756805E0,5.676154590E0
1.376086142E1,4.357438660E0,-3.430266724E0,-1.696422272E0,5.799297371E0
1.377078342E1,4.587061157E0,-3.750001831E0,-2.642155609E0,6.487266763E0
1.378070542E1,5.077291718E0,-4.002676392E0,-3.672014008E0,7.435320864E0
1.379062742E1,5.639073486E0,-4.308041382E0,-4.861141205E0,8.601689610E0
1.380054942E1,6.129154358E0,-4.456682281E0,-6.082301788E0,9.717146965E0
1.381047242E1,6.799460449E0,-4.534520416E0,-7.545059967E0,1.112306018E1
1.382039442E1,7.671696625E0,-4.430935822E0,-9.454189911E0,1.295645894E1
1.383031642E1,8.567882996E0,-4.602179718E0,-1.124072479E1,1.486413708E1
1.384023842E1,9.164542236E0,-5.848937073E0,-1.098101486E1,1.545255923E1
1.385016042E1,1.003333557E1,-6.277645569E0,-9.586365051E0,1.523072721E1
1.386008242E1,1.078701828E1,-6.215824127E0,-8.622519379E0,1.514411019E1
1.387000442E1,1.161868881E1,-5.882018280E0,-8.564440155E0,1.558658731E1
1.387992642E1,1.244691650E1,-4.619244232E0,-8.908424835E0,1.598822006E1
1.388984842E1,1.270123764E1,-3.751349030E0,-9.120982819E0,1.608062140E1
1.389977042E1,1.150312912E1,-3.942351837E0,-8.698112183E0,1.495062785E1
1.390969242E1,9.175319824E0,-5.152734833E0,-7.724087677E0,1.305368533E1
1.391961442E1,7.425009613E0,-5.970334625E0,-7.101382599E0,1.188298355E1
1.392953642E1,7.696395264E0,-7.032675476E0,-7.078629913E0,1.260158823E1
1.393945842E1,9.158404999E0,-8.250991974E0,-6.819069672E0,1.408740437E1
1.394938042E1,1.095451996E1,-8.917855225E0,-6.129753113E0,1.539816621E1
1.395930242E1,1.320658676E1,-7.509434052E0,-5.823789368E0,1.627028138E1
1.396922442E1,1.362361954E1,-5.557193756E0,-5.013674011E0,1.554420596E1
1.397914742E1,1.272488846E1,-6.086493073E0,-2.228715363E0,1.428059370E1
1.398906942E1,9.420210571E0,-7.569010162E0,2.022294617E-1,1.208599101E1
1.399899142E1,7.902965698E0,-7.588769073E0,1.387315063E0,1.104404482E1
1.400891342E1,6.533463593E0,-6.294560394E0,3.704795837E0,9.799650467E0
1.401883542E1,4.928201752E0,-6.067332916E0,4.277205505E0,8.910341641E0
1.402875742E1,5.546116791E0,-6.197562103E0,3.364104309E0,8.971420472E0
1.403867942E1,6.813680878E0,-5.625152435E0,2.766996002E0,9.258771727E0
1.404860142E1,8.404572601E0,-5.042264557E0,2.964285736E0,1.023954405E1
1.405852342E1,1.019365219E1,-5.287304993E0,3.464096375E0,1.199441965E1
1.406844542E1,1.061442719E1,-5.358107758E0,3.806434479E0,1.248456353E1
1.407836742E1,1.038660095E1,-5.059478760E0,3.337010651E0,1.202561619E1
1.408828942E1,1.036774017E1,-4.572092285E0,2.354753265E0,1.157319865E1
1.409821158E1,1.020278320E1,-3.719315643E0,1.565594330E0,1.097183574E1
1.410813358E1,1.001477417E1,-3.269351349E0,8.629554749E-1,1.057019641E1
1.411805558E1,9.747729492E0,-2.737507324E0,8.113128662E-2,1.012515476E1
1.412797758E1,9.277257843E0,-2.472707977E0,-4.767585754E-1,9.612965025E0
1.413789958E1,8.611442413E0,-2.530787201E0,-1.130449219E0,9.046531917E0
1.414782158E1,8.056995392E0,-2.567460938E0,-1.994452515E0,8.688202993E0
1.415774458E1,7.717800751E0,-2.275717621E0,-2.334395599E0,8.378110881E0
1.416766658E1,8.046367493E0,-1.650168457E0,-2.969674530E0,8.734188719E0
1.417758858E1,8.646619263E0,-6.423143005E-1,-3.406765594E0,9.315720270E0
1.418751058E1,9.011260986E0,3.450325012E-1,-3.363655243E0,9.624762261E0
1.419743258E1,8.663983154E0,9.104067993E-1,-3.244652710E0,9.296301192E0
1.420735458E1,8.219856720E0,1.335373077E0,-3.045716400E0,8.867110811E0
1.421727658E1,7.947273560E0,1.544188843E0,-3.022215271E0,8.641612197E0
1.422719858E1,7.656877441E0,1.762285309E0,-3.080893250E0,8.439509753E0
1.423712058E1,7.429200897E0,2.020947418E0,-2.999462585E0,8.262810069E0
1.424704258E1,7.163204041E0,2.007625122E0,-2.986888733E0,8.016455268E0
1.425696458E1,6.714886322E0,1.627565460E0,-3.086282043E0,7.567285147E0
1.426688658E1,6.141279144E0,9.857002258E-1,-3.060834961E0,6.932216465E0
1.427680858E1,5.563031616E0,2.933898926E-2,-2.844534760E0,6.248164493E0
1.428673058E1,5.223238220E0,-7.836204529E-1,-2.452500000E0,5.823318192E0
1.429665258E1,5.090913391E0,-1.642983398E0,-2.106419678E0,5.749243208E0
1.430657458E1,5.562582550E0,-2.412832489E0,-1.658700714E0,6.286125460E0
1.431649658E1,6.078559570E0,-3.109334106E0,-1.263372803E0,6.943554988E0
1.432641858E1,6.468498688E0,-3.691473541E0,-9.804611206E-1,7.511974187E0
1.433634058E1,6.906038818E0,-3.815864868E0,-1.018332367E0,7.955576514E0
1.434626358E1,7.576644287E0,-3.862268372E0,-1.120120697E0,8.577722658E0
1.435618558E1,8.481961670E0,-3.690126343E0,-1.359173584E0,9.349227724E0
1.436610758E1,9.290879517E0,-3.120560760E0,-1.740730133E0,9.954319818E0
1.437602958E1,1.020996826E1,-2.928510132E0,-2.099983063E0,1.082725969E1
1.438595158E1,1.089509354E1,-2.656675415E0,-2.387834473E0,1.146572025E1
1.439587358E1,1.155312515E1,-2.352957001E0,-2.819387054E0,1.212270806E1
1.440579558E1,1.210697342E1,-2.030677185E0,-3.404520264E0,1.273943537E1
1.441571758E1,1.255648865E1,-1.634301453E0,-4.101770325E0,1.331017912E1
1.442563958E1,1.309282333E1,-1.289119263E0,-4.882097626E0,1.403277337E1
1.443556158E1,1.378558273E1,-1.050066376E0,-5.465135193E0,1.486649365E1
1.444548358E1,1.402747971E1,-1.211131439E0,-5.794600067E0,1.522545291E1
1.445540558E1,1.390937531E1,-1.424587555E0,-5.751789093E0,1.511896983E1
1.446532758E1,1.363574432E1,-1.288670197E0,-5.916446686E0,1.491973644E1
1.447524958E1,1.327469513E1,-1.443148956E0,-6.300547943E0,1.476472533E1
1.448517158E1,1.245125748E1,-1.600621490E0,-6.454727325E0,1.411592387E1
1.449509358E1,1.180355438E1,-1.899699554E0,-6.277196503E0,1.350318297E1
1.450501558E1,1.140089172E1,-2.400258636E0,-5.720504150E0,1.297943532E1
1.451493758E1,1.127245880E1,-2.329755249E0,-4.237537994E0,1.226592089E1
1.452485958E1,1.155117920E1,-1.940863953E0,-2.984493713E0,1.208734448E1
1.453478258E1,1.235964798E1,-2.253114624E0,-1.412313080E0,1.264247017E1
1.454470458E1,1.325254120E1,-2.945275269E0,8.487350464E-2,1.357614445E1
1.455462658E1,1.377181137E1,-3.181334381E0,1.042731628E0,1.417289547E1
1.456454858E1,1.355491241E1,-3.462749176E0,1.951042786E0,1.412560973E1
1.457447058E1,1.288161255E1,-4.288581848E0,2.908900909E0,1.388486877E1
1.458439258E1,1.220472015E1,-5.081183624E0,3.215313721E0,1.360558207E1
1.459431458E1,1.164727936E1,-5.688171387E0,2.865491180E0,1.327499340E1
1.460423658E1,1.098281113E1,-6.167774048E0,2.149230652E0,1.277821464E1
1.461415858E1,1.024828857E1,-6.565646667E0,1.405128021E0,1.225191902E1
1.462408058E1,9.567803650E0,-6.800807648E0,6.926097107E-1,1.175897783E1
1.463400258E1,8.927734680E0,-6.775959320E0,1.767823792E-1,1.120934089E1
1.464392458E1,8.419990540E0,-6.704857178E0,-6.646179199E-2,1.076363171E1
1.465384658E1,7.862849121E0,-6.719376984E0,-1.549278259E-1,1.034400435E1
1.466376858E1,7.271428986E0,-6.722520447E0,-1.315763855E-1,9.903699965E0
1.467369058E1,6.840924225E0,-6.692433014E0,-6.818321228E-1,9.594362873E0
1.468361258E1,6.396498413E0,-6.427483978E0,-2.798430634E0,9.489939739E0
1.469353458E1,5.346132660E0,-6.001469879E0,-4.840633850E0,9.382457631E0
1.470345658E1,5.450316010E0,-5.567522278E0,-6.026916962E0,9.850227255E0
1.471337958E1,5.897286530E0,-4.300556946E0,-6.900500336E0,1.004438566E1
1.472330158E1,5.429209900E0,-3.214864655E0,-6.999743958E0,9.423804452E0
1.473322358E1,4.942721558E0,-2.524949341E0,-6.156397705E0,8.288974501E0
1.474314558E1,5.297334137E0,-1.744921417E0,-5.461243286E0,7.805874579E0
1.475306758E1,6.078110504E0,-8.716374207E-1,-4.435725861E0,7.574882376E0
1.476298958E1,6.506220245E0,-5.391787720E-1,-2.886896667E0,7.138332298E0
1.477291158E1,6.585405579E0,-7.671546936E-1,-1.418600006E0,6.780008771E0
1.478283358E1,6.220614166E0,-1.261426849E0,3.035687256E-1,6.354478128E0
1.479275558E1,6.116131439E0,-1.551373901E0,1.770218811E0,6.553434169E0
1.480267758E1,6.075266418E0,-1.731449432E0,2.902015228E0,6.951868208E0
1.481259958E1,6.266269226E0,-1.561702423E0,3.124153290E0,7.173937430E0
1.482252158E1,6.376440125E0,-1.269060974E0,2.025288391E0,6.809647383E0
1.483244358E1,6.022725677E0,-1.053658905E0,7.000941467E-1,6.154149290E0
1.484236558E1,5.628445587E0,-1.021475830E0,-9.160949707E-2,5.721119200E0
1.485228758E1,5.607638855E0,-1.198856964E0,-8.960366821E-1,5.803942908E0
1.486220958E1,5.488037567E0,-1.642534332E0,-1.093176727E0,5.831938848E0
1.487213158E1,5.184917908E0,-2.397414551E0,-9.865983582E-1,5.796925613E0
1.488205358E1,4.752467194E0,-2.955454102E0,-9.535171509E-1,5.677133813E0
1.489197558E1,4.772375793E0,-3.350482635E0,-1.375639343E0,5.991134134E0
1.490189758E1,5.325325928E0,-3.975133667E0,-2.096540222E0,6.968232546E0
1.491182058E1,5.621410217E0,-4.489763489E0,-3.031795349E0,7.807048870E0
1.492174258E1,5.669011230E0,-4.504582672E0,-4.268224182E0,8.405158598E0
1.493166458E1,5.741011505E0,-4.403542786E0,-5.858666840E0,9.309907588E0
1.494158658E1,6.104306030E0,-4.237388306E0,-7.298971710E0,1.041599730E1
1.495150858E1,6.769971771E0,-3.874093781E0,-8.727451172E0,1.170510676E1
1.496143058E1,7.571854248E0,-3.568429413E0,-1.020577698E1,1.319941472E1
1.497135258E1,8.477321320E0,-3.266357574E0,-1.178409485E1,1.487948117E1
1.498127458E1,9.983638916E0,-3.137924652E0,-1.285481827E1,1.657606617E1
1.499119658E1,1.192899353E1,-3.499572601E0,-1.259316238E1,1.769563884E1
1.500111858E1,1.316392548E1,-3.232827301E0,-1.181957108E1,1.798450352E1
1.501104058E1,1.346494949E1,-2.986739044E0,-1.160147461E1,1.802275473E1
1.502096258E1,1.282278488E1,-2.686164093E0,-1.136825958E1,1.734579533E1
1.503088458E1,1.223136475E1,-2.143542480E0,-1.121512802E1,1.673260752E1
1.504080658E1,1.133248398E1,-1.654359741E0,-1.023436752E1,1.535917895E1
1.505072858E1,9.203760681E0,-2.646945648E0,-8.394992523E0,1.273543998E1
1.506065058E1,7.034022675E0,-3.986809387E0,-6.778504028E0,1.055084077E1
1.507057258E1,8.218210144E0,-4.699028320E0,-5.782774658E0,1.109325596E1
1.508049458E1,9.890233154E0,-5.873785400E0,-4.032015381E0,1.218914332E1
1.509041658E1,1.259046799E1,-5.210664368E0,-2.345023499E0,1.382642551E1
1.510033917E1,1.277937515E1,-4.331841888E0,-3.041674805E-1,1.349702935E1
1.511026117E1,1.130598907E1,-5.157524872E0,1.524429932E0,1.251995760E1
1.512018417E1,1.038001465E1,-6.656657410E0,8.716374207E-1,1.236185843E1
1.513010617E1,9.790540466E0,-7.667655029E0,4.613406372E-1,1.244429393E1
1.514002817E1,1.026909531E1,-7.848029938E0,1.579814758E0,1.302081821E1
1.514995017E1,1.082414108E1,-7.169041901E0,2.755020905E0,1.327205079E1
1.515987217E1,1.062565384E1,-6.572382660E0,2.208507385E0,1.268771998E1
1.516979417E1,1.049302963E1,-5.436245270E0,1.020877075E0,1.186164506E1
1.517971617E1,1.039184006E1,-4.226461029E0,9.434880066E-1,1.125804078E1
1.518963817E1,1.015563126E1,-4.017196198E0,1.458566895E0,1.101826342E1
1.519956017E1,9.603579254E0,-3.722459106E0,1.722468109E0,1.044281249E1
1.520948217E1,9.438622284E0,-3.298690338E0,1.430126038E0,1.010020837E1
1.521940417E1,9.011260986E0,-2.963836670E0,1.093625793E0,9.548987891E0
1.522932617E1,8.578660583E0,-2.631378021E0,8.809181213E-1,9.016295494E0
1.523924817E1,8.420738983E0,-2.492167511E0,7.259902954E-1,8.811742497E0
1.524917017E1,8.363857269E0,-2.352358246E0,3.772155762E-1,8.696550427E0
1.525909217E1,8.149503021E0,-2.358196106E0,-3.481759644E-1,8.490978440E0
1.526901417E1,7.824528809E0,-2.554288330E0,-9.662406921E-1,8.287415823E0
1.527893617E1,7.334597626E0,-2.458786926E0,-1.356928253E0,7.853865912E0
1.528885817E1,7.035519562E0,-2.154918823E0,-1.689386902E0,7.549585336E0
1.529878017E1,7.051087189E0,-1.839824066E0,-1.944755859E0,7.542205148E0
1.530870217E1,7.010371857E0,-1.457668762E0,-2.177072754E0,7.483966700E0
1.531862417E1,6.902745667E0,-1.098415833E0,-2.349214783E0,7.373820256E0
1.532854717E1,6.892117767E0,-8.851094055E-1,-2.287243652E0,7.315476027E0
1.533846917E1,6.724466400E0,-9.581575012E-1,-2.104024658E0,7.110796997E0
1.534839117E1,6.737788696E0,-9.536668396E-1,-2.094594269E0,7.120014193E0
1.535831317E1,6.546935577E0,-1.033151550E0,-2.229164429E0,6.992777819E0
1.536823517E1,6.516997833E0,-1.214723969E0,-2.388732605E0,7.046478449E0
1.537815717E1,6.826703796E0,-9.300160217E-1,-2.901117096E0,7.475646790E0
1.538807917E1,7.276219025E0,-4.858895874E-1,-3.586990814E0,8.126866253E0
1.539800117E1,7.422913971E0,-7.322772217E-1,-3.571423187E0,8.269881821E0
1.540792317E1,6.940916290E0,-1.276395721E0,-3.370690613E0,7.820937296E0
1.541784517E1,6.499334564E0,-1.545236664E0,-3.697610779E0,7.635537414E0
1.542776717E1,6.100563812E0,-1.958377533E0,-3.495531006E0,7.298688814E0
1.543768917E1,6.089337158E0,-2.648143158E0,-2.813848572E0,7.211825913E0
1.544761117E1,6.337970123E0,-2.931803284E0,-2.242337036E0,7.334399168E0
1.545753317E1,6.736591187E0,-2.794089661E0,-1.894011383E0,7.534976905E0
1.546745517E1,7.320676575E0,-2.723735962E0,-1.583407288E0,7.969831977E0
1.547737717E1,7.740254059E0,-2.413281555E0,-1.460961914E0,8.238317211E0
1.548729917E1,8.252339172E0,-2.057321777E0,-1.476978607E0,8.632215273E0
1.549722117E1,8.865464172E0,-1.858684845E0,-1.586999817E0,9.196180336E0
1.550714317E1,9.424701233E0,-1.682950287E0,-1.916015625E0,9.763627956E0
1.551706517E1,1.012045441E1,-1.410666504E0,-2.423759766E0,1.050181836E1
1.552698717E1,1.094029953E1,-1.311572571E0,-2.863694916E0,1.138468818E1
1.553690917E1,1.169368286E1,-1.312171326E0,-3.216511230E0,1.219876867E1
1.554683217E1,1.256996063E1,-1.098715210E0,-3.871698761E0,1.319852782E1
1.555675417E1,1.350626358E1,-8.099656677E-1,-4.547393646E0,1.427424216E1
1.556667617E1,1.443148956E1,-5.023553467E-1,-5.303171997E0,1.538323390E1
1.557659817E1,1.486453903E1,-4.031117249E-1,-5.779481506E0,1.595366498E1
1.558652017E1,1.456770630E1,-7.671546936E-1,-6.066883850E0,1.579916684E1
1.559644217E1,1.355371490E1,-1.203347626E0,-6.304290161E0,1.499650985E1
1.560636417E1,1.266276764E1,-1.626068573E0,-6.516249390E0,1.433357211E1
1.561628617E1,1.197913925E1,-2.136806488E0,-6.132297821E0,1.362610714E1
1.562620817E1,1.195938034E1,-2.568508759E0,-5.769901428E0,1.352463596E1
1.563613017E1,1.247296234E1,-2.457589417E0,-4.535418549E0,1.349757596E1
1.564605217E1,1.317949310E1,-1.611698456E0,-3.265908508E0,1.367343295E1
1.565597417E1,1.398302216E1,-1.782493286E0,-2.400108948E0,1.429904591E1
1.566589617E1,1.455198898E1,-2.326462097E0,-1.485510864E0,1.481146690E1
1.567581817E1,1.455363556E1,-2.910397797E0,-6.086343384E-1,1.485426400E1
1.568574017E1,1.375893814E1,-4.096082153E0,8.954379272E-1,1.438360445E1
1.569566217E1,1.237162308E1,-4.974754944E0,2.152823181E0,1.350703120E1
1.570558417E1,1.141002274E1,-5.468877411E0,2.723436584E0,1.294273332E1
1.571550617E1,1.079001205E1,-5.828579407E0,2.668949890E0,1.255069686E1
1.572542817E1,1.033555710E1,-6.156547394E0,2.214794312E0,1.223242127E1
1.573535017E1,9.885293427E0,-6.409970398E0,1.613195343E0,1.189155776E1
1.574527217E1,9.439670105E0,-6.525829468E0,9.942324829E-1,1.151878119E1
1.575519417E1,8.967402191E0,-6.648274841E0,3.799099731E-1,1.116952067E1
1.576511717E1,8.372988281E0,-6.642137604E0,9.295669556E-2,1.068801037E1
1.577503917E1,7.921078033E0,-6.715634766E0,-9.160949707E-2,1.038516345E1
1.578496117E1,7.401358795E0,-6.565946045E0,-4.664300537E-1,9.905014713E0
1.579488317E1,7.106022949E0,-6.231691132E0,-9.524693298E-1,9.499301782E0
1.580480517E1,7.120692444E0,-5.597759399E0,-2.250270538E0,9.332892835E0
1.581472717E1,6.233786774E0,-5.227429504E0,-4.496499481E0,9.295408778E0
1.582464917E1,5.357658691E0,-5.204527130E0,-5.707930298E0,9.400642403E0
1.583457117E1,5.556595001E0,-4.559069366E0,-6.232140198E0,9.513171550E0
1.584449317E1,5.927673340E0,-3.209176483E0,-7.102879486E0,9.792191885E0
1.585441517E1,5.857319641E0,-1.973496094E0,-6.764283600E0,9.162882343E0
1.586433717E1,5.638923798E0,-1.292861481E0,-6.058351593E0,8.376907331E0
1.587425917E1,5.875581665E0,-8.394543457E-1,-5.282814331E0,7.945770621E0
1.588418117E1,6.192023621E0,-2.281256104E-1,-4.332889709E0,7.560894858E0
1.589410317E1,6.677913208E0,1.347198486E-1,-3.068768463E0,7.350511148E0
1.590402517E1,6.673272858E0,3.118016052E-1,-1.483265533E0,6.843235164E0
1.591394717E1,6.518943787E0,1.287322998E-1,3.432362366E-1,6.529242775E0
1.592386917E1,6.574178925E0,-2.468367004E-1,2.412832489E0,7.007318853E0
1.593379117E1,6.425538025E0,-6.667135620E-1,3.932173004E0,7.562673497E0
1.594371317E1,6.240522766E0,-8.749305725E-1,4.162094879E0,7.551997198E0
1.595363517E1,5.911656647E0,-7.756869507E-1,3.420087891E0,6.873599911E0
1.596355717E1,5.448370056E0,-4.432283020E-1,2.080373840E0,5.848858257E0
1.597347917E1,5.257217560E0,-2.299218750E-1,5.721102905E-1,5.293251432E0
1.598340117E1,5.475014648E0,-1.428030396E-1,-4.730163574E-1,5.497265009E0
1.599332417E1,5.862858124E0,-3.935316467E-1,-1.234333191E0,6.004294377E0
1.600324617E1,6.197562103E0,-1.006806335E0,-1.549877014E0,6.467267876E0
1.601316817E1,6.473288727E0,-2.005978546E0,-1.551074524E0,6.952211810E0
1.602309017E1,6.713539124E0,-3.125350800E0,-1.626068573E0,7.581788983E0
1.603301217E1,7.141948242E0,-4.219275970E0,-1.819316711E0,8.492327579E0
1.604293417E1,7.452103271E0,-5.221741333E0,-2.212998047E0,9.364709610E0
1.605285617E1,7.502248993E0,-6.267167358E0,-2.880160675E0,1.019099859E1
1.606277817E1,7.130571899E0,-6.139482880E0,-4.098177795E0,1.026320451E1
1.607270017E1,7.234904938E0,-5.623206482E0,-5.735023956E0,1.080993989E1
1.608262217E1,7.734865265E0,-5.728287964E0,-6.906787262E0,1.184673516E1
1.609254371E1,8.134234772E0,-5.749843140E0,-8.155490570E0,1.287394648E1
1.610246571E1,9.130712585E0,-5.611979828E0,-9.747729492E0,1.448732067E1
1.611238771E1,1.039154068E1,-5.343737640E0,-1.082533859E1,1.592882938E1
1.612230971E1,1.126168121E1,-4.942871246E0,-1.140583145E1,1.677350384E1
1.613223171E1,1.196207474E1,-4.370311890E0,-1.135748199E1,1.706409257E1
1.614215371E1,1.213676147E1,-3.997137909E0,-1.131541946E1,1.706800540E1
1.615207571E1,1.240919495E1,-3.384461975E0,-1.157872192E1,1.730634287E1
1.616199771E1,1.273237289E1,-3.029699707E0,-1.182376236E1,1.763785010E1
1.617191971E1,1.239033417E1,-3.623065796E0,-1.118279526E1,1.707928266E1
1.618184171E1,1.161419815E1,-4.330943756E0,-9.118438110E0,1.538806635E1
1.619176371E1,1.157183624E1,-4.445006561E0,-7.801177368E0,1.464663257E1
1.620168571E1,1.229438370E1,-4.626728668E0,-6.526577911E0,1.466815285E1
1.621160771E1,1.334459976E1,-3.491489410E0,-4.120631104E0,1.439612593E1
1.622152971E1,1.458417206E1,-2.679727478E0,-4.532574463E-1,1.483524372E1
1.623145171E1,1.312395859E1,-4.284540253E0,3.194506989E0,1.417040751E1
1.624137471E1,9.251661072E0,-6.869514771E0,4.331692200E0,1.231044366E1
1.625129671E1,6.872508545E0,-8.354127502E0,2.702031097E0,1.115005794E1
1.626121871E1,6.030210114E0,-8.870254211E0,1.796564026E0,1.087531545E1
1.627114071E1,7.482340393E0,-8.836125183E0,1.913021851E0,1.173550930E1
1.628106271E1,9.145681458E0,-7.930957489E0,1.908830566E0,1.225508915E1
1.629098471E1,9.684710541E0,-6.182593231E0,2.145787811E0,1.168856204E1
1.630090671E1,1.020263351E1,-4.871320038E0,2.549348602E0,1.158976565E1
1.631082871E1,9.871372375E0,-4.170776825E0,2.671045532E0,1.104417748E1
1.632075071E1,9.271719360E0,-3.575764160E0,2.287393341E0,1.019720734E1
1.633067271E1,8.987759857E0,-3.044219513E0,1.761387177E0,9.651403239E0
1.634059471E1,8.673263855E0,-2.644850006E0,1.225950623E0,9.150065157E0
1.635051671E1,8.492739258E0,-2.414479065E0,6.987469482E-1,8.856894295E0
1.636043871E1,8.122109985E0,-2.347418518E0,6.728507996E-1,8.481260078E0
1.637036071E1,8.000413055E0,-2.473157043E0,6.195616150E-1,8.396842943E0
1.638028271E1,7.849227448E0,-2.571053467E0,3.414399719E-1,8.266635876E0
1.639020471E1,7.810757446E0,-2.631677399E0,-2.649490356E-2,8.242230268E0
1.640012671E1,7.911497955E0,-2.618804169E0,-4.691244507E-1,8.346856469E0
1.641004871E1,7.847730560E0,-2.169288940E0,-1.002465363E0,8.203513044E0
1.641997071E1,7.969876556E0,-1.643432465E0,-1.566342773E0,8.286931415E0
1.642989271E1,8.273145905E0,-1.169967041E0,-2.008972321E0,8.593586901E0
1.643981471E1,8.289162598E0,-7.991880798E-1,-2.426005096E0,8.673777659E0
1.644973671E1,8.228987732E0,-5.840853882E-1,-2.479893036E0,8.614363836E0
1.645965871E1,8.109536133E0,-4.381388855E-1,-2.467169495E0,8.487842322E0
1.646958071E1,7.906258850E0,-1.523831177E-1,-2.541564789E0,8.306124319E0
1.647950271E1,7.873776398E0,1.164578247E-1,-2.714604950E0,8.329405574E0
1.648942571E1,8.029153290E0,4.004173279E-1,-3.315455475E0,8.695969273E0
1.649934771E1,8.057594147E0,6.753955078E-1,-4.103416901E0,9.067470032E0
1.650926971E1,7.426207123E0,5.629792786E-1,-4.300407257E0,8.599941888E0
