"Time (s)","Acceleration x (m/s^2)","Acceleration y (m/s^2)","Acceleration z (m/s^2)","Absolute acceleration (m/s^2)"
-4.254166561E-4,-5.253175964E0,-8.910221100E0,2.498304749E0,1.064093156E1
9.495583334E-3,-7.747289429E0,-1.111723160E1,3.496578827E0,1.399426295E1
1.941658335E-2,-8.345445557E0,-1.198812057E1,3.203338623E0,1.495402537E1
2.933858335E-2,-8.233927460E0,-1.172047714E1,4.553680573E0,1.503007494E1
3.925958334E-2,-7.849826202E0,-1.309940964E1,4.092339935E0,1.581017237E1
4.918058333E-2,-5.789810028E0,-1.385713394E1,3.288810883E0,1.537394999E1
5.910158335E-2,-2.896177368E0,-1.600561615E1,2.353256378E0,1.643488385E1
6.902258334E-2,-1.920805664E0,-1.869986343E1,2.542013855E0,1.896934952E1
7.894358333E-2,2.701881409E-1,-1.810634766E1,1.867965546E0,1.820445337E1
8.886458335E-2,9.171427917E-1,-1.547496964E1,1.043031006E0,1.553717316E1
9.878558334E-2,-9.562115479E-1,-1.436742279E1,7.054829407E-1,1.441647961E1
1.087075833E-1,-1.670077057E0,-1.303204971E1,1.398092651E0,1.321280213E1
1.186285834E-1,-1.858684845E0,-1.203182968E1,2.148332520E0,1.236264403E1
1.285495833E-1,-1.046174469E0,-1.054661819E1,1.694925385E0,1.073305215E1
1.384705833E-1,-4.140390015E-1,-9.587861938E0,1.853894806E0,9.774223795E0
1.483915834E-1,7.450007629E-1,-9.189689941E0,2.318079529E0,9.506782845E0
1.583125833E-1,2.226470032E0,-8.363857269E0,2.176623688E0,8.924627046E0
1.682335833E-1,2.481689301E0,-7.819589081E0,2.668201447E0,8.626937703E0
1.781545834E-1,3.455264740E0,-6.596931610E0,4.289479980E0,8.594067698E0
1.880765833E-1,3.684587860E0,-5.802533569E0,5.578150177E0,8.852194243E0
1.979975833E-1,3.167563019E0,-5.965694275E0,5.458099823E0,8.684112927E0
2.079185833E-1,4.010160828E-1,-7.266489258E0,5.380710754E0,9.050675569E0
2.178395833E-1,-2.456840973E0,-9.584119720E0,4.666845245E0,1.093941785E1
2.277605833E-1,-7.983797607E0,-1.598316284E1,6.140979767E0,1.889217169E1
2.376815833E-1,-2.247276764E0,-1.445514038E1,6.953490143E0,1.619729488E1
2.476025833E-1,3.525019684E0,-9.664502563E0,3.781735840E0,1.096037862E1
2.575235833E-1,1.648521881E0,-7.816146240E0,3.571273499E0,8.750072048E0
2.674455833E-1,4.460723877E-2,-7.158414001E0,3.885170746E0,8.144902243E0
2.773665834E-1,-8.488847351E-1,-5.977819061E0,3.037633209E0,6.758856526E0
2.872875833E-1,-1.880090332E0,-5.070555725E0,2.071242828E0,5.790968992E0
2.972085833E-1,-3.788771210E0,-4.963079224E0,1.321002960E0,6.382161975E0
3.071295834E-1,-4.365222473E0,-5.169350281E0,1.663790131E0,6.967463467E0
3.170505833E-1,-3.584146729E0,-4.982089691E0,1.974992981E0,6.447319035E0
3.269715833E-1,-1.895807648E0,-4.321513367E0,1.173260193E0,4.862725974E0
3.368925833E-1,-2.549498291E0,-6.075416107E0,1.133592682E0,6.685480894E0
3.468145833E-1,-2.884351959E0,-9.375603333E0,1.707050171E0,9.956678380E0
3.567355833E-1,-2.539020081E0,-1.303264847E1,2.277962952E0,1.347166153E1
3.666565833E-1,-1.365310822E0,-1.461081665E1,1.774709473E0,1.478139474E1
3.765775833E-1,-1.335971832E0,-1.361344070E1,1.356179810E0,1.374590165E1
3.864985833E-1,-2.435285797E0,-1.261771133E1,1.438358917E0,1.293082103E1
3.964195833E-1,-1.991009674E0,-1.239976456E1,1.640588379E-1,1.255966544E1
4.063405833E-1,1.862127686E-1,-1.181493073E1,-9.102571106E-1,1.185140630E1
4.162625833E-1,2.018103333E0,-1.099718124E1,1.666933594E0,1.130439755E1
4.261835833E-1,1.573827209E0,-9.421707458E0,1.458866272E0,9.663011659E0
4.361045834E-1,-4.318519592E-1,-8.847950592E0,6.572831726E-1,8.882834399E0
4.460255833E-1,-9.556127930E-1,-8.264913025E0,1.814227295E-1,8.321952735E0
4.559465833E-1,-2.646646271E0,-7.671247559E0,5.372328186E-1,8.132735990E0
4.658675833E-1,-4.505630493E-2,-8.616831207E0,4.570745087E0,9.754154026E0
4.757885833E-1,6.575226746E0,-1.034528687E1,6.211183777E0,1.374181105E1
4.857095833E-1,4.909340973E0,-1.247835114E1,5.208119659E0,1.438524891E1
4.956315833E-1,-1.410816193E0,-8.976533203E0,5.406606903E0,1.057354949E1
5.055525833E-1,3.097059631E-1,-8.762029266E0,2.883753204E0,9.229577845E0
5.154735833E-1,-9.060658264E-1,-9.697883148E0,2.559527435E0,1.007080302E1
5.253945834E-1,-1.167572021E-2,-9.511969757E0,1.520088959E0,9.632672289E0
5.353155833E-1,-2.145039368E-1,-8.926088104E0,9.951306152E-1,8.983949339E0
5.452365833E-1,-6.982978821E-1,-9.028624878E0,1.238524475E0,9.139892231E0
5.551575834E-1,7.150630188E-1,-9.444310455E0,1.957928467E0,9.671597540E0
5.650785833E-1,1.986519012E0,-9.595196686E0,2.213746490E0,1.004563242E1
5.749995833E-1,1.914967804E0,-9.143735504E0,2.208806763E0,9.599678535E0
5.849215833E-1,2.042951660E0,-7.705825653E0,2.365381165E0,8.315553411E0
5.948425833E-1,1.501976624E0,-6.356381836E0,1.553619232E0,6.713661932E0
6.047635833E-1,1.031205597E0,-5.918542328E0,9.723779297E-1,6.085889180E0
6.146847917E-1,5.315446472E-1,-4.691992950E0,9.668394470E-1,4.819970547E0
6.246057917E-1,1.492396545E-1,-3.095263367E0,8.509803772E-1,3.213579840E0
6.345267917E-1,7.077282715E-1,-2.681074677E0,1.120569763E0,2.990772028E0
6.444477917E-1,1.778900757E0,-4.646637268E0,9.714797974E-1,5.069467309E0
6.543687917E-1,1.829645233E0,-8.184530182E0,1.157243500E0,8.466011369E0
6.642907917E-1,2.303410034E0,-1.045530807E1,2.064357147E0,1.090324425E1
6.742117917E-1,2.365081787E0,-1.213960556E1,2.766996002E0,1.267359073E1
6.841327917E-1,2.023192749E0,-1.321077805E1,2.478695526E0,1.359271485E1
6.940537917E-1,2.119442596E0,-1.310270279E1,2.606080627E-1,1.327557057E1
7.039747917E-1,2.234253845E0,-1.160611496E1,-9.178912354E-1,1.185480152E1
7.138957917E-1,1.326990509E0,-1.023182281E1,-5.655239868E-1,1.033300147E1
7.238167917E-1,-6.701564026E-1,-8.780740356E0,-1.663490753E0,8.962014969E0
7.337377917E-1,-2.611469421E0,-6.638096008E0,-2.244133301E0,7.477982711E0
7.436597917E-1,-4.098776550E0,-5.957461395E0,-3.728746033E-1,7.240880537E0
7.535807917E-1,-5.494773560E0,-8.475375366E0,1.586850128E0,1.022460842E1
7.635017917E-1,-6.536457367E0,-1.340282867E1,1.237626343E0,1.496304816E1
7.734227917E-1,-7.098688202E0,-1.611818207E1,2.639461212E0,1.780881587E1
7.833437917E-1,-9.160650330E0,-1.797102905E1,3.865112457E0,2.053812294E1
7.932647917E-1,-1.300510574E1,-1.820843536E1,4.074227600E0,2.274377331E1
8.031857917E-1,-1.320239548E1,-1.217762650E1,5.470074921E0,1.877550407E1
8.131067917E-1,-9.039103088E0,-2.188000031E0,4.527485046E0,1.034363812E1
8.230287917E-1,-6.228547668E0,-6.508615265E0,2.823129272E0,9.440706415E0
8.329497917E-1,1.802102509E0,-1.515837799E1,3.010988617E0,1.555924321E1
8.428707917E-1,9.617350616E0,-1.658012146E1,3.378923492E0,1.946306719E1
8.527917917E-1,6.108497314E0,-1.446127762E1,1.871707764E0,1.580966729E1
8.627127917E-1,1.698817291E0,-8.797206116E0,-8.487350464E-1,8.999842599E0
8.726337917E-1,-2.053729248E-1,-8.438252563E0,1.669178925E0,8.604210751E0
8.825547917E-1,1.010249176E0,-8.690777435E0,3.433859253E0,9.399021502E0
8.924757917E-1,1.630409546E0,-9.102571106E0,3.917952576E0,1.004317621E1
9.023977917E-1,1.681453400E0,-9.259744263E0,3.281775513E0,9.966955396E0
9.123187917E-1,1.008452911E0,-9.554481354E0,2.460732880E0,9.917676014E0
9.222397917E-1,-6.556365967E-2,-9.632469177E0,1.630708923E0,9.769747829E0
9.321607917E-1,-1.425036621E-1,-9.842332764E0,1.107846222E0,9.905510829E0
9.420817917E-1,-9.624984741E-2,-9.928104401E0,8.687933350E-1,9.966510065E0
9.520027917E-1,-1.192270660E0,-1.057371185E1,7.324269104E-1,1.066589616E1
9.619237917E-1,-2.190245361E0,-1.160671371E1,8.487350464E-1,1.184201542E1
9.718447917E-1,-3.154091034E0,-1.340911560E1,1.828447723E0,1.389589481E1
9.817667917E-1,-4.089346161E0,-1.259286301E1,2.151026917E0,1.341379393E1
9.916877917E-1,-4.281845856E0,-1.041608963E1,1.363514557E0,1.134408652E1
1.001608792E0,-4.258045349E0,-7.829318848E0,1.677262115E0,9.068759122E0
1.011529792E0,-3.664529572E0,-5.334606628E0,2.499202881E0,6.937782059E0
1.021450792E0,-4.130660248E0,-4.602179718E0,3.279230804E0,6.999697630E0
1.031371792E0,-5.909411316E0,-5.640720062E0,3.900588684E0,9.052814866E0
1.041292792E0,-6.860982513E0,-6.171067200E0,4.584366760E0,1.030395895E1
1.051213792E0,-7.191195831E0,-5.930667114E0,5.583239594E0,1.086548086E1
1.061135792E0,-7.683821411E0,-6.159092102E0,6.641239471E0,1.187777709E1
1.071056792E0,-8.004754028E0,-6.768025818E0,7.050338745E0,1.263287524E1
1.080977792E0,-7.952512665E0,-7.388335876E0,6.764882355E0,1.279037130E1
1.090898792E0,-7.828420715E0,-8.501421204E0,5.878126373E0,1.296575116E1
1.100819792E0,-6.874604187E0,-1.007075775E1,4.784799957E0,1.309865089E1
1.110740792E0,-6.117478638E0,-1.089015381E1,4.221221924E0,1.318475291E1
1.120661792E0,-6.118077393E0,-1.084509750E1,4.633614349E0,1.328598483E1
1.130582792E0,-6.660100250E0,-9.390721893E0,5.596711578E0,1.280100674E1
1.140504792E0,-7.069648590E0,-7.278464355E0,5.951324158E0,1.176325779E1
1.150425792E0,-5.877078552E0,-7.474855957E0,4.925507355E0,1.070860152E1
1.160346792E0,-4.375251617E0,-8.302484894E0,1.613045654E0,9.522394573E0
1.170267792E0,-4.638404388E0,-1.070064789E1,-8.306227112E-1,1.169224506E1
1.180188792E0,-5.126239929E0,-1.296483948E1,-1.085542603E0,1.398369770E1
1.190109792E0,-5.123096466E0,-1.603869736E1,-1.967658234E0,1.695162556E1
1.200030792E0,-4.828958130E0,-1.805859695E1,-2.399061127E0,1.884641225E1
1.209951792E0,-1.663341064E0,-1.829854797E1,-1.641636200E0,1.844718219E1
1.219872792E0,2.133363647E0,-1.550490738E1,2.226320343E0,1.580853869E1
1.229794792E0,7.407645721E0,-1.322125626E1,2.563269653E0,1.537026947E1
1.239715792E0,6.995103607E0,-9.944570160E0,-2.451901245E-1,1.216084160E1
1.249636792E0,1.502126312E0,-7.049739990E0,3.890409851E-1,7.218488088E0
1.259557792E0,6.779402161E-1,-7.884404297E0,1.171014862E0,7.999669359E0
1.269478792E0,1.138382721E0,-9.495653687E0,1.597178650E0,9.696098896E0
1.279399792E0,1.022074585E0,-1.063014450E1,2.658471680E0,1.100509338E1
1.289320792E0,1.437909851E0,-1.036863831E1,3.758683777E0,1.112222769E1
1.299241792E0,1.912123718E0,-9.666448517E0,4.367767181E0,1.077839664E1
1.309163792E0,2.617756348E0,-9.468859406E0,4.590503998E0,1.084364670E1
1.319084792E0,3.056194611E0,-9.662406921E0,4.106859741E0,1.093474874E1
1.329005792E0,2.565814362E0,-1.006312363E1,2.957250366E0,1.079792527E1
1.338926792E0,1.837728424E0,-1.056547897E1,1.951342163E0,1.090019853E1
1.348847792E0,1.067280579E0,-1.091245743E1,1.246907043E0,1.103519787E1
1.358768792E0,2.993774414E-1,-1.054063065E1,1.233435059E0,1.061677368E1
1.368689792E0,2.543211365E-1,-9.275162201E0,1.341360626E0,9.375103275E0
1.378610792E0,2.345622253E-1,-8.190667419E0,1.710792389E0,8.370714594E0
1.388532792E0,1.501377869E-1,-7.685168610E0,2.364782410E0,8.042173447E0
1.398453792E0,-7.589218140E-2,-7.543712769E0,2.666405182E0,8.001442279E0
1.408374792E0,-4.312532043E-1,-7.714208221E0,2.570454712E0,8.142617837E0
1.418295792E0,-6.047424316E-1,-7.795788574E0,2.218386841E0,8.127808627E0
1.428216792E0,-1.238823853E0,-7.749834137E0,2.145488434E0,8.136199009E0
1.438137792E0,-2.412832489E0,-7.656877441E0,2.556982727E0,8.425419481E0
1.448058792E0,-1.798210602E0,-7.543563080E0,2.760409698E0,8.231571357E0
1.457979792E0,-1.809886322E0,-7.874225464E0,2.771187286E0,8.541580306E0
1.467900792E0,-2.968776398E0,-8.139922943E0,2.693947906E0,9.073551352E0
1.477822792E0,-3.723057861E0,-8.256979523E0,2.599344635E0,9.423134468E0
1.487743792E0,-3.190166016E0,-8.426427155E0,1.492845612E0,9.132930626E0
1.497664792E0,-2.899470520E0,-8.877289581E0,6.330335999E-1,9.360231362E0
1.507585792E0,-2.954555969E0,-9.503287811E0,5.688171387E-1,9.968221162E0
1.517506792E0,-2.944227448E0,-9.769434357E0,1.333127747E0,1.029016776E1
1.527427792E0,-3.052153015E0,-9.666448517E0,1.828298035E0,1.030041449E1
1.537348792E0,-3.353925476E0,-9.369915161E0,2.128274231E0,1.017711538E1
1.547269792E0,-3.464695129E0,-9.269174652E0,2.427801361E0,1.018901028E1
1.557191792E0,-3.150648193E0,-9.196126556E0,2.496059418E0,1.003621643E1
1.567112792E0,-2.758912811E0,-8.814719696E0,2.512974243E0,9.572143060E0
1.577033792E0,-2.315235443E0,-8.382119293E0,2.708318024E0,9.107975929E0
1.586954792E0,-1.876198425E0,-8.029452667E0,2.994223480E0,8.772548371E0
1.596875792E0,-1.482966156E0,-7.834408264E0,3.369193726E0,8.656131228E0
1.606796792E0,-1.043031006E0,-7.897876282E0,3.737577667E0,8.799650576E0
1.616717167E0,-6.553372192E-1,-8.012388153E0,4.123475189E0,9.034980820E0
1.626638167E0,-4.586462402E-1,-8.092172241E0,4.499642944E0,9.270404230E0
1.636559167E0,-4.411326599E-1,-8.140222321E0,4.834047546E0,9.477649135E0
1.646481167E0,-5.294490051E-1,-8.017627258E0,4.776866455E0,9.347786702E0
1.656402167E0,-6.538403320E-1,-7.683522034E0,4.372706909E0,8.864794625E0
1.666323167E0,-5.162763977E-1,-7.206613770E0,3.645369415E0,8.092622660E0
1.676244167E0,-2.591111755E-1,-6.764283600E0,3.015329590E0,7.410457729E0
1.686165167E0,-2.082170105E-1,-7.105723572E0,2.539918213E0,7.548897027E0
1.696086167E0,-4.821473694E-1,-8.161328430E0,2.612816620E0,8.582922493E0
1.706007167E0,-8.125103760E-1,-9.331744537E0,3.538491669E0,1.001311902E1
1.715928167E0,-1.010997620E0,-9.945468292E0,4.781806183E0,1.108152183E1
1.725850167E0,-8.955876160E-1,-9.872420197E0,5.738766174E0,1.145426536E1
1.735771167E0,-9.851014709E-1,-9.462871857E0,6.121969299E0,1.131348208E1
1.745692167E0,-1.694775696E0,-8.549920349E0,5.977369995E0,1.056893347E1
1.755613167E0,-2.919079742E0,-7.608827362E0,5.479654999E0,9.820483658E0
1.765534167E0,-3.953578491E0,-7.007228394E0,4.413721619E0,9.176762565E0
1.775455167E0,-4.086352386E0,-6.905140686E0,3.217559052E0,8.644763153E0
1.785376167E0,-3.307372284E0,-7.373666382E0,2.233206024E0,8.384323257E0
1.795297167E0,-2.086810455E0,-8.576714630E0,7.890092468E-1,8.862129954E0
1.805218167E0,-6.867718506E-1,-1.026954437E1,6.511459351E-2,1.029268853E1
1.815140167E0,8.143066406E-1,-1.165596130E1,7.014413452E-1,1.170540684E1
1.825061167E0,1.798210602E0,-1.269599854E1,1.669178925E0,1.293089705E1
1.834982167E0,2.569257202E0,-1.393676834E1,2.055824890E0,1.431995148E1
1.844903167E0,3.697760468E0,-1.591131226E1,2.102078705E0,1.647003415E1
1.854824167E0,4.407734070E0,-1.886137756E1,1.881886597E0,1.946076002E1
1.864745167E0,4.548441467E0,-2.235181915E1,1.824555817E0,2.288276957E1
1.874666167E0,3.199596405E0,-2.412323547E1,1.075214081E0,2.435824280E1
1.884587167E0,-3.097059631E-1,-2.173465256E1,-4.450245667E-1,2.174141409E1
1.894508167E0,-3.210823059E0,-1.720477249E1,-1.229393463E0,1.754494199E1
1.904430167E0,-7.314389648E0,-1.402673126E1,-1.700912933E0,1.591045539E1
1.914351167E0,-1.016431320E1,-1.221010895E1,-2.984194336E0,1.616494476E1
1.924272167E0,-1.034843033E1,-1.062460602E1,-2.668201447E0,1.506955747E1
1.934193167E0,-1.194830338E1,-9.065897369E0,-1.647174683E0,1.508859281E1
1.944114167E0,-9.902807007E0,-8.110583954E0,-1.865869904E0,1.293555678E1
1.954035167E0,-6.661297760E0,-6.886429596E0,-1.528621216E0,9.702189611E0
1.963956167E0,-4.018543396E0,-5.685626678E0,-7.662565613E-1,7.004440796E0
1.973877167E0,-3.981719971E0,-4.401896210E0,1.203197937E0,6.056275212E0
1.983798167E0,-4.427193604E0,-3.836970978E0,3.154989166E0,6.654047349E0
1.993720167E0,-2.318827972E0,-4.227359161E0,4.026476898E0,6.281723080E0
2.003641167E0,8.690927124E-1,-5.430257721E0,4.237987061E0,6.942878033E0
2.013562167E0,1.664688263E0,-6.206393738E0,4.142186279E0,7.645143387E0
2.023483167E0,1.088536377E0,-6.441854095E0,3.260220337E0,7.301467817E0
2.033404167E0,8.292755127E-1,-6.572831726E0,1.876198425E0,6.885487296E0
2.043325167E0,6.138734436E-1,-6.785090332E0,6.884184265E-1,6.847496721E0
2.053246167E0,8.150550842E-1,-6.883435822E0,2.621049500E-1,6.936476231E0
2.063167167E0,1.168470154E0,-6.828350372E0,3.878434753E-1,6.938451835E0
2.073089167E0,1.266366577E0,-6.882986755E0,9.460327148E-1,7.062164603E0
2.083010167E0,1.167572021E0,-6.970255280E0,1.618584137E0,7.250344660E0
2.092931167E0,8.279283142E-1,-6.979086914E0,1.706900482E0,7.232332176E0
2.102852167E0,3.936813354E-1,-6.972201233E0,1.127754822E0,7.073783002E0
2.112773167E0,1.574725342E-1,-7.065307617E0,5.381309509E-1,7.087521023E0
2.122694167E0,-5.822891235E-2,-7.129374390E0,3.143463135E-1,7.136538615E0
2.132615167E0,-4.875361633E-1,-7.215146027E0,6.328839111E-1,7.259240025E0
2.142536167E0,-1.011746063E0,-7.224277039E0,1.363514557E0,7.421117219E0
2.152457167E0,-1.796264648E0,-7.074588318E0,2.102078705E0,7.595729158E0
2.162379167E0,-2.792892151E0,-6.881489868E0,2.531086578E0,7.846116787E0
2.172300167E0,-4.074077911E0,-6.883884888E0,2.628983002E0,8.420067316E0
2.182221167E0,-5.565875702E0,-7.185058594E0,3.013084259E0,9.575109194E0
2.192142167E0,-7.691006470E0,-7.663912811E0,3.474424896E0,1.139994598E1
2.202063167E0,-1.013721954E1,-8.330925751E0,4.001329193E0,1.371780519E1
2.211984167E0,-1.206850342E1,-8.733289032E0,4.657564545E0,1.560807546E1
2.221905167E0,-1.225172241E1,-8.659941559E0,5.642815704E0,1.602936864E1
2.231826167E0,-1.186642365E1,-9.299561462E0,6.669680328E0,1.648570560E1
2.241747167E0,-1.173439819E1,-1.074151291E1,6.549629974E0,1.720389065E1
2.251668167E0,-8.938661957E0,-1.103190903E1,5.497318268E0,1.522574144E1
2.261590167E0,-5.185965729E0,-1.051787796E1,4.442761230E0,1.254026015E1
2.271511167E0,-3.938759308E0,-9.706116028E0,4.544399872E0,1.141814711E1
2.281432167E0,-3.671714630E0,-8.895401917E0,4.944667511E0,1.081939926E1
2.291353167E0,-4.257745972E0,-8.416248322E0,3.228636017E0,9.969239043E0
2.301274167E0,-4.896916809E0,-9.692045288E0,-1.157093811E-1,1.085950850E1
2.311195167E0,-5.351072388E0,-1.451142334E1,-2.007924500E0,1.559638240E1
2.321116167E0,-4.769232330E0,-2.119038437E1,-3.293002167E0,2.196865563E1
2.331037167E0,-2.828069000E0,-2.623190048E1,-2.927162933E0,2.654578799E1
2.340959167E0,-4.632865906E-1,-2.371263931E1,-2.197879486E0,2.381878611E1
2.350880167E0,1.348845062E0,-1.375175308E1,-1.220861206E0,1.387157518E1
2.360801167E0,2.546055450E0,-6.535559235E0,1.362167358E-1,7.015303833E0
2.370722167E0,3.293151855E0,-4.886737976E0,2.018851776E0,6.229030397E0
2.380643167E0,2.464774475E0,-6.827152863E0,3.209475861E0,7.936363444E0
2.390564167E0,3.179388428E-1,-1.049437683E1,2.690505066E0,1.083844305E1
2.400485167E0,-6.779402161E-1,-1.347467926E1,2.853067017E0,1.379008976E1
2.410406167E0,-4.302053833E-1,-1.433598816E1,2.414029999E0,1.454418007E1
2.420327167E0,1.865121460E-1,-1.327798828E1,9.123527527E-1,1.331060281E1
2.430248167E0,1.117875366E0,-1.182989960E1,1.583706665E-1,1.188365479E1
2.440170167E0,2.251617737E0,-1.109956833E1,3.537144470E-1,1.133116558E1
2.450091167E0,2.703378296E0,-1.077025314E1,8.431965637E-1,1.113631840E1
2.460012167E0,1.957928467E0,-1.047596512E1,1.697619781E0,1.079172099E1
2.469933167E0,1.685644684E0,-9.542356567E0,1.962269440E0,9.886782501E0
2.479854167E0,1.205443268E0,-8.612939301E0,1.705553284E0,8.862546410E0
2.489775167E0,5.836363220E-1,-7.921826477E0,2.582729187E0,8.352631690E0
2.499696167E0,7.319778442E-2,-7.276967468E0,2.996768188E0,7.870211752E0
2.509617167E0,-1.691482544E-1,-6.963369598E0,3.682641907E0,7.879021431E0
2.519538167E0,-1.128652954E-1,-6.994654541E0,3.813170471E0,7.967320739E0
2.529460167E0,-3.138972473E-1,-7.184310150E0,3.097359009E0,7.829845250E0
2.539381167E0,-6.411167908E-1,-7.297325134E0,2.096689911E0,7.619586172E0
2.549302167E0,-1.008153534E0,-7.410938873E0,1.263971558E0,7.585249675E0
2.559223167E0,-1.508263550E0,-7.361990662E0,1.377884674E0,7.640178768E0
2.569144167E0,-1.640139313E0,-7.081473999E0,2.214345245E0,7.598727251E0
2.579065167E0,-1.584155731E0,-6.869365082E0,2.390229492E0,7.443851358E0
2.588986167E0,-1.624421997E0,-6.768175507E0,1.791624298E0,7.187270980E0
2.598907167E0,-1.659449158E0,-6.859934692E0,7.047344971E-1,7.092892654E0
2.608828167E0,-1.367855530E0,-7.297474823E0,-1.761836243E-1,7.426655251E0
2.618750667E0,-1.285227356E0,-7.852370911E0,-3.195854187E-1,7.963270253E0
2.628671667E0,-1.724863129E0,-8.201894073E0,5.053491211E-1,8.396522908E0
2.638592667E0,-2.032024384E0,-8.538993073E0,1.127455444E0,8.849558270E0
2.648513667E0,-2.194286957E0,-8.967551880E0,1.533860321E0,9.358664940E0
2.658434667E0,-2.294877777E0,-9.193132782E0,1.889520721E0,9.661803295E0
2.668355667E0,-2.190993805E0,-9.348210297E0,2.118394775E0,9.832450662E0
2.678276667E0,-2.132764893E0,-9.503287811E0,2.350861359E0,1.001936697E1
2.688197667E0,-1.964963837E0,-9.532626801E0,2.474504242E0,1.004267035E1
2.698118667E0,-1.795516205E0,-9.764644318E0,2.538571014E0,1.024775585E1
2.708039667E0,-1.937271423E0,-9.389674072E0,2.864892426E0,1.000632842E1
2.717961667E0,-1.700613556E0,-9.079519043E0,3.256927185E0,9.794760191E0
2.727882667E0,-1.259181519E0,-9.022637329E0,3.803740082E0,9.872282466E0
2.737803667E0,-1.079255676E0,-8.885522461E0,4.154760132E0,9.868096776E0
2.747724667E0,-1.242566071E0,-8.644074554E0,4.236789551E0,9.706409276E0
2.757645667E0,-1.485660553E0,-8.350385284E0,4.109853516E0,9.424808624E0
2.767566667E0,-1.385069733E0,-7.975415039E0,3.494183807E0,8.816744506E0
2.777487667E0,-9.900411987E-1,-7.729177094E0,2.673739929E0,8.238279270E0
2.787408667E0,-8.041278076E-1,-7.810607758E0,2.168390808E0,8.145804673E0
2.797329667E0,-9.154962158E-1,-8.621022491E0,2.163750458E0,8.935433854E0
2.807251667E0,-1.183289337E0,-9.814041595E0,2.897674255E0,1.030107287E1
2.817172667E0,-1.303938446E0,-1.080123871E1,4.085454254E0,1.162144352E1
2.827093667E0,-1.594783630E0,-1.073118439E1,5.251828766E0,1.205335466E1
2.837014667E0,-1.566342773E0,-9.774673462E0,5.915997620E0,1.153241947E1
2.846935667E0,-1.926194458E0,-8.683742065E0,5.984405365E0,1.072057409E1
2.856856667E0,-3.146157532E0,-7.852520599E0,5.332211609E0,9.999643375E0
2.866777667E0,-4.368665314E0,-7.300318909E0,4.328997803E0,9.545685663E0
2.876698667E0,-4.788991241E0,-7.254214783E0,3.295995941E0,9.296324998E0
2.886619667E0,-4.546046448E0,-7.845634918E0,2.475701752E0,9.399448108E0
2.896540667E0,-3.655248871E0,-8.811127167E0,1.169667664E0,9.610667443E0
2.906462667E0,-2.067350922E0,-9.907147980E0,3.667373657E-2,1.012061588E1
2.916383667E0,-3.573069763E-1,-1.104852448E1,4.137396240E-1,1.106204058E1
2.926304667E0,1.669927368E0,-1.223570572E1,1.535057831E0,1.244417753E1
2.936225667E0,3.094963989E0,-1.345581848E1,1.510059814E0,1.388949725E1
2.946146667E0,3.439996490E0,-1.475586502E1,3.704795837E-1,1.515606755E1
2.956067667E0,3.283122711E0,-1.583826416E1,1.865121460E-1,1.617604071E1
2.965988667E0,2.711162109E0,-1.700029770E1,5.137316895E-1,1.722278845E1
2.975909667E0,2.368524628E0,-1.868773865E1,7.691006470E-1,1.885293082E1
2.985830667E0,1.731150055E0,-1.988315277E1,3.281176758E-1,1.996106976E1
2.995751667E0,4.490661621E-3,-1.912842224E1,-5.930667114E-1,1.913761442E1
3.005673667E0,-3.066223755E0,-1.664134415E1,-2.154918823E0,1.705812822E1
3.015594667E0,-6.100114746E0,-1.394664780E1,-3.302731934E0,1.557653437E1
3.025515667E0,-8.029752045E0,-1.199231186E1,-3.314407654E0,1.480803024E1
3.035436667E0,-8.678053894E0,-1.014919464E1,-2.604883118E0,1.360515297E1
3.045357667E0,-8.165968781E0,-8.059091034E0,-1.075064392E0,1.152335706E1
3.055278667E0,-7.401209106E0,-6.308331757E0,-9.550140381E-2,9.725331167E0
3.065199667E0,-6.363267517E0,-5.069807281E0,6.075865173E-1,8.158632284E0
3.075120667E0,-5.810018005E0,-4.178410950E0,1.868414612E0,7.396377522E0
3.085041667E0,-5.446873169E0,-4.029320984E0,2.427052917E0,7.196835469E0
3.094963667E0,-3.386856995E0,-4.349954224E0,2.667453003E0,6.124394466E0
3.104884667E0,-1.948947144E0,-4.944218445E0,2.294728088E0,5.788736304E0
3.114805667E0,-1.121318207E0,-5.631139984E0,1.793270874E0,6.015223393E0
3.124726667E0,-4.761598206E-1,-6.453380127E0,1.299597473E0,6.600136122E0
3.134647667E0,5.448669434E-2,-7.310797119E0,1.185684357E0,7.406522174E0
3.144568667E0,7.557783508E-1,-7.776029663E0,1.266665955E0,7.914687668E0
3.154489667E0,1.517993317E0,-8.074958038E0,1.598974915E0,8.370541906E0
3.164410667E0,2.044298859E0,-8.237519989E0,1.881587219E0,8.693460983E0
3.174331667E0,2.294877777E0,-8.235873413E0,1.716630249E0,8.720257697E0
3.184252667E0,2.041454773E0,-7.961643677E0,1.542542267E0,8.362699580E0
3.194173667E0,1.632355499E0,-7.623197479E0,1.363215179E0,7.914295920E0
3.204095667E0,1.184037781E0,-7.272476807E0,1.206640778E0,7.466381074E0
3.214016667E0,5.385800171E-1,-7.045099640E0,1.305585022E0,7.185266148E0
3.223937667E0,-2.288740540E-1,-7.008276215E0,1.778601379E0,7.234068129E0
3.233858667E0,-1.077609100E0,-6.960226135E0,2.456391907E0,7.459212454E0
3.243779667E0,-2.104623413E0,-6.757996674E0,2.997666321E0,7.686739369E0
3.253700667E0,-3.360212402E0,-6.566694489E0,3.215164032E0,8.046725026E0
3.263621667E0,-4.789589996E0,-6.547085266E0,3.219654694E0,8.727581232E0
3.273542667E0,-6.313121796E0,-6.734046478E0,3.120261383E0,9.743660497E0
3.283463667E0,-7.845634918E0,-6.992708588E0,2.990481262E0,1.092679911E1
3.293384667E0,-9.158554688E0,-7.302863617E0,3.091970215E0,1.211491728E1
3.303306667E0,-9.962981873E0,-7.513775024E0,4.188140717E0,1.316276360E1
3.313227667E0,-1.002869522E1,-7.622598724E0,5.428760834E0,1.371678473E1
3.323148667E0,-9.679770813E0,-8.367300110E0,6.577472076E0,1.438654973E1
3.333069667E0,-9.529183960E0,-9.900411987E0,7.154222717E0,1.549214017E1
3.342990667E0,-8.942703552E0,-1.087757996E1,6.755901031E0,1.561844715E1
3.352911667E0,-7.741301880E0,-1.050889664E1,6.235732727E0,1.446544247E1
3.362832667E0,-6.026767273E0,-9.439221039E0,5.750142517E0,1.258908085E1
3.372753667E0,-5.119503937E0,-8.288713531E0,5.431604919E0,1.115412142E1
3.382674667E0,-5.284311218E0,-7.233408051E0,4.646487579E0,1.009138166E1
3.392595667E0,-4.895120544E0,-7.531138916E0,1.514700165E0,9.109038100E0
3.402517667E0,-3.928131409E0,-1.000444565E1,-1.687141571E0,1.087959539E1
3.412438667E0,-4.756209412E0,-1.592762833E1,-4.129762115E0,1.712792478E1
3.422359667E0,-6.009403381E0,-2.375814468E1,-5.105133820E0,2.503247409E1
3.432280667E0,-4.563110962E0,-2.943000000E1,-3.679947510E0,3.000814715E1
3.442201667E0,-1.991009674E0,-2.556713287E1,-2.790048065E0,2.579586733E1
3.452122667E0,1.748364258E0,-1.236129456E1,-2.365530853E0,1.270645965E1
3.462043667E0,4.561314697E0,-5.368436279E0,-5.837860107E-2,7.044792965E0
3.471964667E0,4.355941772E0,-5.727689209E0,2.320923615E0,7.560908598E0
3.481885667E0,1.833237762E0,-9.992021484E0,2.834505615E0,1.054683252E1
3.491806667E0,-4.071533203E-2,-1.381626892E1,2.737806702E0,1.408497533E1
3.501728667E0,-8.975335693E-1,-1.435709427E1,2.498304749E0,1.460045372E1
3.511649667E0,-8.888516235E-1,-1.294283524E1,8.237370300E-1,1.299944552E1
3.521570667E0,3.487747192E-2,-1.167736679E1,1.850751343E0,1.182317183E1
3.531491667E0,2.998265076E0,-1.058074722E1,3.761228485E0,1.162276409E1
3.541412667E0,3.640279999E0,-1.023721161E1,3.551364899E0,1.143085004E1
3.551333667E0,2.617307281E0,-1.019395157E1,3.040327606E0,1.095493213E1
3.561254667E0,1.106499023E0,-1.013751892E1,1.564696198E0,1.031706858E1
3.571175667E0,-5.108876038E-1,-1.023182281E1,6.553372192E-1,1.026550881E1
3.581096667E0,-1.557810516E0,-9.604926453E0,8.499325562E-1,9.767485404E0
3.591017667E0,-1.313967590E0,-8.478069763E0,1.161734161E0,8.657586500E0
3.600939667E0,-5.354365540E-1,-7.453001404E0,9.412426758E-1,7.531258859E0
3.610860667E0,4.236190796E-2,-6.951095123E0,6.143225098E-1,6.978317139E0
3.620781792E0,4.882846069E-1,-6.481521606E0,1.472637634E0,6.664623455E0
3.630702792E0,1.041534119E0,-6.544839935E0,2.543660431E0,7.098586584E0
3.640623792E0,1.434317322E0,-6.716083832E0,2.214195557E0,7.215657294E0
3.650544792E0,1.343456268E0,-6.606960754E0,1.790426788E0,6.975846417E0
3.660465792E0,6.414161682E-1,-6.342161407E0,1.582509155E0,6.568010448E0
3.670386792E0,-2.341131592E-1,-6.228248291E0,1.699565735E0,6.460217445E0
3.680307792E0,-1.081950073E0,-6.308032379E0,1.917362823E0,6.681180184E0
3.690228792E0,-1.455573120E0,-6.541397095E0,1.851499786E0,6.952454280E0
3.700149792E0,-1.859882355E0,-6.778653717E0,1.480870514E0,7.183473120E0
3.710071792E0,-2.621348877E0,-7.072792053E0,1.207239532E0,7.638932167E0
3.719992792E0,-2.791395264E0,-7.426955566E0,9.900411987E-1,7.995732492E0
3.729913792E0,-2.999462585E0,-7.963439941E0,9.857002258E-1,8.566490322E0
3.739834792E0,-3.470832367E0,-8.491841125E0,1.494342499E0,9.294681411E0
3.749755792E0,-4.112847290E0,-8.768615570E0,1.891316986E0,9.868191921E0
3.759676792E0,-4.501289520E0,-9.053772583E0,1.863325195E0,1.028126384E1
3.769597792E0,-4.712799683E0,-9.522298279E0,1.843266907E0,1.078342609E1
3.779518792E0,-4.787943420E0,-9.792187042E0,2.046544189E0,1.109052174E1
3.789439792E0,-4.623585205E0,-9.872569885E0,2.422861633E0,1.116760649E1
3.799360792E0,-4.098028107E0,-9.911938019E0,2.847678223E0,1.109727989E1
3.809281792E0,-3.434308319E0,-9.768386536E0,3.326682129E0,1.087578333E1
3.819203792E0,-2.715952148E0,-9.552834778E0,3.873045959E0,1.065990307E1
3.829124792E0,-2.075583801E0,-9.116192780E0,4.274211731E0,1.028017047E1
3.839045792E0,-1.644480286E0,-8.585845642E0,4.307292938E0,9.745451927E0
3.848966792E0,-1.529968414E0,-8.055498505E0,4.020189972E0,9.132019871E0
3.858887792E0,-1.403032379E0,-7.568710785E0,3.544329529E0,8.474441257E0
3.868808792E0,-1.062789917E0,-7.283254395E0,3.191064148E0,8.022356722E0
3.878729792E0,-6.083349609E-1,-7.938441925E0,3.232827301E0,8.593026474E0
3.888650792E0,-7.005432129E-1,-9.454788666E0,3.311264191E0,1.004232344E1
3.898571792E0,-7.493417358E-1,-1.066831512E1,4.107159119E0,1.145614318E1
3.908492792E0,-6.472540283E-1,-1.097936829E1,5.085674286E0,1.211732432E1
3.918413792E0,-7.792794800E-1,-1.049901718E1,5.455106049E0,1.185726867E1
3.928335792E0,-1.166524200E0,-9.819879456E0,5.428012390E0,1.128069722E1
3.938256792E0,-1.907183990E0,-8.940308533E0,5.288053436E0,1.056077538E1
3.948177792E0,-3.234324188E0,-7.762707367E0,5.108726349E0,9.839693264E0
3.958098792E0,-4.443509674E0,-6.659501495E0,4.893024902E0,9.382719813E0
3.968019792E0,-4.839286652E0,-5.871240692E0,4.145479431E0,8.664592447E0
3.977940792E0,-4.834047546E0,-5.611530762E0,2.931952972E0,7.965779397E0
3.987861792E0,-4.532275085E0,-6.035449219E0,1.529519348E0,7.701142393E0
3.997782792E0,-3.981719971E0,-7.580386505E0,-6.035449219E-1,8.583741606E0
4.007703792E0,-2.625091095E0,-9.923164673E0,-1.114582214E0,1.032485321E1
4.017624792E0,-4.698728943E-1,-1.210682373E1,5.837860107E-3,1.211593973E1
4.027546792E0,1.646575928E0,-1.472817261E1,4.486170959E-1,1.482671703E1
4.037467792E0,2.998863831E0,-1.772119858E1,6.027964783E-1,1.798325407E1
4.047388792E0,3.060984650E0,-2.030093399E1,9.030720520E-1,2.055025759E1
4.057309792E0,2.452949066E0,-2.287737625E1,1.040935364E0,2.303203963E1
4.067230792E0,2.481689301E0,-2.480252289E1,-3.203338623E-2,2.492639062E1
4.077151792E0,1.448986816E0,-2.395423691E1,-1.709145813E0,2.405880729E1
4.087072792E0,-2.498155060E0,-1.793375656E1,-4.018244019E0,1.854741729E1
4.096993792E0,-6.502627716E0,-1.215846634E1,-4.827610931E0,1.460884315E1
4.106914792E0,-8.854087830E0,-9.797126770E0,-4.481081543E0,1.394484335E1
4.116835792E0,-1.037492523E1,-8.987759857E0,-3.434607697E0,1.414975020E1
4.126756792E0,-1.049587372E1,-8.461903381E0,-1.870210876E0,1.361120357E1
4.136678792E0,-8.869056702E0,-7.728578339E0,-1.740879822E-1,1.176526228E1
4.146599792E0,-6.889573059E0,-6.530469818E0,1.056652679E0,9.551427530E0
4.156520792E0,-5.516927490E0,-5.407804413E0,1.813478851E0,7.935335093E0
4.166441792E0,-4.189338226E0,-4.812791748E0,2.023641815E0,6.693926007E0
4.176362792E0,-2.778671722E0,-4.702770538E0,2.519410858E0,6.015355214E0
4.186283792E0,-1.252595215E0,-5.142106934E0,3.165766754E0,6.167036373E0
4.196204792E0,1.329235840E-1,-5.900130615E0,3.500620422E0,6.861745645E0
4.206125792E0,1.159937897E0,-6.619085541E0,3.086880798E0,7.395037686E0
4.216046792E0,1.877096558E0,-7.276518402E0,1.848356323E0,7.738710011E0
4.225967792E0,2.279310150E0,-7.852221222E0,5.463638306E-1,8.194580301E0
4.235888792E0,2.057321777E0,-7.869136047E0,-5.438191223E-1,8.151785956E0
4.245809792E0,1.536255341E0,-7.488178253E0,-1.294058990E0,7.752901566E0
4.255731792E0,1.416953430E0,-6.999893646E0,-1.043929138E0,7.217759772E0
4.265652792E0,1.584305420E0,-6.804699554E0,-3.832031250E-2,6.986803857E0
4.275573792E0,9.792636108E-1,-6.825356598E0,9.394464111E-1,6.958951751E0
4.285494792E0,8.666976929E-2,-6.830595703E0,1.299896851E0,6.953724263E0
4.295415792E0,-1.121168518E-1,-6.931785278E0,1.211879883E0,7.037817146E0
4.305336792E0,-2.026785278E-1,-7.152875519E0,1.007554779E0,7.226331947E0
4.315257792E0,-3.594026184E-1,-7.454947357E0,8.854087830E-1,7.515940331E0
4.325178792E0,-6.604266357E-1,-7.655081177E0,9.993218994E-1,7.748230470E0
4.335099792E0,-1.238524475E0,-7.556885376E0,1.496138763E0,7.802492593E0
4.345020792E0,-2.187850342E0,-7.264992371E0,2.012864227E0,7.849740484E0
4.354941792E0,-3.289110260E0,-6.853947144E0,2.342628479E0,7.955045313E0
4.364863792E0,-4.442312164E0,-6.720275116E0,2.030826874E0,8.307857292E0
4.374784792E0,-5.748945007E0,-6.938670959E0,1.472188568E0,9.130326531E0
4.384705792E0,-7.200925598E0,-7.163054352E0,1.138382721E0,1.022049863E1
4.394626792E0,-8.403674469E0,-7.297474823E0,1.781445465E0,1.127157626E1
4.404547792E0,-8.894354095E0,-7.094347229E0,3.915856934E0,1.203217490E1
4.414468792E0,-9.519005127E0,-6.900051270E0,5.536536713E0,1.299520700E1
4.424389792E0,-1.087308929E1,-7.833659821E0,6.586453400E0,1.493223578E1
4.434310792E0,-1.225381805E1,-1.041264679E1,7.074288940E0,1.756772137E1
4.444231792E0,-1.175640244E1,-1.229273712E1,6.878795471E0,1.834781217E1
4.454152792E0,-8.456813965E0,-1.179517181E1,6.442752228E0,1.587932104E1
4.464073792E0,-5.024900665E0,-9.444759521E0,6.148763580E0,1.233938421E1
4.473995792E0,-4.481829987E0,-7.463329926E0,6.172713776E0,1.067194870E1
4.483916792E0,-5.333109741E0,-6.033652954E0,6.302793274E0,1.022605645E1
4.493837792E0,-6.702462158E0,-5.899382172E0,4.521796875E0,1.000861409E1
4.503758792E0,-7.009922791E0,-7.872429199E0,4.592449951E-1,1.055106938E1
4.513679792E0,-7.658524017E0,-1.255738678E1,-2.327809296E0,1.489159659E1
4.523600792E0,-8.198750610E0,-2.043804886E1,-4.812642059E0,2.254095997E1
4.533521792E0,-7.140451355E0,-2.834056549E1,-6.143075409E0,2.986488027E1
4.543442792E0,-4.042044525E0,-3.132610703E1,-6.692582703E0,3.228705265E1
4.553363792E0,5.745053101E-1,-2.293006668E1,-4.849166107E0,2.344424079E1
4.563284792E0,1.802701263E0,-9.458381195E0,-1.462758179E0,9.739115369E0
4.573205792E0,1.082099762E0,-4.053869934E0,3.770658875E0,5.641158541E0
4.583126792E0,1.468146973E0,-4.109554138E0,7.004234619E0,8.252465895E0
4.593048792E0,1.638642426E0,-6.063441010E0,6.519692230E0,9.053002411E0
4.602969792E0,7.897576904E-1,-7.851921844E0,4.751868439E0,9.211766797E0
4.612890792E0,-3.146456909E-1,-8.906029816E0,2.470163269E0,9.247598367E0
4.622811542E0,6.542893982E-1,-9.801318054E0,2.309547272E0,1.009098305E1
4.632732542E0,2.491568756E0,-1.119027969E1,2.567760315E0,1.174834744E1
4.642653542E0,2.769241333E0,-1.221549774E1,2.206411743E0,1.271830710E1
4.652574542E0,2.335443420E0,-1.222747284E1,2.148931274E0,1.263262814E1
4.662495542E0,1.078058167E0,-1.184412003E1,8.553213501E-1,1.192379819E1
4.672416542E0,-7.194039917E-1,-1.135598511E1,-5.248086548E-1,1.139084562E1
4.682337542E0,-2.629881134E0,-1.065244812E1,-6.020480347E-1,1.098878463E1
4.692258542E0,-2.994073792E0,-9.345216522E0,6.638694763E-1,9.835561621E0
4.702180542E0,-1.466500397E0,-7.995323639E0,1.403182068E0,8.248923773E0
4.712101542E0,-8.318202209E-1,-7.104226685E0,1.730700989E0,7.359163511E0
4.722022542E0,-4.345463562E-1,-6.486012268E0,1.322499847E0,6.633716268E0
4.731943542E0,5.553451538E-2,-6.520141296E0,1.527872772E0,6.696993491E0
4.741864542E0,5.758525085E-1,-6.936575317E0,1.334175568E0,7.087150887E0
4.751785542E0,1.053060150E0,-7.325316925E0,9.648934937E-1,7.463258215E0
4.761706542E0,6.917115784E-1,-7.488028564E0,1.850152588E0,7.744165629E0
4.771627542E0,-3.598516846E-1,-7.474855957E0,2.684667206E0,7.950497017E0
4.781548542E0,-1.273551636E0,-7.028783569E0,2.545307007E0,7.583160291E0
4.791469542E0,-1.872456207E0,-6.840624847E0,2.192490692E0,7.423426162E0
4.801390542E0,-2.271376648E0,-6.910230103E0,1.573078766E0,7.442110504E0
4.811311542E0,-2.280956726E0,-7.134613495E0,1.150208130E0,7.578156243E0
4.821233542E0,-2.364333344E0,-7.728877716E0,7.550299072E-1,8.117616218E0
4.831154542E0,-2.223027191E0,-8.322992249E0,6.090834045E-1,8.636262644E0
4.841075542E0,-2.477048950E0,-8.705147552E0,9.750723267E-1,9.103083623E0
4.850996542E0,-2.940634918E0,-8.697663116E0,1.245859222E0,9.265465051E0
4.860917542E0,-3.602708130E0,-8.408913574E0,1.208886108E0,9.227715806E0
4.870838542E0,-3.913461914E0,-8.295000458E0,1.426832886E0,9.282137083E0
4.880759542E0,-4.015250244E0,-8.340056763E0,1.770967255E0,9.424176693E0
4.890680542E0,-3.966302032E0,-8.508905640E0,2.271226959E0,9.658752450E0
4.900601542E0,-3.802991638E0,-8.758736115E0,2.925666046E0,9.986877667E0
4.910522542E0,-3.464395752E0,-8.941506042E0,3.494183807E0,1.020597319E1
4.920443542E0,-3.020419006E0,-9.110205231E0,3.857029266E0,1.034386026E1
4.930365542E0,-2.882555695E0,-9.009764099E0,3.982019348E0,1.026359852E1
4.940286542E0,-2.753524017E0,-8.510552216E0,4.031566315E0,9.811468824E0
4.950207542E0,-2.683320007E0,-7.674540710E0,3.909420319E0,9.021216581E0
4.960128542E0,-2.310146027E0,-6.921756134E0,3.511248322E0,8.097922414E0
4.970049542E0,-1.360371094E0,-7.035519562E0,2.984643402E0,7.762553784E0
4.979970542E0,-6.321354675E-1,-8.344397736E0,2.481389923E0,8.728451453E0
4.989891542E0,-4.611909485E-1,-9.968819733E0,2.719544678E0,1.034340308E1
4.999812542E0,-9.360035706E-1,-1.049946625E1,4.220623169E0,1.135467103E1
5.009733542E0,-1.424437866E0,-1.050665131E1,6.052513733E0,1.220867181E1
5.019654542E0,-1.650767212E0,-1.009785141E1,7.292235718E0,1.256456674E1
5.029575542E0,-2.277513885E0,-8.812474365E0,7.381150818E0,1.171870988E1
5.039496542E0,-4.212390289E0,-7.713010712E0,6.142027588E0,1.072190604E1
5.049417542E0,-6.528374176E0,-7.335795135E0,3.896846466E0,1.056498803E1
5.059339542E0,-8.120313721E0,-7.973618774E0,8.857081604E-1,1.141501512E1
5.069260542E0,-7.930358734E0,-9.243278503E0,-1.434317322E0,1.226319915E1
5.079181542E0,-4.901856537E0,-1.057730438E1,-2.103725281E0,1.184623255E1
5.089102542E0,-1.240320740E0,-1.243733643E1,-1.572480011E0,1.259755636E1
5.099023542E0,1.301992493E0,-1.397284332E1,1.198407898E0,1.408444946E1
5.108944542E0,2.461032257E0,-1.449570602E1,2.348017273E0,1.488943780E1
5.118865542E0,2.401156769E0,-1.508218643E1,1.565145264E0,1.535211976E1
5.128786542E0,1.480122070E0,-1.641845764E1,7.003935242E-1,1.649991102E1
5.138707542E0,8.286767578E-1,-1.818014420E1,-2.395019531E-2,1.819903629E1
5.148628542E0,5.692662048E-1,-1.923065964E1,-1.263821869E0,1.928054926E1
5.158549542E0,6.126759338E-1,-1.839285187E1,-2.378104706E0,1.855607053E1
5.168470542E0,6.960525513E-2,-1.625245285E1,-3.074306946E0,1.654081110E1
5.178392542E0,-1.035696259E0,-1.406235718E1,-2.995420990E0,1.441509983E1
5.188313542E0,-2.507735138E0,-1.244197678E1,-2.147434387E0,1.287256758E1
5.198234542E0,-4.500391388E0,-1.110750183E1,-1.697470093E0,1.210419449E1
5.208155542E0,-5.666466522E0,-1.017958145E1,-1.587748260E0,1.175813191E1
5.218076542E0,-6.363117828E0,-9.201215973E0,-1.334175568E0,1.126639553E1
5.227997542E0,-6.402635651E0,-8.201145630E0,-7.426057434E-1,1.043091541E1
5.237918542E0,-5.138963470E0,-7.438331909E0,-1.401086426E-1,9.041977526E0
5.247839542E0,-3.782633972E0,-6.692133636E0,6.005511475E-1,7.710618267E0
5.257760542E0,-3.493435364E0,-5.998176727E0,7.798782349E-1,6.985014299E0
5.267681542E0,-3.489992523E0,-5.634582825E0,6.960525513E-1,6.664312461E0
5.277602542E0,-3.131637726E0,-5.531596985E0,1.017583923E0,6.437483755E0
5.287523542E0,-2.339335327E0,-5.592520294E0,1.095721436E0,6.160306687E0
5.297445542E0,-1.579515381E0,-5.736820221E0,9.773176575E-1,6.030018648E0
5.307366542E0,-1.247056732E0,-5.920488281E0,1.005608826E0,6.133398821E0
5.317287542E0,-9.560618591E-1,-6.204896851E0,1.300944672E0,6.411494073E0
5.327208542E0,-8.897497559E-1,-6.621779938E0,1.077010345E0,6.767538360E0
5.337129542E0,-7.734416199E-1,-7.009773102E0,3.150947571E-1,7.059349516E0
5.347050542E0,-1.796264648E-1,-7.213948517E0,-1.326242065E-1,7.217403138E0
5.356971542E0,1.507365417E-1,-7.501650238E0,4.839436340E-1,7.518755166E0
5.366892542E0,-1.481918335E-1,-7.664511566E0,1.078058167E0,7.741376349E0
5.376813542E0,-9.669891357E-2,-7.619006195E0,1.172661438E0,7.709328176E0
5.386734542E0,-1.841171265E-2,-7.484286346E0,9.375004578E-1,7.542797108E0
5.396655542E0,2.080673218E-2,-7.330406342E0,6.491999817E-1,7.359127032E0
5.406576542E0,-6.451583862E-2,-7.187303925E0,6.538403320E-1,7.217271450E0
5.416497542E0,-3.376977539E-1,-7.061565399E0,1.062640228E0,7.149052379E0
5.426419542E0,-1.033899994E0,-6.919211426E0,1.760638733E0,7.214172489E0
5.436340542E0,-2.082918549E0,-6.681206360E0,2.568059692E0,7.454662882E0
5.446261542E0,-3.457360382E0,-6.375392303E0,3.047512665E0,7.866784685E0
5.456182542E0,-5.155279541E0,-6.363866272E0,3.019520874E0,8.728872057E0
5.466103542E0,-6.990912323E0,-6.542145538E0,2.694546661E0,9.946512206E0
5.476024542E0,-8.789422302E0,-6.647676086E0,2.650837555E0,1.133457019E1
5.485945542E0,-1.010383896E1,-6.444249115E0,3.753594360E0,1.255808023E1
5.495866542E0,-1.055350388E1,-5.876479797E0,4.961432648E0,1.305853257E1
5.505787542E0,-1.083102676E1,-5.681136017E0,5.774392090E0,1.352516363E1
5.515708542E0,-1.142574005E1,-7.030729523E0,6.687942352E0,1.499023903E1
5.525629542E0,-1.116887421E1,-9.727671204E0,6.647676086E0,1.623462151E1
5.535550542E0,-9.433981934E0,-1.088237000E1,5.605094147E0,1.545454859E1
5.545471542E0,-6.399043121E0,-1.027717850E1,4.633015594E0,1.296275373E1
5.555393542E0,-4.750521240E0,-9.645492096E0,4.654720459E0,1.171620213E1
5.565314542E0,-5.322930908E0,-9.271869049E0,4.719984741E0,1.168671917E1
5.575235542E0,-7.120243378E0,-1.110705276E1,2.685715027E0,1.346393524E1
5.585156542E0,-8.132588196E0,-1.547571808E1,5.381309509E-1,1.749075258E1
5.595077542E0,-9.425150299E0,-2.111823441E1,-1.685794373E0,2.318739281E1
5.604998542E0,-9.969119110E0,-2.655882065E1,-4.231700134E0,2.868207761E1
5.614919542E0,-7.433392181E0,-2.765544022E1,-5.920637970E0,2.924265116E1
5.624840208E0,-5.089416504E-1,-1.864627487E1,-4.963677979E0,1.930234927E1
5.634761208E0,2.975811768E0,-8.183033295E0,-1.921105042E0,8.916733379E0
5.644682208E0,3.246748352E0,-3.832480316E0,1.843416595E0,5.350463997E0
5.654603208E0,3.341501312E0,-3.603157196E0,4.064946899E0,6.377473332E0
5.664524208E0,1.953288116E0,-6.212530975E0,4.750221863E0,8.060737146E0
5.674446208E0,3.406915283E-1,-1.088326813E1,4.252955933E0,1.168970616E1
5.684367208E0,-8.927435303E-1,-1.507081009E1,2.609972534E0,1.532117046E1
5.694288208E0,-1.255588989E0,-1.596639771E1,1.821861420E0,1.611898069E1
5.704209208E0,-4.778063965E-1,-1.419093979E1,1.691482544E0,1.429937706E1
5.714130208E0,1.006357269E0,-1.218301529E1,1.507664795E0,1.231712911E1
5.724051208E0,2.058369598E0,-1.081216599E1,1.546434174E0,1.111446253E1
5.733972208E0,2.293680267E0,-1.000145187E1,1.299447784E0,1.034304468E1
5.743893208E0,1.823358307E0,-9.296118622E0,1.033151550E0,9.529420710E0
5.753814208E0,7.530839539E-1,-8.380921783E0,7.262896729E-1,8.445974312E0
5.763735208E0,2.143542480E-1,-7.558232574E0,1.200503540E0,7.655980417E0
5.773656208E0,-2.442919922E-1,-6.876699829E0,2.618654480E0,7.362474476E0
5.783577208E0,-8.891510010E-2,-6.253994751E0,3.048111420E0,6.957825772E0
5.793498208E0,-8.352630615E-2,-6.123316498E0,2.815345459E0,6.740040922E0
5.803420208E0,-4.176315308E-1,-6.264622650E0,2.435435486E0,6.734334343E0
5.813341208E0,-6.089337158E-1,-6.426286469E0,1.972298584E0,6.749660714E0
5.823262208E0,-4.498146057E-1,-6.831493835E0,1.612446899E0,7.033606913E0
5.833183208E0,-1.021625519E0,-7.469766541E0,1.832489319E0,7.758810990E0
5.843104208E0,-2.001338196E0,-7.890092468E0,1.814227295E0,8.339684311E0
5.853025208E0,-2.567011871E0,-8.101303253E0,1.605411530E0,8.648584308E0
5.862946208E0,-2.885699158E0,-8.052804108E0,1.149459686E0,8.631116451E0
5.872867208E0,-2.929707642E0,-7.746391296E0,4.769082642E-1,8.295613689E0
5.882788208E0,-3.200045471E0,-7.513176270E0,2.275268555E-2,8.166310450E0
5.892709208E0,-3.205583954E0,-7.710166626E0,-2.974314880E-1,8.355291938E0
5.902630208E0,-3.046614532E0,-8.086184692E0,-5.213658142E-1,8.656793015E0
5.912551208E0,-3.009791107E0,-8.544381866E0,-2.915936279E-1,9.063681969E0
5.922472208E0,-3.050656128E0,-9.071884918E0,3.709286499E-1,9.578266380E0
5.932394208E0,-3.520379333E0,-9.399852905E0,1.382225647E0,1.013216922E1
5.942315208E0,-3.495830383E0,-9.512418823E0,2.267933807E0,1.038510788E1
5.952236208E0,-3.247496796E0,-9.447004852E0,2.681224365E0,1.034316684E1
5.962157208E0,-2.830314331E0,-9.103469238E0,2.883304138E0,9.959782836E0
5.972078208E0,-2.606829071E0,-8.423882446E0,3.217559052E0,9.386694814E0
5.981999208E0,-2.310744781E0,-8.123008118E0,3.498225403E0,9.141136871E0
5.991920208E0,-1.986219635E0,-7.960595856E0,3.895499268E0,9.082459433E0
6.001841208E0,-1.853595428E0,-7.933801575E0,4.134851532E0,9.136630705E0
6.011762208E0,-2.021845551E0,-7.971523132E0,4.172423401E0,9.221830486E0
6.021683208E0,-2.442321167E0,-8.067623291E0,4.252656555E0,9.441216342E0
6.031604208E0,-2.570305023E0,-8.153394928E0,4.066294098E0,9.466734625E0
6.041525208E0,-2.582280121E0,-7.973469086E0,3.525768127E0,9.092602530E0
6.051446208E0,-2.190544739E0,-7.695197754E0,2.891836395E0,8.507483321E0
6.061367208E0,-1.496288452E0,-7.922275543E0,2.494861908E0,8.439529895E0
6.071289208E0,-1.087488556E0,-9.009614410E0,2.683020630E0,9.463317752E0
6.081210208E0,-1.269659729E0,-1.041369461E1,3.233126678E0,1.097771285E1
6.091131208E0,-1.832189941E0,-1.138218063E1,3.897744598E0,1.216977276E1
6.101052208E0,-2.528392181E0,-1.118504059E1,4.466412048E0,1.230636976E1
6.110973208E0,-2.855911102E0,-1.019709503E1,4.906796265E0,1.167105929E1
6.120894208E0,-3.131188660E0,-9.088350677E0,5.303621063E0,1.097865460E1
6.130815208E0,-3.874991913E0,-7.912695465E0,5.361700287E0,1.031378407E1
6.140736208E0,-4.901108093E0,-6.973548431E0,4.982538757E0,9.873040602E0
6.150657208E0,-5.092709656E0,-6.726412354E0,3.982318726E0,9.329478936E0
6.160578208E0,-4.745431824E0,-7.187004547E0,2.659070435E0,9.013479524E0
6.170499208E0,-3.861669617E0,-7.885901184E0,1.910776520E0,8.986155831E0
6.180420208E0,-2.666704559E0,-8.821306000E0,8.292755127E-1,9.252807716E0
6.190341208E0,-1.163380737E0,-1.002615051E1,-1.152603149E-2,1.009342765E1
6.200263208E0,3.541635132E-1,-1.156135803E1,8.729846191E-1,1.159967816E1
6.210184208E0,1.816622314E0,-1.354159012E1,1.414558411E0,1.373592935E1
6.220105208E0,3.074157257E0,-1.667128189E1,1.429227905E0,1.701248880E1
6.230026208E0,3.790268097E0,-2.008837601E1,1.807042236E0,2.052253358E1
6.239947208E0,3.389850769E0,-2.275433212E1,2.273621979E0,2.311752745E1
6.249868208E0,2.279010773E0,-2.391741348E1,9.765692139E-1,2.404558681E1
6.259789208E0,2.013313293E0,-2.354843079E1,-1.025218048E0,2.365656558E1
6.269710208E0,-4.700225830E-1,-1.934112991E1,-2.678230591E0,1.953133755E1
6.279631208E0,-5.205874329E0,-1.373798172E1,-4.617597656E0,1.539985316E1
6.289552208E0,-8.435558167E0,-1.105062012E1,-4.845423889E0,1.472253304E1
6.299473208E0,-1.016161880E1,-9.972412262E0,-2.844385071E0,1.451888527E1
6.309394208E0,-1.176628189E1,-8.722661133E0,-1.063688049E0,1.468542267E1
6.319315208E0,-1.096155533E1,-7.102131042E0,-3.086581421E-1,1.306488540E1
6.329236208E0,-9.394015045E0,-5.428910522E0,-3.655398560E-1,1.085606777E1
6.339158208E0,-8.660390625E0,-3.795058136E0,-7.144642639E-1,9.482367385E0
6.349079208E0,-5.733826447E0,-3.289858704E0,2.826123047E-1,6.616630995E0
6.359000208E0,-3.206182709E0,-3.481909332E0,9.415420532E-1,4.825950849E0
6.368921208E0,-1.961071930E0,-3.973187714E0,1.467847595E0,4.667611840E0
6.378842208E0,-1.112785950E0,-4.593797150E0,6.664141846E-1,4.773402632E0
6.388763208E0,-8.445437622E-1,-5.341043243E0,4.685256958E-1,5.427661874E0
6.398684208E0,-7.149133301E-1,-5.895490265E0,7.481442261E-1,5.985618290E0
6.408605208E0,1.863624573E-1,-6.358776855E0,5.008584595E-1,6.381193717E0
6.418526208E0,6.587800598E-1,-6.732399902E0,-1.347198486E-3,6.764554784E0
6.428447208E0,8.963360596E-1,-7.096442871E0,2.659968567E-1,7.157770189E0
6.438368208E0,1.262175293E0,-7.270381165E0,1.195414124E0,7.475329001E0
6.448289208E0,1.410217438E0,-7.316036224E0,1.827699280E0,7.671608952E0
6.458210208E0,1.347348175E0,-7.272776184E0,1.937870178E0,7.646172988E0
6.468131208E0,1.276096344E0,-7.130571899E0,1.608405304E0,7.420272577E0
6.478053208E0,1.269210663E0,-6.969806213E0,1.288670197E0,7.200678109E0
6.487974208E0,7.607180786E-1,-6.703659668E0,1.322350159E0,6.875053082E0
6.497895208E0,-5.617817688E-1,-6.278543701E0,1.561103668E0,6.494055314E0
6.507816208E0,-1.846709747E0,-5.892646179E0,1.365610199E0,6.324437295E0
6.517737208E0,-3.217858429E0,-5.788163452E0,9.729766846E-1,6.693588921E0
6.527658208E0,-4.637955322E0,-6.060746613E0,6.035449219E-1,7.655556514E0
6.537579208E0,-6.324498138E0,-6.329288177E0,5.409750366E-1,8.963917644E0
6.547500208E0,-8.107141113E0,-6.603517914E0,1.229543152E0,1.052824592E1
6.557421208E0,-9.484127655E0,-6.897955627E0,3.146905975E0,1.214221917E1
6.567342208E0,-1.061502594E1,-6.901398468E0,5.525310059E0,1.381438119E1
6.577263208E0,-1.082069824E1,-6.960375824E0,8.334967346E0,1.532990616E1
6.587184208E0,-1.052027298E1,-8.754544830E0,1.027313690E1,1.711302254E1
6.597105208E0,-1.042312500E1,-1.027927414E1,9.624535675E0,1.751960897E1
6.607026208E0,-8.384963379E0,-9.828411713E0,8.036937103E0,1.521504669E1
6.616947208E0,-5.620811462E0,-8.971443787E0,6.460265808E0,1.240223203E1
6.626869542E0,-4.681514740E0,-8.049510956E0,4.980892181E0,1.056032641E1
6.636790542E0,-5.654641113E0,-7.465575256E0,3.832929382E0,1.011934423E1
6.646711542E0,-7.569758606E0,-8.464597778E0,8.785231018E-1,1.138957698E1
6.656632542E0,-8.049660645E0,-1.268896317E1,-2.691702576E0,1.526604354E1
6.666553542E0,-9.100475464E0,-1.913351166E1,-4.669988708E0,2.169605302E1
6.676474542E0,-9.963580627E0,-2.663516190E1,-5.845793610E0,2.903236282E1
6.686395542E0,-7.911048889E0,-3.087000549E1,-5.613027649E0,3.235812128E1
6.696316542E0,-2.319726105E0,-2.273621979E1,-3.540587311E0,2.312687999E1
6.706237542E0,2.212698669E0,-7.900720367E0,-1.595232697E0,8.358360191E0
6.716158542E0,4.166435852E0,-2.718047791E0,2.441273346E0,5.541370503E0
6.726079542E0,4.780608673E0,-4.323159943E0,6.458170166E0,9.124247534E0
6.736000542E0,2.981050873E0,-7.401508484E0,7.793842621E0,1.115405643E1
6.745921542E0,9.003776550E-1,-1.130598907E1,5.765111389E0,1.272291548E1
6.755842542E0,-1.666334839E0,-1.451082458E1,3.073708191E0,1.492609741E1
6.765764542E0,-2.239792328E0,-1.512454834E1,1.982627106E0,1.541750442E1
6.775685542E0,-1.645827484E0,-1.460138626E1,8.262817383E-1,1.471706392E1
6.785606542E0,-1.291065216E0,-1.345057938E1,-3.806584167E-1,1.351776001E1
6.795527542E0,-9.342073059E-1,-1.236743179E1,-5.866300964E-1,1.241653121E1
6.805448542E0,-1.343605957E0,-1.154354507E1,1.588197327E-1,1.162256140E1
6.815369542E0,-2.115850067E0,-1.073088501E1,3.297642517E-1,1.094246129E1
6.825290542E0,-2.585273895E0,-9.925559692E0,1.962419128E-1,1.025860065E1
6.835211542E0,-2.713856506E0,-9.388177185E0,6.328839111E-1,9.793029666E0
6.845132542E0,-2.111658783E0,-8.711434479E0,1.652563477E0,9.114776988E0
6.855053542E0,-1.507664795E0,-8.012388153E0,2.558629303E0,8.545057107E0
6.864974542E0,-1.499731293E0,-7.250472565E0,2.492915955E0,7.812373283E0
6.874895542E0,-1.574425964E0,-6.510710907E0,1.846709747E0,6.948273924E0
6.884816542E0,-1.562600555E0,-6.235732727E0,1.096020813E0,6.521299315E0
6.894737542E0,-1.292562103E0,-5.902825012E0,7.694000244E-1,6.091472426E0
6.904659542E0,-1.419198761E0,-5.824986877E0,1.395398254E0,6.155626169E0
6.914580542E0,-1.510658569E0,-5.590424652E0,1.582359467E0,6.003232345E0
6.924501542E0,-1.628313904E0,-5.375022583E0,1.519789581E0,5.818250107E0
6.934422542E0,-1.739532623E0,-5.348078613E0,1.422192535E0,5.800909429E0
6.944343542E0,-1.867965546E0,-5.437592468E0,1.261576538E0,5.886279172E0
6.954264542E0,-2.129022675E0,-5.709576874E0,1.092428284E0,6.190751585E0
6.964185542E0,-2.098037109E0,-6.118825836E0,9.678872681E-1,6.540534771E0
6.974106542E0,-1.864073639E0,-6.840624847E0,9.216334534E-1,7.149708180E0
6.984027542E0,-1.721869354E0,-7.745642853E0,1.160386963E0,8.019121846E0
6.993948542E0,-2.297123108E0,-8.054750061E0,1.786085815E0,8.564220668E0
7.003869542E0,-2.756966858E0,-8.154293060E0,2.185754700E0,8.880928171E0
7.013790542E0,-2.982398071E0,-8.457712097E0,2.405198364E0,9.285072501E0
7.023711542E0,-2.971919861E0,-8.709189148E0,2.689008179E0,9.587129302E0
7.033632542E0,-3.023562469E0,-8.834478607E0,3.104693756E0,9.840176095E0
7.043553542E0,-2.929258575E0,-8.732839966E0,3.450175323E0,9.835993058E0
7.053475542E0,-2.832859039E0,-8.717721405E0,3.689228210E0,9.881000031E0
7.063396542E0,-2.811752930E0,-8.550668793E0,3.668421478E0,9.719938656E0
7.073317542E0,-3.423081665E0,-8.065677338E0,3.434308319E0,9.411010181E0
7.083238542E0,-3.954326935E0,-7.333549805E0,2.791844330E0,8.787038694E0
7.093159542E0,-4.110152893E0,-6.500532074E0,2.323767700E0,8.034312066E0
7.103080542E0,-3.303630066E0,-6.396199036E0,2.296674042E0,7.556457197E0
7.113001542E0,-1.966460724E0,-7.324568481E0,2.656525726E0,8.035757597E0
7.122922542E0,-1.328188019E0,-8.878636780E0,3.324287109E0,9.573147824E0
7.132843542E0,-1.298100586E0,-1.071846085E1,4.444707184E0,1.167586785E1
7.142764542E0,-1.339714050E0,-1.163590302E1,5.672454071E0,1.301406193E1
7.152685542E0,-1.042881317E0,-1.148277145E1,6.015989685E0,1.300514412E1
7.162606542E0,-9.804611206E-1,-1.054586975E1,5.490282898E0,1.192978957E1
7.172527542E0,-1.769320679E0,-9.484576721E0,5.083878021E0,1.090566399E1
7.182448542E0,-2.766546936E0,-8.409362640E0,5.370980988E0,1.035464141E1
7.192369542E0,-3.363206177E0,-7.114405518E0,5.778433685E0,9.763002484E0
7.202291542E0,-3.935166779E0,-5.550308075E0,5.440735931E0,8.711662573E0
7.212212542E0,-4.583917694E0,-4.107458496E0,3.932322693E0,7.303881056E0
7.222133542E0,-5.717360687E0,-4.093088379E0,1.903292084E0,7.284511409E0
7.232054542E0,-6.184090118E0,-5.636828156E0,-7.988887024E-1,8.405654371E0
7.241975542E0,-4.568499756E0,-8.263416138E0,-2.837349701E0,9.859299651E0
7.251896542E0,-1.763931885E0,-1.110825027E1,-2.255809021E0,1.147141466E1
7.261817542E0,7.771838379E-1,-1.397434021E1,-1.071471863E0,1.403688894E1
7.271738542E0,2.541115723E0,-1.769126083E1,4.812492371E-1,1.787930591E1
7.281659542E0,2.233056335E0,-2.240406052E1,2.904110870E0,2.270159308E1
7.291580542E0,-3.836521912E-1,-2.636362656E1,3.228037262E0,2.656328705E1
7.301501542E0,-8.351133728E-1,-2.986080414E1,4.143383789E-1,2.987535296E1
7.311422542E0,2.677931213E-1,-2.907448929E1,-3.306474152E0,2.926312375E1
7.321343542E0,-3.067271576E0,-1.917063446E1,-6.396348724E0,2.044100432E1
7.331264542E0,-7.065606995E0,-1.177346695E1,-6.059100037E0,1.500833167E1
7.341185542E0,-8.956474915E0,-9.161997528E0,-4.619244232E0,1.361976721E1
7.351107542E0,-9.739346924E0,-8.170010376E0,-2.183958435E0,1.289858994E1
7.361028542E0,-1.047237259E1,-7.919581146E0,1.728904724E-1,1.313088894E1
7.370949542E0,-1.061263092E1,-7.451654205E0,1.703008575E0,1.307881201E1
7.380870542E0,-9.410630493E0,-6.465504913E0,2.204465790E0,1.162851622E1
7.390791542E0,-7.417974243E0,-5.389692078E0,1.680704956E0,9.322011141E0
7.400712542E0,-5.328619080E0,-4.604574738E0,8.541238403E-1,7.094069167E0
7.410633542E0,-3.616778870E0,-4.249962158E0,4.677772522E-1,5.600186005E0
7.420554542E0,-2.169887695E0,-4.402195587E0,1.495989075E0,5.130859763E0
7.430475542E0,-1.021326141E0,-4.900359650E0,2.533032532E0,5.610070016E0
7.440396542E0,-6.294410706E-1,-5.574407959E0,1.953737183E0,5.940312208E0
7.450317542E0,-6.496490479E-1,-6.069428558E0,9.451345825E-1,6.176834650E0
7.460238542E0,-5.688171387E-2,-6.592740326E0,9.550140381E-2,6.593677354E0
7.470159542E0,1.728904724E-1,-6.949747925E0,-4.132905579E-1,6.964172343E0
7.480080542E0,1.046324158E-1,-6.978488159E0,-5.706134033E-1,7.002559860E0
7.490001542E0,2.594105530E-1,-6.965165863E0,-5.089416504E-2,6.970180740E0
7.499922542E0,6.002517700E-1,-6.909631348E0,9.047186279E-1,6.994413724E0
7.509843542E0,7.514373779E-1,-6.904691620E0,1.457968140E0,7.096837013E0
7.519765542E0,5.528004456E-1,-6.960525513E0,1.614692230E0,7.166710176E0
7.529686542E0,1.612147522E-1,-6.954687653E0,1.356928253E0,7.087660039E0
7.539607542E0,-1.658551025E-1,-7.059020691E0,1.132544861E0,7.151219399E0
7.549528542E0,-6.268963623E-1,-7.322622528E0,1.158141632E0,7.440100253E0
7.559449542E0,-1.166823578E0,-7.531288605E0,1.297651520E0,7.730826914E0
7.569370542E0,-2.007325745E0,-7.346872101E0,1.641785889E0,7.791106931E0
7.579291542E0,-2.980901184E0,-6.706503754E0,1.955234070E0,7.595123747E0
7.589212542E0,-3.872746582E0,-6.059698792E0,1.809137878E0,7.415598114E0
7.599133542E0,-5.049599304E0,-5.989644470E0,1.314266968E0,7.943651029E0
7.609054542E0,-6.734944611E0,-6.003715210E0,7.710466003E-1,9.055307178E0
7.618975542E0,-8.653504944E0,-6.101012878E0,4.764591980E-1,1.059870366E1
7.628896958E0,-1.053673874E1,-6.123615875E0,7.649093628E-1,1.221092220E1
7.638817958E0,-1.151809799E1,-5.836662598E0,2.477647705E0,1.314807780E1
7.648738958E0,-1.132664612E1,-5.423970795E0,5.110372925E0,1.355832891E1
7.658659958E0,-1.081141754E1,-5.961502991E0,7.953410797E0,1.468615029E1
7.668581958E0,-1.049243088E1,-8.187973022E0,9.500294037E0,1.635205170E1
7.678502958E0,-1.012449600E1,-9.578431549E0,8.491392059E0,1.632040163E1
7.688423958E0,-8.234526215E0,-9.201814728E0,6.697522430E0,1.404769102E1
7.698344958E0,-6.297105103E0,-8.587941284E0,6.033652954E0,1.223974004E1
7.708265958E0,-5.907764740E0,-8.256380768E0,5.908662872E0,1.174656565E1
7.718186958E0,-8.531808014E0,-1.056892181E1,3.920646973E0,1.413737348E1
7.728107958E0,-1.121003860E1,-1.550056641E1,1.698517914E0,1.920462152E1
7.738028958E0,-1.217837494E1,-2.109054199E1,-6.164181519E-1,2.436193237E1
7.747949958E0,-1.117561020E1,-2.729498978E1,-5.284610596E0,2.996394232E1
7.757870958E0,-8.725056152E0,-3.038935501E1,-9.387728119E0,3.298134233E1
7.767791958E0,-3.214714966E0,-2.115430939E1,-7.918832703E0,2.281550151E1
7.777712958E0,1.390458527E0,-7.473359070E0,-4.166136475E0,8.668400304E0
7.787633958E0,2.816243591E0,-2.830464020E0,9.228309631E-1,4.098093645E0
7.797554958E0,2.430495758E0,-4.360582123E0,5.366640015E0,7.329584649E0
7.807475958E0,7.358697510E-1,-8.493487701E0,7.086563416E0,1.108603710E1
7.817396958E0,5.562432861E-1,-1.305599991E1,8.199499054E0,1.542725915E1
7.827318958E0,7.789801025E-1,-1.472263412E1,5.384902039E0,1.569585727E1
7.837239958E0,2.218237152E0,-1.319446198E1,2.935695190E0,1.369790893E1
7.847160958E0,3.911965027E0,-1.173544601E1,1.307680664E0,1.243921992E1
7.857081958E0,3.706143036E0,-1.108714417E1,3.641926575E-1,1.169584962E1
7.867002958E0,2.237996063E0,-1.023376877E1,3.873944092E-1,1.048278226E1
7.876923958E0,6.487509155E-1,-8.909921722E0,1.068927155E0,8.997232247E0
7.886844958E0,-7.858657837E-1,-7.653733978E0,1.237476654E0,7.792854247E0
7.896765958E0,-2.029629364E0,-7.066954193E0,1.418600006E0,7.488234966E0
7.906686958E0,-2.976560211E0,-7.018455048E0,2.001038818E0,7.881800448E0
7.916607958E0,-3.237018585E0,-7.011120300E0,2.371069336E0,8.078122739E0
7.926528958E0,-2.929857330E0,-7.114854584E0,2.603535919E0,8.123030162E0
7.936449958E0,-2.618804169E0,-7.200027466E0,2.258204041E0,7.987366041E0
7.946370958E0,-2.474204865E0,-7.435637512E0,1.043180695E0,7.905606927E0
7.956291958E0,-2.131268005E0,-7.792495422E0,-1.601669312E-2,8.078709349E0
7.966212958E0,-1.983375549E0,-7.977061615E0,-5.192701721E-1,8.236317872E0
7.976133958E0,-2.469265137E0,-7.605833588E0,-3.576063538E-1,8.004614743E0
7.986055958E0,-2.616109772E0,-6.776258698E0,6.114784241E-1,7.289418230E0
7.995976958E0,-2.743794250E0,-6.334377594E0,2.092498627E0,7.213272274E0
8.005897958E0,-2.380799103E0,-5.921386414E0,2.200274506E0,6.750720652E0
8.015818958E0,-2.410138092E0,-5.696254578E0,1.646875305E0,6.400646851E0
8.025739958E0,-2.456541595E0,-5.803282013E0,1.197809143E0,6.414625903E0
8.035660958E0,-2.395767975E0,-6.269263000E0,9.244775391E-1,6.774807855E0
8.045581958E0,-2.442321167E0,-7.140451355E0,8.978329468E-1,7.599808039E0
8.055502958E0,-2.706521759E0,-7.925868073E0,1.402733002E0,8.491896408E0
8.065423958E0,-3.078947296E0,-8.781488800E0,2.064806213E0,9.531940343E0
8.075344958E0,-3.218008118E0,-9.603279877E0,2.707719269E0,1.048381153E1
8.085265958E0,-3.199746094E0,-1.012479538E1,2.965034180E0,1.102457637E1
8.095186958E0,-2.619103546E0,-1.045620621E1,2.729424133E0,1.111942929E1
8.105107958E0,-2.323019257E0,-1.037851776E1,2.655926971E0,1.096193402E1
8.115028958E0,-2.350561981E0,-1.012479538E1,2.789598999E0,1.076189972E1
8.124949958E0,-2.314786377E0,-9.744286652E0,2.927013245E0,1.043440295E1
8.134870958E0,-2.441872101E0,-9.477391663E0,3.016377411E0,1.024120231E1
8.144791958E0,-2.707868958E0,-9.016051025E0,3.127596130E0,9.919858262E0
8.154713958E0,-3.125500488E0,-8.564140778E0,3.233426056E0,9.673071106E0
8.164634958E0,-3.630550232E0,-7.764952698E0,3.360811157E0,9.207086239E0
8.174555958E0,-3.921545105E0,-6.761289825E0,3.468587036E0,8.551295349E0
8.184476958E0,-3.702101440E0,-6.186185760E0,3.532504120E0,8.028264738E0
8.194397958E0,-3.034789124E0,-6.338419189E0,3.602558441E0,7.897083650E0
8.204318958E0,-2.438429260E0,-7.188052368E0,3.635489960E0,8.416104880E0
8.214239958E0,-2.082020416E0,-8.673563232E0,3.689228210E0,9.652767114E0
8.224160958E0,-1.977238312E0,-1.012015503E1,4.012555847E0,1.106470124E1
8.234081958E0,-2.004481659E0,-1.048898804E1,4.562512207E0,1.161263684E1
8.244002958E0,-2.129172363E0,-9.780211945E0,5.119503937E0,1.124256382E1
8.253923958E0,-2.773133240E0,-8.596922607E0,5.680387573E0,1.067071456E1
8.263844958E0,-4.156406708E0,-7.318131866E0,5.635780334E0,1.012880994E1
8.273765958E0,-5.574707336E0,-6.284680939E0,4.872068481E0,9.711417388E0
8.283686958E0,-6.442602539E0,-5.827980652E0,3.437451782E0,9.342834726E0
8.293607958E0,-6.646328888E0,-6.417454834E0,2.468217316E0,9.562923766E0
8.303528958E0,-5.794899445E0,-8.105644226E0,2.041754150E-1,9.966143461E0
8.313449958E0,-3.807482300E0,-1.044647644E1,-1.131197662E0,1.117610843E1
8.323371958E0,-1.605411530E0,-1.233779343E1,3.861968994E-2,1.244186418E1
8.333292958E0,2.420466614E-1,-1.457803482E1,3.739224243E-1,1.458483815E1
8.343213958E0,1.603914642E0,-1.828058533E1,1.003662872E0,1.837823934E1
8.353134958E0,6.689588928E-1,-2.190290268E1,2.624043274E0,2.206966821E1
8.363055958E0,-1.021326141E0,-2.416185516E1,2.003733215E0,2.426629965E1
8.372976958E0,-1.720671844E0,-2.515533920E1,-1.219813385E0,2.524360804E1
8.382897958E0,-1.521436157E0,-2.323183914E1,-3.551963654E0,2.355099921E1
8.392818958E0,-3.437152405E0,-1.728141312E1,-5.188211060E0,1.836787386E1
8.402739958E0,-6.333329773E0,-1.139640106E1,-5.184768219E0,1.403106712E1
8.412660958E0,-7.974965973E0,-9.043144684E0,-3.813170471E0,1.264590120E1
8.422581958E0,-1.157512939E1,-8.219856720E0,-1.770967255E0,1.430685116E1
8.432502958E0,-1.191956314E1,-7.653883667E0,-3.076103210E-1,1.416871712E1
8.442423958E0,-9.948911133E0,-6.450835419E0,1.115929413E0,1.190963512E1
8.452344958E0,-7.371421051E0,-5.126838684E0,1.128503265E0,9.049632193E0
8.462265958E0,-4.349954224E0,-4.074526978E0,6.256988525E-1,5.992943425E0
8.472186958E0,-2.682571564E0,-3.456312561E0,3.950285339E-1,4.392986940E0
8.482107958E0,-1.923949127E0,-3.654350739E0,6.171665955E-1,4.175733968E0
8.492029958E0,-1.374741211E0,-4.084107056E0,1.031355286E0,4.430974787E0
8.501950958E0,-6.923103333E-1,-4.606670380E0,1.509910126E0,4.896992360E0
8.511871958E0,5.053491211E-1,-5.322781219E0,1.866618347E0,5.663183001E0
8.521792958E0,1.062490540E0,-6.175707550E0,1.674867096E0,6.486403447E0
8.531713958E0,1.425635376E0,-6.919660492E0,1.041085052E0,7.141288094E0
8.541634958E0,1.237326965E0,-7.317533112E0,-1.074765015E-1,7.422184318E0
8.551555958E0,8.818162537E-1,-7.453600159E0,-6.430627441E-1,7.533079379E0
8.561476958E0,3.186872864E-1,-7.824379120E0,-1.058299255E-1,7.831581588E0
8.571397958E0,-1.321751404E-1,-7.866441650E0,5.403762817E-1,7.886087815E0
8.581318958E0,-2.595602417E-1,-7.800728302E0,9.508227539E-1,7.862747450E0
8.591239958E0,-5.284011841E-1,-7.832312622E0,7.746391296E-1,7.888244076E0
8.601160958E0,-9.225315857E-1,-7.969577179E0,6.930587769E-1,8.052673805E0
8.611081958E0,-1.178798676E0,-8.041128387E0,8.107141113E-1,8.167408979E0
8.621002333E0,-1.472637634E0,-7.911497955E0,1.020577698E0,8.111845680E0
8.630923333E0,-2.006726990E0,-7.526049500E0,1.372196503E0,7.908937825E0
8.640844333E0,-2.761756897E0,-6.982978821E0,1.841919708E0,7.731879628E0
8.650765333E0,-3.823199615E0,-6.465055847E0,2.004481659E0,7.773786023E0
8.660687333E0,-4.920417938E0,-6.249055023E0,1.989662476E0,8.198777844E0
8.670608333E0,-5.962550812E0,-6.194119263E0,1.917512512E0,8.808858034E0
8.680529333E0,-7.073091431E0,-6.243217163E0,1.699266357E0,9.586130037E0
8.690450333E0,-8.383765869E0,-6.260730743E0,1.755549316E0,1.060972351E1
8.700371333E0,-9.193881226E0,-6.005661163E0,2.748883667E0,1.132041428E1
8.710292333E0,-9.353599091E0,-5.653593292E0,4.166286163E0,1.169661803E1
8.720213333E0,-9.706415405E0,-5.666616211E0,5.126838684E0,1.235352234E1
8.730134333E0,-9.996811523E0,-6.773264923E0,6.529122620E0,1.372744698E1
8.740055333E0,-1.063568298E1,-9.175768890E0,7.204967194E0,1.578683121E1
8.749976333E0,-1.064182022E1,-1.099598373E1,6.579268341E0,1.665673341E1
8.759897333E0,-9.400900726E0,-1.107666595E1,5.582790527E0,1.556396521E1
8.769818333E0,-8.003706207E0,-9.982890472E0,5.321883087E0,1.385784452E1
8.779739333E0,-6.869365082E0,-8.228688354E0,4.891677704E0,1.178252942E1
8.789660333E0,-6.502777405E0,-6.080355835E0,3.703897705E0,9.642390744E0
8.799581333E0,-7.220684509E0,-5.785768433E0,1.606459351E0,9.391172067E0
8.809502333E0,-9.315129089E0,-8.378826141E0,-2.805166626E-1,1.253216051E1
8.819423333E0,-1.058987823E1,-1.367151993E1,-1.099463654E0,1.732815046E1
8.829344333E0,-1.034184402E1,-2.154978699E1,-1.883533173E0,2.397696299E1
8.839265333E0,-7.388784943E0,-2.693633560E1,-2.669997711E0,2.805867435E1
8.849187333E0,-4.371509399E0,-2.454850113E1,-3.393892365E0,2.516460823E1
8.859108333E0,-5.831872559E-1,-1.379695908E1,-5.067112885E0,1.470958259E1
8.869029333E0,1.177152100E0,-7.181765442E0,-2.095642090E0,7.573318803E0
8.878950333E0,1.550775146E0,-7.474406891E0,2.380799103E0,7.996240760E0
8.888871333E0,7.990383911E-1,-1.001043320E1,4.698878632E0,1.108723119E1
8.898792333E0,-7.447013855E-1,-1.074450668E1,5.553900604E0,1.211795428E1
8.908713333E0,-1.123114471E0,-9.960736542E0,5.930068359E0,1.164660334E1
8.918634333E0,-4.652325439E-1,-9.805209961E0,5.145100708E0,1.108289876E1
8.928555333E0,3.100053406E-1,-1.028436356E1,4.616100769E0,1.127708399E1
8.938476333E0,9.123527527E-1,-1.071112610E1,4.165837097E0,1.152886849E1
8.948397333E0,6.436614990E-1,-1.044542862E1,3.595223694E0,1.106557331E1
8.958318333E0,-2.968327332E-1,-9.858349457E0,2.296823730E0,1.012672518E1
8.968239333E0,-1.361718292E0,-9.560618591E0,4.718188477E-1,9.668625424E0
8.978160333E0,-2.417472839E0,-9.503287811E0,-5.231620789E-1,9.819895759E0
8.988081333E0,-3.016976166E0,-9.577084351E0,-2.927911377E-1,1.004531814E1
8.998002333E0,-2.653232574E0,-9.374256134E0,6.268963623E-1,9.762649241E0
9.007923333E0,-2.005529480E0,-8.813222809E0,1.374292145E0,9.142413449E0
9.017845333E0,-1.311123505E0,-8.444539490E0,1.461710358E0,8.669826366E0
9.027766333E0,-7.842192078E-1,-8.359067230E0,1.648970947E0,8.556173789E0
9.037687333E0,-7.601193237E-1,-8.289312286E0,2.149979095E0,8.597260592E0
9.047608333E0,-1.065933380E0,-8.044870605E0,2.701432343E0,8.553004953E0
9.057529333E0,-1.326541443E0,-7.537126465E0,2.757116547E0,8.134474734E0
9.067450333E0,-1.563947754E0,-7.149881744E0,2.280956726E0,7.666127127E0
9.077371333E0,-1.940265198E0,-6.686295776E0,2.012864227E0,7.247261734E0
9.087292333E0,-2.604434052E0,-6.272406464E0,1.781894531E0,7.021488994E0
9.097213333E0,-2.884501648E0,-6.155499573E0,1.270857239E0,6.915605748E0
9.107134333E0,-2.817441101E0,-6.405779114E0,9.204359436E-1,7.058270520E0
9.117055333E0,-2.978955231E0,-6.745871887E0,9.184899902E-1,7.431324623E0
9.126976333E0,-2.808759155E0,-7.078180847E0,1.085243225E0,7.692042964E0
9.136897333E0,-2.941083984E0,-7.181915131E0,1.368753662E0,7.880568922E0
9.146818333E0,-3.274889832E0,-7.185956726E0,1.502575378E0,8.038694561E0
9.156739333E0,-3.426374817E0,-7.639663239E0,1.743125153E0,8.552367162E0
9.166660333E0,-3.581901398E0,-7.968529358E0,2.172881470E0,9.002715792E0
9.176581333E0,-3.544179840E0,-8.165220337E0,2.561772766E0,9.262543581E0
9.186502333E0,-3.514691162E0,-8.646170197E0,2.796185303E0,9.743098341E0
9.196424333E0,-3.439397736E0,-8.968450012E0,3.207380219E0,1.012668950E1
9.206345333E0,-3.250939636E0,-9.111402740E0,3.414399719E0,1.025886903E1
9.216266333E0,-3.074905701E0,-9.234746246E0,3.556454315E0,1.036262277E1
9.226187333E0,-3.053500214E0,-9.160650330E0,3.645968170E0,1.032155327E1
9.236108333E0,-3.332370300E0,-8.687035217E0,3.538491669E0,9.954405857E0
9.246029333E0,-3.954476624E0,-7.725285187E0,3.288062439E0,9.280585713E0
9.255950333E0,-4.205354919E0,-6.741081848E0,2.972817993E0,8.483209375E0
9.265871333E0,-3.955075378E0,-6.216572571E0,2.675536194E0,7.838806650E0
9.275792333E0,-3.160228271E0,-7.025640106E0,2.589315491E0,8.127189941E0
9.285713333E0,-2.337239685E0,-9.039103088E0,2.750979309E0,9.733240013E0
9.295634333E0,-2.162403259E0,-1.121333176E1,3.412902832E0,1.191900594E1
9.305555333E0,-2.438728638E0,-1.203392532E1,4.554429016E0,1.309601389E1
9.315476333E0,-2.550995178E0,-1.159833115E1,5.502108307E0,1.308824120E1
9.325397333E0,-2.549049225E0,-1.031714539E1,5.800737305E0,1.210742310E1
9.335318333E0,-2.940934296E0,-8.812773743E0,5.991141357E0,1.105476596E1
9.345239333E0,-4.038901062E0,-7.421417084E0,5.880072327E0,1.029394987E1
9.355160333E0,-5.595065002E0,-6.095025330E0,5.383105774E0,9.870760554E0
9.365081333E0,-6.733148346E0,-5.152884521E0,4.002526703E0,9.375911985E0
9.375002333E0,-6.691235504E0,-5.013674011E0,2.671344910E0,8.777564770E0
9.384923333E0,-5.930966492E0,-6.021827545E0,9.972262573E-1,8.510771453E0
9.394845333E0,-4.899162140E0,-7.730524292E0,-1.002315674E0,9.206923059E0
9.404766333E0,-2.875819702E0,-9.645342407E0,-6.506968689E-1,1.008594941E1
9.414687333E0,-4.781057739E-1,-1.161838943E1,8.255332947E-1,1.165748958E1
9.424608333E0,8.643026733E-1,-1.404858582E1,1.661844177E0,1.417291461E1
9.434529333E0,1.138382721E0,-1.804063431E1,2.113005981E0,1.819959328E1
9.444450333E0,-4.909790039E-2,-2.282618271E1,2.067500610E0,2.291967684E1
9.454371333E0,-1.354533234E0,-2.561742828E1,1.055754547E0,2.567492960E1
9.464292333E0,-5.134323120E-1,-2.597638184E1,-6.313870239E-1,2.598912610E1
9.474213333E0,-4.138893127E-1,-2.264101776E1,-2.831062775E0,2.282108468E1
9.484134333E0,-2.642305298E0,-1.530746796E1,-4.259093170E0,1.610714832E1
9.494055333E0,-5.958658905E0,-1.009815079E1,-4.417463837E0,1.252965490E1
9.503976333E0,-8.118966522E0,-8.572972412E0,-3.288960571E0,1.225686481E1
9.513897333E0,-9.980196075E0,-8.167315979E0,-2.040706329E0,1.305656334E1
9.523818333E0,-1.119866226E1,-7.471862183E0,-2.207908630E-1,1.346430502E1
9.533739333E0,-1.137215149E1,-6.472540283E0,6.987469482E-1,1.310373437E1
9.543660333E0,-1.053988220E1,-5.157824249E0,6.463558960E-1,1.175202296E1
9.553581333E0,-8.199349365E0,-4.342320099E0,2.993774414E-2,9.278252536E0
9.563502333E0,-5.108876038E0,-3.951782227E0,4.020639038E-1,6.471387217E0
9.573423333E0,-3.383863220E0,-3.964206390E0,8.674461365E-1,5.283741610E0
9.583345333E0,-2.406695251E0,-4.309538269E0,1.197958832E0,5.079311714E0
9.593266333E0,-1.779200134E0,-4.648882599E0,1.577719116E0,5.221767914E0
9.603187333E0,-1.426533508E0,-4.829407196E0,1.189576263E0,5.174288686E0
9.613108333E0,-3.339555359E-1,-5.312153320E0,6.080355835E-1,5.357257364E0
9.623029167E0,3.373983765E-1,-5.841901703E0,1.710942078E-1,5.854137545E0
9.632950167E0,3.770658875E-1,-6.318211212E0,-5.254074097E-1,6.351222288E0
9.642871167E0,5.905220032E-1,-6.876101074E0,-8.187973022E-1,6.949813756E0
9.652792167E0,8.834628296E-1,-7.312743073E0,-1.863624573E-1,7.368273121E0
9.662713167E0,1.214424591E0,-7.561226349E0,6.420149231E-1,7.684995390E0
9.672634167E0,1.240021362E0,-7.674540710E0,1.163829803E0,7.860707850E0
9.682555167E0,9.333091736E-1,-7.800728302E0,1.373693390E0,7.975553999E0
9.692476167E0,2.219883728E-1,-8.104147339E0,1.294208679E0,8.209839160E0
9.702397167E0,-7.783813477E-1,-8.496780853E0,1.068328400E0,8.598981798E0
9.712318167E0,-1.797611847E0,-8.627908173E0,8.982820129E-1,8.858844076E0
9.722239167E0,-2.794688416E0,-8.422834625E0,9.837542725E-1,8.928728853E0
9.732160167E0,-3.758983154E0,-7.814349976E0,1.127754822E0,8.744475446E0
9.742081167E0,-4.701123962E0,-7.182962952E0,1.327439575E0,8.686634509E0
9.752002167E0,-5.780978394E0,-7.013066254E0,1.549278259E0,9.219711090E0
9.761923167E0,-7.104975128E0,-7.000941467E0,1.800755310E0,1.013590512E1
9.771844167E0,-8.364306335E0,-6.848258972E0,2.217339020E0,1.103525549E1
9.781766167E0,-9.437125397E0,-6.811585236E0,3.041225739E0,1.202938416E1
9.791687167E0,-9.892777863E0,-7.034771118E0,4.336182861E0,1.289021103E1
9.801608167E0,-9.224866791E0,-7.542964325E0,6.167774048E0,1.341774626E1
9.811529167E0,-8.096064148E0,-8.648415527E0,6.951544189E0,1.373554922E1
9.821450167E0,-7.921676788E0,-1.027343628E1,6.089037781E0,1.433083519E1
9.831371167E0,-8.348439331E0,-1.120704483E1,4.749473419E0,1.475980321E1
9.841292167E0,-8.371940460E0,-1.108370132E1,4.057462463E0,1.447068843E1
9.851213167E0,-8.126900024E0,-1.076172089E1,4.626279602E0,1.425705451E1
9.861134167E0,-8.794362030E0,-1.199800003E1,4.602628784E0,1.557167300E1
9.871055167E0,-1.048719177E1,-1.540072403E1,2.941682739E0,1.886311187E1
9.880976167E0,-1.106499023E1,-1.949935089E1,8.357121277E-1,2.243562143E1
9.890897167E0,-1.095407089E1,-2.282273987E1,-8.482859802E-1,2.532960152E1
9.900818167E0,-8.947792969E0,-2.360456406E1,-3.305276642E0,2.545905138E1
9.910739167E0,-2.695744171E0,-1.667412598E1,-6.074667664E0,1.794979390E1
9.920660167E0,3.074157257E0,-6.165977783E0,-5.192402344E0,8.627326757E0
9.930581167E0,3.648363190E0,-1.635349274E0,-3.917353821E-1,4.017259989E0
9.940502167E0,2.564916229E0,-2.279609528E0,4.060306549E0,5.316155014E0
9.950423167E0,1.178798676E0,-4.387077026E0,5.889951782E0,7.438248661E0
9.960344167E0,-7.237449646E-1,-7.617060242E0,6.315367126E0,9.921052134E0
9.970265167E0,-2.119292908E0,-1.135703293E1,5.612578583E0,1.284424532E1
9.980187167E0,-2.178120575E0,-1.263642242E1,3.535048828E0,1.330112594E1
9.990108167E0,-2.060914307E0,-1.199470688E1,1.729204102E0,1.229270140E1
1.000002917E1,-2.750081177E0,-1.161090500E1,3.781137085E-1,1.193813350E1
1.000995017E1,-3.412753143E0,-1.109702362E1,-3.441343689E-1,1.161504394E1
1.001987117E1,-3.853586426E0,-9.943222961E0,-6.535409546E-1,1.068386292E1
1.002979217E1,-4.396806793E0,-8.630153503E0,-7.469467163E-1,9.714390813E0
1.003971317E1,-4.216880951E0,-7.592960358E0,5.298980713E-2,8.685501705E0
1.004963417E1,-3.702101440E0,-6.858138428E0,1.808539124E0,8.000651944E0
1.005955517E1,-3.563938751E0,-6.106551361E0,3.074606323E0,7.710047535E0
1.006947617E1,-3.692221985E0,-5.816903687E0,3.195255432E0,7.594638172E0
1.007939717E1,-3.788621521E0,-5.807323608E0,2.581082611E0,7.398692315E0
1.008931817E1,-3.628903656E0,-6.079308014E0,1.777254181E0,7.299695891E0
1.009923917E1,-2.990780640E0,-6.688990173E0,8.008346558E-1,7.370800127E0
1.010916017E1,-1.943258972E0,-7.112758942E0,-9.033714294E-1,7.428571541E0
1.011908117E1,-1.740580444E0,-7.418572998E0,-8.767268372E-1,7.670299574E0
1.012900217E1,-2.195334778E0,-7.849227448E0,1.046324158E-1,8.151123496E0
1.013892317E1,-2.487377472E0,-7.756719818E0,2.428849182E0,8.500179844E0
1.014884417E1,-2.275268555E0,-7.110962677E0,2.489622803E0,7.870251514E0
1.015876517E1,-2.749931488E0,-6.714886322E0,1.616638184E0,7.434066217E0
1.016868617E1,-2.985391846E0,-6.559060364E0,1.523531799E0,7.365798427E0
1.017860717E1,-3.290607147E0,-6.818021851E0,1.333277435E0,7.687076562E0
1.018852817E1,-3.579656067E0,-7.483088837E0,1.133143616E0,8.372250029E0
1.019845017E1,-3.679049377E0,-8.120613098E0,1.328337708E0,9.013558813E0
1.020837117E1,-3.733236694E0,-8.590935059E0,1.797611847E0,9.537957315E0
1.021829217E1,-3.716172180E0,-8.966204681E0,2.015708313E0,9.912912895E0
1.022821317E1,-3.518583069E0,-9.066795502E0,1.978136444E0,9.924728272E0
1.023813417E1,-3.558400269E0,-8.998836823E0,1.955832825E0,9.872515316E0
1.024805517E1,-3.199446716E0,-8.852141876E0,2.009870453E0,9.624783339E0
1.025797617E1,-2.830464020E0,-8.913963318E0,2.264191589E0,9.622724778E0
1.026789717E1,-2.785557404E0,-8.843160553E0,2.739902344E0,9.667878954E0
1.027781817E1,-2.693199463E0,-8.512498169E0,3.335962830E0,9.531243173E0
1.028773917E1,-2.621648254E0,-8.232280884E0,3.989054718E0,9.516094034E0
1.029766017E1,-2.674188995E0,-7.799979858E0,4.488565979E0,9.388194561E0
1.030758117E1,-2.811453552E0,-7.183112640E0,4.498744812E0,8.929730296E0
1.031750217E1,-2.938988342E0,-6.206992493E0,3.937262421E0,7.916213972E0
1.032742317E1,-2.789449310E0,-5.457052002E0,2.852767639E0,6.760083373E0
1.033734417E1,-2.282303925E0,-5.610932007E0,1.821711731E0,6.325353968E0
1.034726517E1,-1.788929901E0,-6.561305695E0,1.455722809E0,6.954863874E0
1.035718617E1,-1.930834808E0,-8.028105469E0,1.870360565E0,8.466218112E0
1.036710717E1,-2.078427887E0,-9.570198669E0,3.024610291E0,1.024972353E1
1.037702817E1,-1.883682861E0,-1.060604462E1,4.651876373E0,1.173355860E1
1.038694917E1,-2.094294891E0,-9.802515564E0,5.802683258E0,1.158216368E1
1.039687017E1,-2.617456970E0,-8.317304077E0,6.275100861E0,1.074269607E1
1.040679217E1,-4.202361145E0,-6.872807922E0,6.000571747E0,1.004500817E1
1.041671317E1,-5.961353302E0,-5.784121857E0,5.150938568E0,9.773738639E0
1.042663417E1,-6.493796082E0,-5.889353027E0,3.847598877E0,9.573812394E0
1.043655517E1,-5.820945282E0,-7.055727539E0,1.618733826E0,9.289079302E0
1.044647617E1,-3.857628021E0,-8.971144409E0,-9.026229858E-2,9.765801208E0
1.045639717E1,-1.873653717E0,-1.129266678E1,4.349954224E-1,1.145530978E1
1.046631817E1,-3.029699707E-1,-1.350326981E1,8.164022827E-1,1.353131919E1
1.047623917E1,3.284170532E-1,-1.578587311E1,2.468367004E-1,1.579121832E1
1.048616017E1,4.146377563E-1,-1.913695450E1,1.684596863E0,1.921543178E1
1.049608117E1,-5.439688110E-1,-2.259012360E1,3.367696838E0,2.284624626E1
1.050600217E1,-2.843337250E0,-2.462035172E1,3.321592712E0,2.500558464E1
1.051592317E1,-3.543281708E0,-2.576636856E1,1.591939545E0,2.605752992E1
1.052584417E1,-5.220843201E0,-2.337524094E1,-1.724414063E0,2.401317756E1
1.053576517E1,-9.133257294E0,-1.564935699E1,-4.728217621E0,1.872631317E1
1.054568617E1,-1.117531082E1,-1.063104263E1,-5.716612244E0,1.644950744E1
1.055560717E1,-1.131152756E1,-9.255852356E0,-6.004613342E0,1.580116578E1
1.056552817E1,-1.073283096E1,-8.426427155E0,-4.688699799E0,1.442852178E1
1.057544917E1,-1.043330383E1,-7.805817719E0,-3.292852478E0,1.343977294E1
1.058537017E1,-9.103918304E0,-6.978039093E0,-2.756368103E0,1.179711504E1
1.059529117E1,-7.140002289E0,-5.710624695E0,-2.001787262E0,9.359381354E0
1.060521317E1,-5.394781494E0,-4.567901001E0,-5.260061646E-1,7.088446191E0
1.061513417E1,-3.767216034E0,-3.830384674E0,1.557960205E0,5.593836197E0
1.062505542E1,-2.388882294E0,-3.552263031E0,2.614463196E0,5.016049148E0
1.063497642E1,-6.267466736E-1,-3.777245178E0,3.424279175E0,5.136738303E0
1.064489742E1,6.384223938E-1,-4.273762665E0,3.600762177E0,5.624777215E0
1.065481842E1,1.394649811E0,-5.116809540E0,3.076701965E0,6.131303527E0
1.066473942E1,1.395697632E0,-5.786666565E0,2.374063110E0,6.408561263E0
1.067466042E1,1.251098328E0,-6.178701324E0,1.417701874E0,6.461538183E0
1.068458142E1,1.090931396E0,-6.239025879E0,2.589614868E-1,6.338977542E0
1.069450242E1,9.045689392E-1,-6.244863739E0,-4.206253052E-1,6.324040934E0
1.070442342E1,5.352868652E-1,-6.247109070E0,-5.923182678E-1,6.297915900E0
1.071434442E1,1.228944397E-1,-6.290967865E0,-6.173162842E-1,6.322377647E0
1.072426542E1,-1.517843628E-1,-6.464008026E0,-5.219645691E-1,6.486823974E0
1.073418642E1,-6.343807983E-1,-6.842271423E0,-2.924917603E-1,6.877838953E0
1.074410742E1,-1.582808533E0,-7.244485016E0,-5.493576050E-2,7.415582508E0
1.075402842E1,-2.711611176E0,-7.659571838E0,4.331991577E-1,8.136924322E0
1.076394942E1,-3.929927673E0,-7.651638336E0,9.782157898E-1,8.657297897E0
1.077387042E1,-5.287604370E0,-7.224127350E0,1.253643036E0,9.039822830E0
1.078379142E1,-6.483168182E0,-6.679709473E0,1.423539734E0,9.416817599E0
1.079371242E1,-7.925868073E0,-6.158493347E0,1.627715149E0,1.016837655E1
1.080363342E1,-9.675280151E0,-5.669011230E0,1.936822357E0,1.137980734E1
1.081355442E1,-1.146450943E1,-5.219346313E0,2.291135559E0,1.280335325E1
1.082347542E1,-1.251637207E1,-4.487518158E0,3.344495087E0,1.371069059E1
1.083339742E1,-1.219005066E1,-3.725602570E0,4.674479370E0,1.357675245E1
1.084331842E1,-1.130868347E1,-3.774999847E0,6.267466736E0,1.346915309E1
1.085323942E1,-1.090871521E1,-5.841452637E0,7.021748199E0,1.422770481E1
1.086316042E1,-1.033301239E1,-7.695946198E0,6.577322388E0,1.446581843E1
1.087308142E1,-8.062982941E0,-8.372539215E0,5.876479797E0,1.302475035E1
1.088300242E1,-5.863007812E0,-8.551267548E0,5.357509003E0,1.167055868E1
1.089292342E1,-4.744234314E0,-8.070916443E0,5.013674011E0,1.061999899E1
1.090284442E1,-5.140460358E0,-7.614216156E0,4.472399597E0,1.021777757E1
1.091276542E1,-7.370971985E0,-9.836494904E0,3.382516022E0,1.274869698E1
1.092268642E1,-1.005953110E1,-1.571761505E1,1.905537415E0,1.875816253E1
1.093260742E1,-1.423809174E1,-2.236439301E1,-1.937421112E0,2.658275628E1
1.094252842E1,-1.474239304E1,-2.727687744E1,-3.714226227E0,3.122757871E1
1.095244942E1,-8.726702728E0,-2.437516159E1,-3.362308044E0,2.610764176E1
1.096237042E1,-3.198548584E0,-1.224139389E1,-3.985013123E0,1.326509582E1
1.097229142E1,-2.035766602E-1,-6.221811676E0,-3.350482635E0,7.069520343E0
1.098221242E1,1.805395660E0,-7.260801086E0,-8.699908447E-1,7.532301772E0
1.099213342E1,-1.320254517E-1,-1.025951523E1,1.326691132E0,1.034578140E1
1.100205442E1,-2.906056824E0,-1.306303528E1,2.536175995E0,1.362058169E1
1.101197542E1,-3.353326721E0,-1.415770889E1,2.674488373E0,1.479318793E1
1.102189642E1,-1.333277435E0,-1.345267502E1,2.622396698E0,1.377058671E1
1.103181742E1,1.693129120E0,-1.207568848E1,2.354603577E0,1.241906182E1
1.104173842E1,3.259322205E0,-1.120839203E1,1.896556091E0,1.182574133E1
1.105165942E1,2.931803284E0,-1.083372116E1,2.909050598E0,1.159428998E1
1.106158142E1,1.709295502E0,-1.039154068E1,3.559148712E0,1.111635499E1
1.107150242E1,3.278182983E-2,-9.504485321E0,3.422632599E0,1.010201612E1
1.108142342E1,-1.495090942E0,-8.561596069E0,2.218985596E0,8.969956592E0
1.109134442E1,-2.076032867E0,-7.935597839E0,9.735754395E-1,8.260234541E0
1.110126542E1,-2.036065979E0,-7.683671722E0,2.174977112E-1,7.951835075E0
1.111118642E1,-1.077010345E0,-7.480394440E0,5.243595886E-1,7.575698333E0
1.112110742E1,-1.420096893E0,-7.265142059E0,6.179150391E-1,7.428376897E0
1.113102842E1,-1.414708099E0,-7.488327942E0,1.308728485E0,7.732349230E0
1.114094942E1,-1.522633667E0,-7.748786316E0,1.872456207E0,8.115922308E0
1.115087042E1,-1.548080750E0,-8.139324188E0,1.959275665E0,8.513748492E0
1.116079142E1,-1.665736084E0,-8.373437347E0,1.626367950E0,8.691041504E0
1.117071242E1,-1.670975189E0,-8.305029602E0,1.531315613E0,8.608751494E0
1.118063342E1,-1.967807922E0,-8.040679321E0,1.344504089E0,8.386446400E0
1.119055442E1,-2.465672607E0,-7.524103546E0,1.053509216E0,7.987587699E0
1.120047542E1,-2.999462585E0,-6.938521271E0,8.304730225E-1,7.604573536E0
1.121039642E1,-3.660338287E0,-6.402635651E0,9.136999512E-1,7.431464678E0
1.122031742E1,-4.157005463E0,-6.092181244E0,1.105002136E0,7.457640139E0
1.123023842E1,-4.190835114E0,-6.050268402E0,1.123264160E0,7.445170855E0
1.124015942E1,-4.006867676E0,-6.227350159E0,1.267414398E0,7.512737040E0
1.125008042E1,-3.956871643E0,-6.642137604E0,1.415755920E0,7.859973917E0
1.126000142E1,-4.068090363E0,-7.003785553E0,1.631157990E0,8.262145463E0
1.126992242E1,-4.279151459E0,-7.152127075E0,1.764979706E0,8.519343418E0
1.127984442E1,-4.424349518E0,-7.661068726E0,1.822011108E0,9.032528281E0
1.128976542E1,-4.580474854E0,-8.263266449E0,2.048190765E0,9.667337157E0
1.129968642E1,-4.446653137E0,-8.897048492E0,2.352657623E0,1.022082159E1
1.130960742E1,-4.277654572E0,-9.428293762E0,2.490670624E0,1.064868499E1
1.131952842E1,-3.874542847E0,-9.655670929E0,2.895279236E0,1.079938448E1
1.132944942E1,-3.656446381E0,-9.444160767E0,3.468137970E0,1.070466037E1
1.133937042E1,-3.196452942E0,-9.098080444E0,4.032165070E0,1.045230761E1
1.134929142E1,-2.839445343E0,-8.793613586E0,4.513114929E0,1.028388526E1
1.135921242E1,-2.889591064E0,-8.746611328E0,4.827461243E0,1.039987155E1
1.136913342E1,-3.084934845E0,-8.504714355E0,4.908742218E0,1.029284895E1
1.137905442E1,-3.294499054E0,-7.816595306E0,4.517455902E0,9.610426319E0
1.138897542E1,-3.477268982E0,-7.116052094E0,3.660038910E0,8.724991793E0
1.139889642E1,-3.317102051E0,-6.798412628E0,2.793490906E0,8.063818681E0
1.140881742E1,-3.008593597E0,-6.989116058E0,2.174378357E0,7.913741211E0
1.141873842E1,-2.938090210E0,-7.738158417E0,1.985770569E0,8.512035862E0
1.142865942E1,-3.303630066E0,-8.684490509E0,2.070943451E0,9.519619414E0
1.143858042E1,-3.583547974E0,-9.311386871E0,2.554438019E0,1.029897544E1
1.144850142E1,-3.703149261E0,-9.679621124E0,3.311862946E0,1.088011102E1
1.145842242E1,-3.732937317E0,-9.468260651E0,4.130959625E0,1.098397051E1
1.146834342E1,-4.282594299E0,-8.504414978E0,4.753215637E0,1.064230929E1
1.147826442E1,-5.977968750E0,-7.132368164E0,4.840484161E0,1.048985571E1
1.148818542E1,-6.989565125E0,-5.927823029E0,4.085603943E0,1.003420480E1
1.149810642E1,-6.649771729E0,-5.836662598E0,2.639610901E0,9.233289773E0
1.150802742E1,-5.638624420E0,-7.291187897E0,1.528321838E0,9.342979928E0
1.151794842E1,-3.978726196E0,-9.485325165E0,1.296304321E0,1.036735552E1
1.152787042E1,-2.177072754E0,-1.158141632E1,5.093907166E-1,1.179526722E1
1.153779142E1,-5.409750366E-1,-1.338651260E1,9.581575012E-1,1.343165811E1
1.154771242E1,1.880090332E-1,-1.484642670E1,1.129850464E0,1.489054382E1
1.155763342E1,8.021818542E-1,-1.706391541E1,4.510121155E-1,1.708871314E1
1.156755442E1,1.459764404E0,-1.976804214E1,8.794212341E-1,1.984136548E1
1.157747542E1,1.128952332E0,-2.214659592E1,1.575024719E0,2.223121560E1
1.158739642E1,1.016536102E0,-2.383733002E1,1.401535492E0,2.390012447E1
1.159731742E1,6.265969849E-1,-2.281959641E1,-1.499880981E-1,2.282869029E1
1.160723842E1,-1.344953156E0,-1.709400284E1,-2.026635590E0,1.726618324E1
1.161715942E1,-8.368946686E0,-1.117980148E1,-3.435805206E0,1.438165454E1
1.162708067E1,-1.087802902E1,-9.447304230E0,-4.440665588E0,1.507655741E1
1.163700167E1,-1.075109299E1,-8.458460541E0,-2.629881134E0,1.393010517E1
1.164692267E1,-1.199380875E1,-7.054080963E0,-1.005908203E0,1.395074757E1
1.165684367E1,-1.096380066E1,-5.340743866E0,-6.795867920E-2,1.219561759E1
1.166676467E1,-1.254047195E1,-3.438948669E0,-1.465302887E0,1.308575246E1
1.167668567E1,-1.050620224E1,-2.950813751E0,-1.635349274E0,1.103457994E1
1.168660667E1,-6.692582703E0,-2.987786865E0,-5.716612244E-1,7.351484893E0
1.169652767E1,-3.834725647E0,-3.882176971E0,4.706213379E-1,5.477034167E0
1.170644867E1,-2.643802185E0,-5.047653351E0,2.001338196E0,6.039358320E0
1.171636967E1,-1.605710907E0,-5.974076843E0,2.929408264E0,6.844657364E0
1.172629067E1,-6.803352356E-1,-6.627318420E0,3.122506714E0,7.357598362E0
1.173621167E1,-2.173480225E-1,-7.037465515E0,2.394121399E0,7.436731696E0
1.174613267E1,-1.437011719E-1,-7.155719604E0,7.107220459E-1,7.192363931E0
1.175605467E1,-1.118474121E0,-6.907086639E0,-6.765930176E-1,7.029694753E0
1.176597567E1,-1.562450867E0,-6.705605621E0,-3.938310242E-1,6.896484781E0
1.177589667E1,-1.194515991E0,-6.699468384E0,7.994874573E-1,6.851928581E0
1.178581767E1,-8.304730225E-1,-6.707701263E0,1.782193909E0,6.989932532E0
1.179573867E1,-7.897576904E-1,-6.889872437E0,2.130669250E0,7.254916323E0
1.180565967E1,-8.699908447E-1,-7.409142609E0,1.813329163E0,7.677267803E0
1.181558067E1,-1.062041473E0,-8.088130646E0,1.163081360E0,8.240057505E0
1.182550167E1,-1.430874481E0,-8.626860352E0,7.327262878E-1,8.775363760E0
1.183542267E1,-1.736389160E0,-8.768465881E0,5.080435181E-1,8.953164214E0
1.184534367E1,-2.000140686E0,-8.455766144E0,5.287005615E-1,8.705174790E0
1.185526467E1,-2.435136108E0,-7.573949890E0,5.373825073E-1,7.973919034E0
1.186518567E1,-3.169958038E0,-6.732250214E0,9.599537659E-1,7.502888653E0
1.187510667E1,-3.814218292E0,-6.236630859E0,1.504072266E0,7.463649177E0
1.188502767E1,-4.512665863E0,-5.980663147E0,1.621128845E0,7.665542616E0
1.189494867E1,-5.638624420E0,-5.825286255E0,1.409618683E0,8.228916705E0
1.190486967E1,-7.142996063E0,-5.595813446E0,1.257834320E0,9.160658713E0
1.191479067E1,-8.909322968E0,-5.274731140E0,1.424288177E0,1.045119233E1
1.192471167E1,-1.027463379E1,-4.842280426E0,2.461780701E0,1.162222627E1
1.193463267E1,-1.018407211E1,-4.651427307E0,4.654720459E0,1.212507828E1
1.194455367E1,-9.404942322E0,-5.234165497E0,6.796466675E0,1.272954782E1
1.195447467E1,-9.280101929E0,-7.091952209E0,8.595575409E0,1.450172385E1
1.196439567E1,-9.865534515E0,-9.025930481E0,8.868907013E0,1.604536394E1
1.197431667E1,-9.229806519E0,-9.219178619E0,7.181016998E0,1.489125878E1
1.198423767E1,-7.627388763E0,-8.241860962E0,5.746400299E0,1.261453320E1
1.199415867E1,-6.816225586E0,-7.088659058E0,5.852230225E0,1.144371518E1
1.200408067E1,-7.718698883E0,-6.785240021E0,5.045408020E0,1.144875263E1
1.201400167E1,-1.109417953E1,-1.097068634E1,2.486030273E0,1.579927609E1
1.202392267E1,-1.497680557E1,-1.731554214E1,-3.532653809E-2,2.289397198E1
1.203384367E1,-1.759740601E1,-2.345322876E1,-3.413800964E0,2.951909000E1
1.204376467E1,-1.537123535E1,-2.744183441E1,-6.143973541E0,3.204805085E1
1.205368567E1,-5.193150787E0,-1.793031372E1,-5.118456116E0,1.935622789E1
1.206360667E1,1.979034576E0,-4.736001434E0,-3.689527588E0,6.321305345E0
1.207352767E1,4.236939240E0,-8.351133728E-1,-1.104104004E0,4.457366276E0
1.208344867E1,3.426524506E0,-2.997366943E0,3.017275543E0,5.461614275E0
1.209336967E1,4.950205994E-1,-6.696474609E0,4.407434692E0,8.032017066E0
1.210329067E1,-1.788780212E0,-1.033346146E1,3.373834076E0,1.101648386E1
1.211321167E1,-3.952830048E0,-1.487396942E1,2.461331635E0,1.558582642E1
1.212313267E1,-4.409081268E0,-1.769485336E1,1.010099487E0,1.826384774E1
1.213305367E1,-3.209475861E0,-1.720342529E1,1.110690308E-1,1.750059752E1
1.214297467E1,-5.120851135E-1,-1.506392441E1,-3.929328918E-1,1.507774671E1
1.215289567E1,6.506968689E-1,-1.348021774E1,-2.490820312E-1,1.349821168E1
1.216281667E1,-1.089733887E-1,-1.230665817E1,4.297563171E-1,1.231464174E1
1.217273767E1,-4.785548401E-1,-1.092907288E1,4.153862000E-1,1.094742866E1
1.218265867E1,-9.448352051E-1,-9.552685089E0,8.134085083E-1,9.633698115E0
1.219257967E1,-1.124012604E0,-8.539891205E0,1.651815033E0,8.770498220E0
1.220250067E1,-1.292562103E0,-8.071066132E0,2.214944000E0,8.468695426E0
1.221242167E1,-1.268162842E0,-7.756420441E0,2.388283539E0,8.214267667E0
1.222234267E1,-1.197060699E0,-7.494016113E0,2.432292023E0,7.969270751E0
1.223226367E1,-1.109043732E0,-7.376211090E0,2.118095398E0,7.754018065E0
1.224218467E1,-9.463320923E-1,-7.372618561E0,2.268831940E0,7.771656660E0
1.225210667E1,-9.282197571E-1,-7.461533661E0,2.311044159E0,7.866193590E0
1.226202767E1,-1.202299805E0,-7.787555695E0,1.735191650E0,8.068608218E0
1.227194867E1,-1.582509155E0,-7.769892426E0,1.255888367E0,8.028251311E0
1.228186967E1,-1.554068298E0,-7.530091095E0,1.432521057E0,7.821094345E0
1.229179067E1,-1.875899048E0,-7.101232910E0,1.445244598E0,7.485668843E0
1.230171167E1,-2.224075012E0,-6.692882080E0,1.000369720E0,7.123336281E0
1.231163267E1,-2.441123657E0,-6.506819000E0,5.321434021E-1,6.970003932E0
1.232155367E1,-2.691702576E0,-6.418652344E0,3.683839417E-1,6.969940272E0
1.233147467E1,-2.995420990E0,-6.433321838E0,4.465214539E-1,7.110524467E0
1.234139567E1,-3.616928558E0,-6.567891998E0,7.945477295E-1,7.539939230E0
1.235131667E1,-4.259542236E0,-6.798712006E0,9.846524048E-1,8.083051735E0
1.236123767E1,-4.722230072E0,-6.957980804E0,1.216071167E0,8.496574769E0
1.237115867E1,-5.257067871E0,-6.888974304E0,1.693129120E0,8.829576195E0
1.238107967E1,-5.687123566E0,-6.786587219E0,1.952389984E0,9.067136659E0
1.239100067E1,-6.100414124E0,-6.849157104E0,2.095941467E0,9.408452378E0
1.240092167E1,-6.185736694E0,-7.170838165E0,2.315534821E0,9.749151755E0
1.241084267E1,-6.133046265E0,-7.733967133E0,2.450554047E0,1.017023693E1
1.242076367E1,-5.847290497E0,-8.076604614E0,2.562970276E0,1.029520106E1
1.243068467E1,-5.314997406E0,-8.624615021E0,2.673440552E0,1.047761738E1
1.244060567E1,-4.890031128E0,-8.969348145E0,2.709964600E0,1.056908315E1
1.245052667E1,-4.600982208E0,-8.902137909E0,2.750679932E0,1.039150310E1
1.246044767E1,-4.260140991E0,-8.508157196E0,2.590662689E0,9.861494476E0
1.247036867E1,-3.926185455E0,-7.547904053E0,2.361040192E0,8.829512931E0
1.248028967E1,-3.482508087E0,-6.837032318E0,2.376607819E0,8.032505102E0
1.249021067E1,-3.225193176E0,-7.006629639E0,2.696941681E0,8.171182555E0
1.250013267E1,-2.997516632E0,-7.703730011E0,3.230581970E0,8.875202640E0
1.251005367E1,-2.712808685E0,-8.866811371E0,3.828887787E0,1.003195178E1
1.251997467E1,-2.482587433E0,-1.013602203E1,4.644242249E0,1.142239769E1
1.252989567E1,-1.970652008E0,-1.112770981E1,5.592220917E0,1.260881952E1
1.253981667E1,-1.356329498E0,-1.135239258E1,6.142476654E0,1.297869278E1
1.254973767E1,-1.336271210E0,-1.065065186E1,5.934259644E0,1.226529426E1
1.255965867E1,-2.010469208E0,-9.253906403E0,5.237009583E0,1.082141578E1
1.256957967E1,-3.288511505E0,-7.885601807E0,4.254602509E0,9.544562131E0
1.257950067E1,-4.526437225E0,-6.843319244E0,3.043022003E0,8.750979096E0
1.258942167E1,-5.235512695E0,-6.757098541E0,1.779948578E0,8.731391116E0
1.259934267E1,-5.918242950E0,-7.995922394E0,9.879455566E-1,9.996820043E0
1.260926367E1,-5.290598145E0,-9.949360199E0,1.275497589E0,1.134050666E1
1.261918467E1,-3.871399384E0,-1.156001083E1,1.302740936E0,1.226045340E1
1.262910492E1,-2.578088837E0,-1.270228546E1,4.513114929E-1,1.296912796E1
1.263902592E1,-1.627864838E0,-1.335417984E1,9.666897583E-1,1.348771857E1
1.264894692E1,-1.154848480E0,-1.397209488E1,9.345066833E-1,1.405085097E1
1.265886792E1,-1.220561829E0,-1.428509399E1,2.395019531E-1,1.433914373E1
1.266878892E1,-9.385482788E-1,-1.527244080E1,1.989363098E-1,1.530254542E1
1.267870992E1,-1.004710693E0,-1.668774765E1,6.758445740E-1,1.673162070E1
1.268863092E1,-1.120120697E0,-1.823882217E1,5.975573730E-1,1.828295325E1
1.269855192E1,-1.855691071E0,-1.826411957E1,2.531236267E-1,1.835989446E1
1.270847292E1,-4.354744263E0,-1.630289795E1,-3.306623840E-1,1.687772546E1
1.271839392E1,-7.883356476E0,-1.386806122E1,-1.584604797E0,1.603063953E1
1.272831492E1,-1.055604858E1,-1.133263367E1,-2.671195221E0,1.571604376E1
1.273823592E1,-1.112306946E1,-9.339977417E0,-2.817441101E0,1.479512848E1
1.274815792E1,-1.073896820E1,-8.277935944E0,-2.423610077E0,1.377401711E1
1.275807892E1,-1.006896149E1,-7.307803345E0,-1.603914642E0,1.254434204E1
1.276799992E1,-8.711733856E0,-6.460565186E0,-1.280736694E0,1.092124058E1
1.277792092E1,-6.380032654E0,-5.537883911E0,-6.706054688E-1,8.474826640E0
1.278784192E1,-4.620142365E0,-4.664001160E0,-1.336720276E-1,6.566314834E0
1.279776292E1,-3.376977539E0,-4.416715393E0,3.909869385E-1,5.573528770E0
1.280768392E1,-2.284848633E0,-4.518503723E0,8.415499878E-1,5.132798024E0
1.281760492E1,-1.086141357E0,-5.190306702E0,1.348096619E0,5.471412176E0
1.282752592E1,-7.574249268E-2,-6.097120972E0,1.467548218E0,6.271707809E0
1.283744692E1,5.388793945E-2,-6.712790680E0,1.034798126E0,6.792294884E0
1.284736792E1,-5.216651917E-1,-6.988966370E0,1.423539734E-1,7.009853789E0
1.285728892E1,-1.091380463E0,-7.047794037E0,-3.969744873E-1,7.142835630E0
1.286720992E1,-1.502126312E0,-7.045997772E0,-1.712438965E-1,7.206371662E0
1.287713092E1,-1.204844513E0,-7.132068787E0,7.518864441E-1,7.272096582E0
1.288705192E1,-6.855743408E-1,-7.201374664E0,1.745220795E0,7.441478674E0
1.289697292E1,-4.878355408E-1,-7.205416260E0,2.170636139E0,7.541065458E0
1.290689392E1,-6.048921204E-1,-6.964417419E0,1.970053253E0,7.262927391E0
1.291681492E1,-8.541238403E-1,-6.790179749E0,1.305285645E0,6.967053837E0
1.292673592E1,-1.122366028E0,-6.821913757E0,6.429130554E-1,6.943453752E0
1.293665692E1,-1.299148407E0,-6.840774536E0,5.126838684E-1,6.981892837E0
1.294657792E1,-1.569336548E0,-6.743925934E0,8.105644226E-1,6.971396480E0
1.295649892E1,-2.230960693E0,-6.417155457E0,1.389111328E0,6.934457445E0
1.296641992E1,-3.227288818E0,-5.944438477E0,1.907633057E0,7.027859261E0
1.297634092E1,-4.361330566E0,-5.524561615E0,2.117197266E0,7.350136707E0
1.298626192E1,-5.664071503E0,-5.248385925E0,1.923649750E0,7.957869638E0
1.299618292E1,-7.209906921E0,-5.329367523E0,1.753453674E0,9.135617976E0
1.300610392E1,-9.062155151E0,-5.619613953E0,1.695823517E0,1.079715399E1
1.301602492E1,-1.081336349E1,-5.686674500E0,2.545307007E0,1.247981108E1
1.302594692E1,-1.207838287E1,-5.508993988E0,4.076173553E0,1.388709971E1
1.303586792E1,-1.205563019E1,-5.154531097E0,5.631289673E0,1.426950712E1
1.304578892E1,-1.200308945E1,-5.925278320E0,7.161108398E0,1.518105902E1
1.305570992E1,-1.243329483E1,-7.899073792E0,7.112160187E0,1.635741452E1
1.306563092E1,-1.156914185E1,-8.558901672E0,6.095624084E0,1.562870672E1
1.307555192E1,-9.759405212E0,-8.301287384E0,5.349874878E0,1.388447059E1
1.308547292E1,-8.235723724E0,-8.090226288E0,5.347330170E0,1.272292602E1
1.309539392E1,-7.718998260E0,-7.795788574E0,5.242548065E0,1.215901163E1
1.310531492E1,-9.266929321E0,-8.717422028E0,3.484753418E0,1.319139614E1
1.311523592E1,-1.213975525E1,-1.378917526E1,1.402134247E0,1.842500997E1
1.312515692E1,-1.534773422E1,-2.014196457E1,-1.029259644E0,2.534385641E1
1.313507792E1,-1.695973206E1,-2.484787857E1,-3.961362305E0,3.034373036E1
1.314499892E1,-1.421578812E1,-2.579346222E1,-5.674699402E0,2.999322487E1
1.315491992E1,-3.359463959E0,-1.700703369E1,-5.707032166E0,1.825090160E1
1.316484092E1,3.590882721E0,-6.121520233E0,-1.355581055E0,7.225306130E0
1.317476192E1,3.752696228E0,-2.728975067E0,2.615660706E0,5.326510567E0
1.318468292E1,3.088976440E0,-3.645070038E0,4.234843597E0,6.384529061E0
1.319460392E1,6.917115784E-1,-4.264481964E0,4.909340973E0,6.539564215E0
1.320452492E1,-2.351759491E0,-6.878795471E0,3.272494812E0,7.972315983E0
1.321444592E1,-4.543950806E0,-1.207838287E1,1.567989349E0,1.299974663E1
1.322436692E1,-4.645888824E0,-1.551852905E1,-1.601669312E-2,1.619905193E1
1.323428792E1,-2.690056000E0,-1.503952515E1,-9.148974609E-1,1.530557922E1
1.324420892E1,1.978884888E-1,-1.344653778E1,-5.126838684E-1,1.345776292E1
1.325412992E1,1.294508057E0,-1.261381943E1,2.844085693E-2,1.268010254E1
1.326405092E1,6.429130554E-1,-1.182555862E1,9.172924805E-1,1.187849315E1
1.327397192E1,-5.092410278E-1,-1.028795609E1,1.699266357E0,1.043977361E1
1.328389292E1,-8.105644226E-1,-8.530610504E0,2.489922180E0,8.923454640E0
1.329381492E1,-2.001936951E0,-6.896608429E0,2.168540497E0,7.501568320E0
1.330373592E1,-2.399809570E0,-5.766308899E0,1.840871887E0,6.511391065E0
1.331365692E1,-2.440524902E0,-5.549110565E0,1.826950836E0,6.331393150E0
1.332357792E1,-2.332299957E0,-5.663472748E0,1.766476593E0,6.374557727E0
1.333349892E1,-2.263892212E0,-6.006858673E0,1.867815857E0,6.685528785E0
1.334341992E1,-2.341880035E0,-6.675218811E0,1.829645233E0,7.306883738E0
1.335334092E1,-2.211950226E0,-7.432943115E0,1.214723969E0,7.849644672E0
1.336326192E1,-2.241438904E0,-8.332272949E0,1.249302063E0,8.718461820E0
1.337318292E1,-2.629581757E0,-8.757089539E0,1.604812775E0,9.283142865E0
1.338310392E1,-3.165167999E0,-8.590186615E0,1.565893707E0,9.287713263E0
1.339302492E1,-3.678750000E0,-7.814499664E0,1.777553558E0,8.818123566E0
1.340294592E1,-3.936214600E0,-7.045997772E0,1.810335388E0,8.271468080E0
1.341286692E1,-3.971840515E0,-6.600823517E0,1.368154907E0,7.824208332E0
1.342278792E1,-4.246070251E0,-6.558012543E0,8.732839966E-1,7.861250920E0
1.343270892E1,-4.420906677E0,-6.792125702E0,7.098239136E-1,8.135185148E0
1.344262992E1,-4.447401581E0,-7.042255554E0,8.785231018E-1,8.375234143E0
1.345255092E1,-4.776567078E0,-7.057374115E0,1.488654327E0,8.650908285E0
1.346247192E1,-5.075345764E0,-7.183561707E0,1.663939819E0,8.951613773E0
1.347239292E1,-5.250780945E0,-7.394323425E0,1.694476318E0,9.225940030E0
1.348231392E1,-5.322332153E0,-7.421566772E0,1.835932159E0,9.315445228E0
1.349223492E1,-5.026397552E0,-7.802075500E0,1.992356873E0,9.492446491E0
1.350215592E1,-4.683610382E0,-8.321345673E0,2.087858276E0,9.774464292E0
1.351207692E1,-4.410129089E0,-8.754395142E0,2.144590302E0,1.003433807E1
1.352199792E1,-4.055516510E0,-9.107211456E0,2.295326843E0,1.023020234E1
1.353191892E1,-3.685635681E0,-9.323661346E0,2.509531403E0,1.033500455E1
1.354183992E1,-3.315754852E0,-9.309440918E0,2.862497406E0,1.028852817E1
1.355176092E1,-3.040177917E0,-9.107361145E0,3.365002441E0,1.017398399E1
1.356168192E1,-2.928959198E0,-8.853040009E0,3.810625763E0,1.007352908E1
1.357160392E1,-2.877166901E0,-8.392597504E0,4.038751373E0,9.748091859E0
1.358152492E1,-2.863245850E0,-7.567513275E0,3.902534637E0,8.983051295E0
1.359144592E1,-2.761457520E0,-6.811734924E0,3.346141663E0,8.076016613E0
1.360136692E1,-2.574945374E0,-6.652915192E0,2.562970276E0,7.580266543E0
1.361128792E1,-2.346071320E0,-7.301366730E0,2.157313843E0,7.966681227E0
1.362120892E1,-2.684667206E0,-8.446036377E0,2.307451630E0,9.157909232E0
1.363113029E1,-3.256328430E0,-9.503587189E0,3.227139130E0,1.055160041E1
1.364105129E1,-3.345991974E0,-9.976004791E0,4.775668945E0,1.155523032E1
1.365097229E1,-3.181035004E0,-9.616602173E0,5.796546021E0,1.167038846E1
1.366089329E1,-3.081042938E0,-8.513995056E0,5.889053650E0,1.080101339E1
1.367081429E1,-4.173770599E0,-7.272476807E0,5.397475891E0,9.972062270E0
1.368073529E1,-5.768853607E0,-6.721772003E0,4.361031189E0,9.873220540E0
1.369065629E1,-6.743476868E0,-7.017407227E0,3.058290253E0,1.020155006E1
1.370057729E1,-6.529421997E0,-8.069718933E0,2.480940857E0,1.067280576E1
1.371049829E1,-5.714965668E0,-9.748927002E0,1.992207184E0,1.147481153E1
1.372041929E1,-4.992567902E0,-1.130763565E1,-1.450483704E-1,1.236160982E1
1.373034029E1,-3.718567200E0,-1.188528442E1,3.299139404E-1,1.245779158E1
1.374026129E1,-2.756817169E0,-1.228645020E1,4.254153442E-1,1.259912209E1
1.375018229E1,-2.559377747E0,-1.333097809E1,-8.539741516E-1,1.360127432E1
1.376010329E1,-2.688858490E0,-1.457608887E1,-1.089434509E0,1.486200505E1
1.377002429E1,-3.147205353E0,-1.672846298E1,-3.049159241E-1,1.702466884E1
1.377994529E1,-4.523892517E0,-1.928903824E1,7.065307617E-2,1.981256146E1
1.378986629E1,-5.743855591E0,-1.944112198E1,-7.369175720E-1,2.028526925E1
1.379978729E1,-5.102738800E0,-1.829465607E1,-1.166973267E0,1.902877323E1
1.380970829E1,-5.651048584E0,-1.600965775E1,-1.475631409E0,1.704174226E1
1.381962929E1,-7.266040192E0,-1.285616547E1,-2.596949615E0,1.499401473E1
1.382955029E1,-7.427554321E0,-1.006117767E1,-2.850671997E0,1.282662037E1
1.383947129E1,-6.418053589E0,-8.769813080E0,-1.228195953E0,1.093661276E1
1.384939229E1,-6.327491913E0,-7.548053741E0,-5.538482666E-1,9.864938778E0
1.385931429E1,-7.253765717E0,-6.707850952E0,-7.547305298E-1,9.908683043E0
1.386923529E1,-6.971901855E0,-6.136189728E0,-7.682025146E-1,9.319354858E0
1.387915629E1,-5.656138000E0,-5.298381958E0,-1.417552185E-1,7.751441350E0
1.388907729E1,-5.108426971E0,-4.149221649E0,5.412744141E-1,6.603411573E0
1.389899829E1,-5.285209351E0,-3.176843719E0,1.616638184E-1,6.168622949E0
1.390891929E1,-5.053042145E0,-2.907703400E0,2.709365845E-2,5.829983537E0
1.391884029E1,-3.750301208E0,-3.631298676E0,9.883946228E-1,5.313004155E0
1.392876129E1,-2.523602142E0,-4.688250732E0,1.043929138E0,5.425684358E0
1.393868229E1,-1.969454498E0,-5.444777527E0,1.115929413E0,5.896579669E0
1.394860329E1,-1.620530090E0,-5.955216064E0,1.287622375E0,6.304656020E0
1.395852429E1,-1.520088959E0,-6.329737244E0,1.448687439E0,6.668953390E0
1.396844529E1,-1.632355499E0,-6.735543365E0,1.659299469E0,7.126387839E0
1.397836629E1,-1.783541107E0,-7.045099640E0,1.809287567E0,7.489190164E0
1.398828729E1,-1.965412903E0,-7.286397858E0,1.824106750E0,7.764135950E0
1.399820829E1,-1.998793488E0,-7.530689850E0,1.629212036E0,7.959949553E0
1.400812929E1,-1.956281891E0,-7.632627869E0,1.222956848E0,7.973686128E0
1.401805029E1,-2.083367615E0,-7.443121948E0,8.358618164E-1,7.774262018E0
1.402797129E1,-2.154469757E0,-7.194339294E0,6.668632507E-1,7.539559961E0
1.403789229E1,-2.029779053E0,-7.165898438E0,6.706054688E-1,7.477955276E0
1.404781329E1,-2.008672943E0,-6.989116058E0,1.118324432E0,7.357524027E0
1.405773429E1,-2.383792877E0,-6.743027802E0,1.720222778E0,7.355953971E0
1.406765529E1,-3.110531616E0,-6.456074524E0,2.078128510E0,7.461563060E0
1.407757629E1,-4.062402191E0,-6.021079102E0,2.375110931E0,7.641835974E0
1.408749729E1,-5.194348297E0,-5.799240417E0,2.354304199E0,8.133584198E0
1.409741829E1,-6.447242889E0,-5.763913879E0,2.020198975E0,8.880926077E0
1.410733929E1,-7.831564178E0,-5.802383881E0,1.732048187E0,9.899547823E0
1.411726029E1,-9.580826569E0,-5.738766174E0,2.147883453E0,1.137273398E1
1.412718129E1,-1.137798935E1,-5.410947876E0,3.192710724E0,1.299732281E1
1.413710229E1,-1.286709274E1,-4.895868988E0,4.025429077E0,1.434348940E1
1.414702329E1,-1.398766251E1,-4.670886841E0,5.539530487E0,1.575304048E1
1.415694429E1,-1.466141144E1,-6.629863129E0,7.433841248E0,1.772495603E1
1.416686629E1,-1.442864548E1,-7.932005310E0,7.929610291E0,1.827515357E1
1.417678729E1,-1.065184937E1,-7.770341492E0,6.969357147E0,1.491348520E1
1.418670829E1,-7.298672333E0,-7.891289978E0,6.360124054E0,1.248976594E1
1.419662929E1,-5.946384430E0,-7.414830780E0,5.868695984E0,1.117053248E1
1.420655029E1,-6.580765228E0,-7.251520386E0,3.515738983E0,1.040439520E1
1.421647129E1,-9.479187927E0,-1.082698517E1,8.988807678E-1,1.441827307E1
1.422639229E1,-1.157003998E1,-1.759546005E1,-1.897753601E0,2.114397097E1
1.423631329E1,-1.134984787E1,-2.248144958E1,-5.584886169E0,2.579584415E1
1.424623429E1,-8.668623505E0,-2.325923218E1,-5.502108307E0,2.542459657E1
1.425615529E1,-5.803731079E0,-1.806533295E1,-2.246079254E0,1.910718244E1
1.426607629E1,-3.540737000E0,-9.148375854E0,-6.054908752E-1,9.828337523E0
1.427599729E1,-2.059567108E0,-5.658682709E0,1.039288788E0,6.110861466E0
1.428591829E1,-8.065228271E-1,-7.073540497E0,3.643573151E0,7.997567101E0
1.429583929E1,-2.088307343E0,-9.364825745E0,4.638554077E0,1.065725916E1
1.430576029E1,-3.584895172E0,-1.159848083E1,4.073628845E0,1.280510379E1
1.431568129E1,-4.230053558E0,-1.305929306E1,2.141895905E0,1.389338715E1
1.432560229E1,-3.535497894E0,-1.308069855E1,-1.469943237E-1,1.355086813E1
1.433552329E1,-1.744472351E0,-1.200249069E1,-1.499132538E0,1.222089870E1
1.434544429E1,4.025129700E-1,-1.117920273E1,-1.458566895E0,1.128113504E1
1.435536529E1,1.212628326E0,-1.083087708E1,-3.686833191E-1,1.090478304E1
1.436528629E1,2.603086853E-1,-1.021745270E1,1.135538635E0,1.028365442E1
1.437520729E1,-2.647993469E-1,-9.416767731E0,3.086132355E0,9.913114854E0
1.438512829E1,-6.697073364E-1,-8.771010590E0,2.946622467E0,9.276945545E0
1.439504929E1,-1.573976898E0,-8.247848511E0,2.491269379E0,8.758471981E0
1.440497029E1,-2.524949341E0,-7.800728302E0,1.667682037E0,8.367072044E0
1.441489129E1,-3.123853912E0,-7.277865601E0,1.011895752E0,7.984342426E0
1.442481229E1,-3.461252289E0,-6.710545349E0,1.206640778E0,7.646415386E0
1.443473329E1,-3.136278076E0,-6.508465576E0,1.676214294E0,7.416606953E0
1.444465429E1,-2.414329376E0,-6.499783630E0,1.884431305E0,7.185210847E0
1.445457529E1,-2.127825165E0,-6.584058380E0,1.493144989E0,7.078626042E0
1.446449629E1,-2.185605011E0,-6.723717957E0,1.269060974E0,7.183019433E0
1.447441729E1,-2.859653320E0,-6.673871613E0,1.319356384E0,7.379626053E0
1.448433929E1,-2.976859589E0,-6.433770905E0,1.427431641E0,7.231366548E0
1.449426029E1,-2.733765106E0,-6.292315063E0,1.684297485E0,7.064245079E0
1.450418129E1,-3.335663452E0,-6.351891174E0,1.480571136E0,7.325657858E0
1.451410229E1,-3.709885254E0,-6.473588104E0,8.663983154E-1,7.511407164E0
1.452402329E1,-3.638334045E0,-6.661896515E0,6.921606445E-1,7.622166763E0
1.453394429E1,-3.667074280E0,-7.008725281E0,1.000818787E0,7.973161360E0
1.454386529E1,-3.683240662E0,-7.529642029E0,1.174008636E0,8.464045554E0
1.455378629E1,-3.826642456E0,-8.087980957E0,1.419198761E0,9.059401391E0
1.456370729E1,-4.251908112E0,-8.807384949E0,1.643881531E0,9.917212245E0
1.457362829E1,-4.507277069E0,-8.886121216E0,1.906136169E0,1.014455775E1
1.458354929E1,-4.567901001E0,-8.503516846E0,2.107916565E0,9.880224215E0
1.459347029E1,-4.320465546E0,-8.352480927E0,2.343526611E0,9.691360954E0
1.460339129E1,-4.424948273E0,-7.903863831E0,2.440674591E0,9.381264474E0
1.461331229E1,-4.383783875E0,-7.754175110E0,2.528242493E0,9.259416979E0
1.462323329E1,-4.326453094E0,-7.690557404E0,2.610271912E0,9.201977451E0
1.463315479E1,-4.445156250E0,-7.783214722E0,2.745740204E0,9.374269825E0
1.464307579E1,-4.710254974E0,-7.713908844E0,2.952011261E0,9.508168176E0
1.465299679E1,-5.025050354E0,-7.230863342E0,2.962938538E0,9.290614647E0
1.466291779E1,-5.153782654E0,-6.666237488E0,2.831062775E0,8.889044624E0
1.467283879E1,-4.909790039E0,-6.168073425E0,2.766846313E0,8.355034801E0
1.468275979E1,-4.192332001E0,-6.483317871E0,3.050356750E0,8.301429668E0
1.469268079E1,-3.351231079E0,-7.565717010E0,3.472478943E0,8.973791486E0
1.470260179E1,-3.121758270E0,-8.893156586E0,3.915407867E0,1.020607797E1
1.471252279E1,-3.313958588E0,-1.034798126E1,4.518054657E0,1.176757645E1
1.472244379E1,-3.608396301E0,-1.106678650E1,5.239853668E0,1.276520089E1
1.473236479E1,-3.758234711E0,-1.070903046E1,5.662125549E0,1.268334842E1
1.474228579E1,-4.091441803E0,-9.635462952E0,5.572162628E0,1.185879584E1
1.475220679E1,-5.311853943E0,-8.279432831E0,5.193450165E0,1.112370104E1
1.476212779E1,-7.059769135E0,-7.306605835E0,4.286486206E0,1.102727496E1
1.477204879E1,-7.742050323E0,-6.738387451E0,2.785707092E0,1.063510097E1
1.478196979E1,-7.550448761E0,-6.852300568E0,1.373244324E0,1.028829916E1
1.479189079E1,-6.476132812E0,-7.771988068E0,1.352736969E0,1.020656612E1
1.480181279E1,-5.251978455E0,-9.701775055E0,3.373983765E-1,1.103728022E1
1.481173379E1,-3.904929657E0,-1.177795761E1,-1.784289551E-1,1.240969774E1
1.482165479E1,-3.036435699E0,-1.359757370E1,1.444496155E0,1.400715965E1
1.483157579E1,-2.290836182E0,-1.527333893E1,1.362466736E0,1.550416486E1
1.484149679E1,-1.595831451E0,-1.720956253E1,3.594026184E-1,1.728713078E1
1.485141779E1,-1.212628326E0,-1.953662338E1,-8.427474976E-2,1.957440224E1
1.486133879E1,-1.328188019E0,-2.166370010E1,-9.681866455E-1,2.172596076E1
1.487125979E1,-1.410666504E0,-2.131881729E1,-2.335593109E0,2.149271844E1
1.488118079E1,-2.513273621E0,-1.879506546E1,-2.164947968E0,1.908554504E1
1.489110179E1,-4.418212280E0,-1.528621216E1,-1.308728485E0,1.596563973E1
1.490102279E1,-5.715564423E0,-1.220412140E1,-1.343156891E0,1.354298070E1
1.491094379E1,-6.467301178E0,-9.815239105E0,-1.145118713E0,1.181000424E1
1.492086479E1,-8.150401154E0,-8.205336914E0,-6.607260132E-1,1.158417678E1
1.493078579E1,-9.643995209E0,-7.177274780E0,-1.224453735E-1,1.202226725E1
1.494070679E1,-9.952353973E0,-5.890700226E0,4.375401306E-1,1.157329426E1
1.495062779E1,-9.539213104E0,-4.784799957E0,5.545967102E-1,1.068636864E1
1.496054879E1,-8.510701904E0,-3.888314209E0,-5.551954651E-1,9.373327920E0
1.497046979E1,-7.274123383E0,-2.911894684E0,-9.392967224E-1,7.891405449E0
1.498039079E1,-5.322032776E0,-2.452350311E0,-2.887495422E-1,5.866978031E0
1.499031179E1,-3.694617004E0,-2.761307831E0,-2.426454163E-1,4.618862689E0
1.500023279E1,-2.528691559E0,-3.603606262E0,-2.514770508E-1,4.409478405E0
1.501015379E1,-1.843566284E0,-4.445455627E0,-4.887336731E-1,4.837320848E0
1.502007479E1,-1.131946106E0,-5.188211060E0,-2.204914856E-1,5.314833251E0
1.502999579E1,-2.880010986E-1,-5.937852173E0,1.410067749E-1,5.946504517E0
1.503991679E1,3.532653809E-1,-6.700216827E0,5.107379150E-1,6.728934179E0
1.504983779E1,6.957531738E-1,-7.277416534E0,9.439370728E-1,7.371287614E0
1.505975879E1,7.288343811E-1,-7.633825378E0,1.553918610E0,7.824394706E0
1.506967979E1,4.505630493E-1,-7.924221497E0,2.301913147E0,8.264084797E0
1.507960079E1,1.404080200E-1,-8.005652161E0,2.721640320E0,8.456802408E0
1.508952179E1,-7.873626709E-2,-7.971223755E0,2.421364746E0,8.331243292E0
1.509944279E1,-3.739224243E-1,-7.609276428E0,1.609453125E0,7.786606777E0
1.510936379E1,-8.530760193E-1,-7.100334778E0,9.325607300E-1,7.211945796E0
1.511928479E1,-1.504970398E0,-6.831793213E0,8.406518555E-1,7.045922931E0
1.512920579E1,-2.282154236E0,-6.672225037E0,1.417851562E0,7.192851865E0
1.513912679E1,-3.360062714E0,-6.499334564E0,2.276316376E0,7.662440046E0
1.514904879E1,-4.584666138E0,-6.237828369E0,2.309098206E0,8.078465255E0
1.515896979E1,-5.759572906E0,-6.014492798E0,2.261347504E0,8.629049554E0
1.516889079E1,-6.926845551E0,-5.911207581E0,2.431842957E0,9.425360710E0
1.517881179E1,-8.204438782E0,-6.002368011E0,2.518662415E0,1.047305580E1
1.518873279E1,-9.442364502E0,-6.064788208E0,2.823728027E0,1.157209330E1
1.519865379E1,-1.035262161E1,-5.724845123E0,4.140240326E0,1.253364336E1
1.520857479E1,-1.093266541E1,-5.417833557E0,4.639152832E0,1.305365207E1
1.521849579E1,-1.252879623E1,-5.312003632E0,4.405488739E0,1.430372150E1
1.522841679E1,-1.442625046E1,-6.516548767E0,5.140310669E0,1.664346430E1
1.523833779E1,-1.460363159E1,-8.725355530E0,5.988746338E0,1.803504831E1
1.524825879E1,-1.294792465E1,-8.933123474E0,6.406228180E0,1.698497004E1
1.525817979E1,-9.720037079E0,-7.621401215E0,6.580465851E0,1.399526377E1
1.526810079E1,-7.176676025E0,-6.311026154E0,7.170538788E0,1.194781806E1
1.527802179E1,-6.869365082E0,-4.765490112E0,6.617139587E0,1.066229848E1
1.528794279E1,-8.790320435E0,-5.082979889E0,2.760409698E0,1.052265554E1
1.529786379E1,-1.187405777E1,-9.732012177E0,-8.363108826E-1,1.537545852E1
1.530778479E1,-1.537752228E1,-1.699356171E1,-3.280727692E0,2.315194387E1
1.531770579E1,-1.773437119E1,-2.398821625E1,-6.051615601E0,3.043952187E1
1.532762679E1,-1.336390961E1,-2.805031906E1,-6.184838562E0,3.168069929E1
1.533754779E1,-4.415218506E0,-2.001158569E1,-5.567522278E0,2.123570156E1
1.534746879E1,9.262738037E-1,-7.840246124E0,-5.012476501E0,9.351596822E0
1.535738979E1,2.378254395E0,-4.441863098E0,6.177653503E-1,5.076206829E0
1.536731079E1,2.306403809E0,-6.301595764E0,6.102360077E0,9.070193284E0
1.537723179E1,-8.704399109E-1,-9.465416565E0,7.422464905E0,1.206004816E1
1.538715279E1,-2.890339508E0,-1.262220200E1,4.534071350E0,1.371976125E1
1.539707379E1,-3.164120178E0,-1.325807968E1,1.992955627E0,1.377534774E1
1.540699479E1,-9.985734558E-1,-1.259391083E1,3.841012573E-1,1.263927501E1
1.541691579E1,2.235002289E0,-1.207823318E1,1.316661987E0,1.235364525E1
1.542683679E1,4.306694183E0,-1.187256088E1,3.296594696E0,1.305269525E1
1.543675779E1,2.505789185E0,-1.132604736E1,2.894979858E0,1.195571983E1
1.544667879E1,-3.760180664E-1,-1.024469604E1,2.553240509E0,1.056476331E1
1.545659979E1,-2.514171753E0,-9.357640686E0,1.073268127E0,9.748764193E0
1.546652079E1,-4.201013947E0,-8.800199890E0,-3.468287659E-1,9.757680384E0
1.547644279E1,-4.617597656E0,-8.258027344E0,-2.468367004E-1,9.464573529E0
1.548636379E1,-4.083508301E0,-7.590116272E0,4.637356567E-1,8.631335692E0
1.549628479E1,-3.336711273E0,-7.169640656E0,9.708810425E-1,7.967433668E0
1.550620579E1,-2.568808136E0,-7.039710846E0,1.223106537E0,7.592910748E0
1.551612679E1,-1.909579010E0,-7.083270264E0,1.496438141E0,7.487224902E0
1.552604779E1,-1.503623199E0,-7.043303375E0,1.385967865E0,7.334160626E0
1.553596879E1,-1.604363708E0,-7.334298248E0,1.229992218E0,7.607811417E0
1.554588979E1,-1.927541656E0,-7.681276703E0,1.720971222E0,8.104268664E0
1.555581079E1,-2.799029388E0,-7.654332733E0,2.025887146E0,8.398070840E0
1.556573179E1,-3.618575134E0,-7.010820923E0,1.824555817E0,8.097820691E0
1.557565279E1,-3.750450897E0,-6.617139587E0,1.698517914E0,7.793419106E0
1.558557379E1,-4.288432159E0,-6.553372192E0,1.713486786E0,8.017067696E0
1.559549479E1,-4.624333649E0,-6.364465027E0,1.341660004E0,7.980659643E0
1.560541579E1,-4.461472321E0,-6.367608490E0,7.038363647E-1,7.806827703E0
1.561533679E1,-4.234394531E0,-6.447991333E0,7.599696350E-1,7.751402655E0
1.562525779E1,-4.067641296E0,-6.686595154E0,9.542655945E-1,7.884597852E0
1.563517829E1,-3.954476624E0,-6.823859711E0,1.461410980E0,8.021138870E0
1.564509929E1,-4.295617218E0,-7.037166138E0,1.751058655E0,8.428537296E0
1.565502029E1,-4.645589447E0,-7.340136108E0,1.883533173E0,8.888576748E0
1.566494129E1,-4.746329956E0,-7.191944275E0,1.982028351E0,8.841953794E0
1.567486229E1,-5.047054596E0,-7.381300507E0,2.006577301E0,9.164208080E0
1.568478329E1,-5.187462616E0,-7.807763672E0,2.412682800E0,9.679461774E0
1.569470429E1,-4.909490662E0,-7.683222656E0,2.517015839E0,9.458878246E0
1.570462529E1,-5.041216736E0,-7.566166077E0,2.685864716E0,9.480221756E0
1.571454629E1,-5.246439972E0,-7.949069824E0,2.889441376E0,9.952975179E0
1.572446729E1,-5.355263672E0,-8.142317963E0,3.149600372E0,1.024188329E1
1.573438829E1,-5.349425812E0,-7.769742737E0,3.369493103E0,1.001692281E1
1.574430929E1,-5.163662109E0,-6.864275665E0,3.587439880E0,9.308674002E0
1.575423029E1,-4.563260651E0,-6.086642761E0,3.756737823E0,8.484317706E0
1.576415129E1,-3.670666809E0,-6.203998718E0,4.113595734E0,8.299702692E0
1.577407229E1,-2.849474487E0,-7.293433228E0,4.383484497E0,8.973773422E0
1.578399329E1,-2.649939423E0,-8.867410126E0,4.362378387E0,1.023149483E1
1.579391429E1,-2.761756897E0,-1.052147049E1,4.391867065E0,1.173103315E1
1.580383629E1,-2.880460052E0,-1.148771118E1,4.802313538E0,1.277993637E1
1.581375729E1,-3.097209320E0,-1.113758926E1,5.106331329E0,1.263776957E1
1.582367829E1,-3.384761353E0,-9.643246765E0,5.267546082E0,1.149764582E1
1.583359929E1,-4.262086945E0,-7.947273560E0,5.271587677E0,1.044577325E1
1.584352029E1,-5.833519135E0,-6.477480011E0,4.811743927E0,9.956935894E0
1.585344129E1,-7.099436646E0,-5.655389557E0,3.772604828E0,9.829444486E0
1.586336229E1,-7.768694916E0,-5.860912170E0,2.334694977E0,1.000768269E1
1.587328329E1,-7.725434875E0,-7.077731781E0,1.455273743E0,1.057801743E1
1.588320429E1,-6.401737518E0,-9.335337067E0,3.959266663E-1,1.132640805E1
1.589312529E1,-4.430935822E0,-1.175595337E1,-5.685177612E-1,1.257612199E1
1.590304629E1,-2.786754913E0,-1.390368713E1,4.710704041E-1,1.418803814E1
1.591296729E1,-2.144290924E0,-1.575099564E1,1.047821045E0,1.593078077E1
1.592288829E1,-2.009870453E0,-1.727737152E1,1.015039215E0,1.742347412E1
1.593280929E1,-2.742746429E0,-1.869896530E1,1.866618347E0,1.899100380E1
1.594273029E1,-4.224066010E0,-1.902199356E1,2.337089996E0,1.962500859E1
1.595265129E1,-5.133874054E0,-1.875120667E1,3.225791931E-1,1.944398291E1
1.596257229E1,-5.567372589E0,-1.806248886E1,-1.654210052E0,1.897328523E1
1.597249329E1,-6.641239471E0,-1.592942459E1,-2.934946747E0,1.750618582E1
1.598241429E1,-8.053552551E0,-1.229303650E1,-3.432062988E0,1.509163714E1
1.599233529E1,-8.556057587E0,-9.537117462E0,-2.582579498E0,1.307028874E1
1.600225629E1,-8.231532440E0,-8.067174225E0,-1.128652954E-1,1.152606459E1
1.601217729E1,-1.100316879E1,-6.792874146E0,-2.186952209E-1,1.293293046E1
1.602209829E1,-1.299118469E1,-5.949827271E0,-1.509311371E0,1.436834524E1
1.603201929E1,-1.119252502E1,-4.986730042E0,-2.336042175E0,1.247386011E1
1.604194029E1,-8.014483795E0,-4.380191345E0,-2.744542694E0,9.536799323E0
1.605186129E1,-5.148094482E0,-3.983216858E0,-1.344953156E0,6.646637671E0
1.606178229E1,-3.248544617E0,-3.563190308E0,2.392025757E-1,4.827689423E0
1.607170329E1,-2.518961792E0,-3.597319336E0,1.647024994E0,4.690262919E0
1.608162429E1,-1.950294342E0,-4.342619476E0,1.778451691E0,5.081818804E0
1.609154529E1,-8.602610779E-1,-5.232668610E0,1.684297485E0,5.563966923E0
1.610146629E1,-8.607101440E-2,-6.019133148E0,1.604663086E0,6.229953105E0
1.611138729E1,1.016386414E-1,-6.536307678E0,9.870474243E-1,6.611195890E0
1.612130829E1,3.520678711E-1,-6.966063995E0,3.921844482E-1,6.985972231E0
1.613122929E1,9.654922485E-2,-7.349566498E0,2.219883728E-1,7.353552087E0
1.614115029E1,-2.300715637E-1,-7.545509033E0,6.629713440E-1,7.578071687E0
1.615107129E1,-4.935237122E-1,-7.567064209E0,1.289418640E0,7.691984583E0
1.616099329E1,-8.484356689E-1,-7.365882568E0,1.528471527E0,7.570488380E0
1.617091429E1,-1.319805450E0,-7.136559448E0,1.449286194E0,7.400864656E0
1.618083529E1,-1.888622589E0,-7.147486725E0,1.080752563E0,7.471377910E0
1.619075629E1,-2.483485565E0,-7.290888519E0,6.776408386E-1,7.732008346E0
1.620067729E1,-2.939736786E0,-7.368576965E0,5.285508728E-1,7.950933586E0
1.621059829E1,-3.374283142E0,-7.293133850E0,6.487509155E-1,8.062038565E0
1.622051929E1,-3.741170197E0,-6.874604187E0,6.908134460E-1,7.857083453E0
1.623044029E1,-4.085304565E0,-6.215225372E0,9.427395630E-1,7.497165978E0
1.624036129E1,-4.751119995E0,-5.672603760E0,1.239572296E0,7.502540510E0
1.625028229E1,-5.726192322E0,-5.517975311E0,1.445094910E0,8.082427194E0
1.626020329E1,-7.086114349E0,-5.469326477E0,1.636546783E0,9.099716153E0
1.627012429E1,-8.698561249E0,-5.165009308E0,1.826651459E0,1.028002648E1
1.628004529E1,-1.030936157E1,-4.779710541E0,2.235750732E0,1.158132765E1
1.628996629E1,-1.112756012E1,-4.262685699E0,3.909869385E0,1.254113879E1
1.629988729E1,-1.118234619E1,-3.811673584E0,6.223308563E0,1.335302555E1
1.630980829E1,-1.110211304E1,-4.477788391E0,7.648345184E0,1.420579765E1
1.631972929E1,-1.172242310E1,-6.893464966E0,7.677983551E0,1.561686569E1
1.632965029E1,-1.215262848E1,-8.547525330E0,6.375541992E0,1.616768703E1
1.633957129E1,-1.052641022E1,-9.098828888E0,4.874613190E0,1.474299335E1
1.634949229E1,-9.158704376E0,-9.416318665E0,4.466711426E0,1.387445257E1
1.635941329E1,-1.014470398E1,-1.116528168E1,3.279979248E0,1.543816044E1
1.636933429E1,-1.336690338E1,-1.500853958E1,1.901645508E0,2.018778398E1
1.637925529E1,-1.728545471E1,-2.119248001E1,1.916015625E-2,2.734791620E1
1.638917629E1,-1.825453949E1,-2.815540054E1,-3.494183807E0,3.373668793E1
1.639909729E1,-1.453477478E1,-2.871688293E1,-6.269562378E0,3.279064586E1
