"Time (s)","Acceleration x (m/s^2)","Acceleration y (m/s^2)","Acceleration z (m/s^2)","Absolute acceleration (m/s^2)"
1.387041673E-3,-5.620512085E0,8.271798706E-1,-4.331991577E-1,5.697547204E0
1.130904167E-2,-5.795198822E0,1.019230499E0,-3.369493103E-1,5.893784441E0
2.123104167E-2,-5.936504974E0,9.686357117E-1,-1.796264648E-1,6.017691594E0
3.115304167E-2,-6.627767487E0,8.384065247E-1,-4.176315308E-2,6.680716393E0
4.107404168E-2,-7.570207672E0,8.735833740E-1,1.142124939E-1,7.621301503E0
5.099604168E-2,-7.999365234E0,1.175206146E0,3.842509460E-1,8.094356208E0
6.091804168E-2,-7.480693817E0,1.487456818E0,7.321275330E-1,7.662200630E0
7.083904167E-2,-7.596702576E0,1.305135956E0,8.910969543E-1,7.759337837E0
8.076104167E-2,-8.001610565E0,8.806187439E-1,8.493338013E-1,8.094604926E0
9.068304166E-2,-8.789272614E0,4.990621948E-1,8.617579651E-1,8.845507500E0
1.006040417E-1,-9.548344116E0,1.462458801E-1,8.693920898E-1,9.588957494E0
1.105260417E-1,-9.841734009E0,-4.698728943E-1,6.722520447E-1,9.875850933E0
1.204480417E-1,-9.925559692E0,-1.255139923E0,5.749543762E-1,1.002111191E1
1.303700417E-1,-9.659413147E0,-2.108814697E0,2.707868958E-1,9.890636345E0
1.402910417E-1,-9.913584595E0,-2.972817993E0,-2.487826538E-1,1.035271458E1
1.502130417E-1,-1.042342438E1,-3.329077148E0,-5.713618469E-1,1.095705183E1
1.601350417E-1,-1.116333572E1,-3.188669128E0,-6.268963623E-1,1.162672242E1
1.700560417E-1,-1.128144012E1,-2.372266846E0,4.266128540E-2,1.152824190E1
1.799780417E-1,-1.133562744E1,-1.570234680E0,1.146316223E0,1.150113591E1
1.899000417E-1,-1.167751648E1,-7.457492065E-1,2.305954742E0,1.192635570E1
1.998210417E-1,-1.185953796E1,3.053649902E-2,2.962339783E0,1.222395313E1
2.097430417E-1,-1.242206818E1,5.530998230E-1,3.020119629E0,1.279589074E1
2.196650417E-1,-1.333936066E1,7.173083496E-1,2.636617126E0,1.361634400E1
2.295860417E-1,-1.359398117E1,8.234376526E-1,1.523382111E0,1.370383401E1
2.395080417E-1,-1.391476410E1,8.220904541E-1,-3.950285339E-1,1.394462406E1
2.494300417E-1,-1.392000320E1,6.074368286E-1,-3.062182159E0,1.426577822E1
2.593520417E-1,-1.284898041E1,2.725831604E-1,-4.705165558E0,1.368609448E1
2.692730417E-1,-1.211146408E1,-2.152523804E-1,-3.671864319E0,1.265766500E1
2.791950417E-1,-1.198677338E1,-5.465135193E-1,-2.214494934E0,1.220186055E1
2.891170417E-1,-1.205368423E1,-2.863545227E-1,1.886077881E-1,1.205856026E1
2.990380417E-1,-1.263747025E1,3.167413330E-1,2.677033081E0,1.292178337E1
3.089600417E-1,-1.341270813E1,4.752616882E-1,3.421285400E0,1.385033598E1
3.188820417E-1,-1.436487808E1,1.983375549E-1,3.159030762E0,1.470947094E1
3.288030417E-1,-1.386821091E1,1.984872437E-1,3.722010040E0,1.436036315E1
3.387250417E-1,-1.366104172E1,-5.201683044E-1,4.387226715E0,1.435765977E1
3.486470417E-1,-1.248403931E1,-1.049916687E0,4.534969482E0,1.332364480E1
3.585690417E-1,-1.103505249E1,-1.690584412E0,5.138664093E0,1.228968379E1
3.684900417E-1,-1.025562332E1,-2.081271973E0,5.233716431E0,1.170048249E1
3.784120417E-1,-9.772278442E0,-2.608924713E0,4.308191071E0,1.099383575E1
3.883340417E-1,-9.256451111E0,-2.205962677E0,3.511098633E0,1.014277931E1
3.982550417E-1,-8.789272614E0,-2.063159637E0,2.499502258E0,9.367788016E0
4.081770417E-1,-9.122330017E0,-2.320474548E0,7.345225525E-1,9.441452772E0
4.180990417E-1,-1.011596375E1,-3.008443909E0,-7.458988953E-1,1.058016174E1
4.280200417E-1,-1.018392242E1,-3.274141388E0,-1.010249176E0,1.074490024E1
4.379420417E-1,-1.014590149E1,-2.635718994E0,3.637435913E-2,1.048273126E1
4.478640417E-1,-1.005309448E1,-1.550326080E0,1.157093811E0,1.023753319E1
4.577850417E-1,-9.824819183E0,-7.433541870E-1,1.163680115E0,9.921380894E0
4.677070417E-1,-9.825417938E0,-1.044827271E-1,1.135239258E0,9.891335727E0
4.776290417E-1,-9.647138672E0,3.882925415E-1,1.545086975E0,9.777798802E0
4.875510417E-1,-9.193731537E0,4.490661621E-1,1.663939819E0,9.353879180E0
4.974720417E-1,-8.619974670E0,1.877096558E-1,1.514999542E0,8.754108855E0
5.073940417E-1,-8.153993683E0,-1.496887207E-1,1.576671295E0,8.306377795E0
5.173160417E-1,-7.924670563E0,-4.571493530E-1,1.402134247E0,8.060730085E0
5.272370417E-1,-8.088729401E0,-6.638694763E-1,9.671388245E-1,8.173348366E0
5.371590417E-1,-8.308921509E0,-8.102650452E-1,5.128335571E-1,8.364072234E0
5.470810417E-1,-8.426726532E0,-8.304730225E-1,1.633103943E-1,8.469124853E0
5.570020417E-1,-8.204887848E0,-9.327104187E-1,-2.686912537E-1,8.262101931E0
5.669240417E-1,-7.823181610E0,-1.060095520E0,-6.221063232E-1,7.919153319E0
5.768460417E-1,-7.521858215E0,-1.228345642E0,-9.207353210E-1,7.676909375E0
5.867670417E-1,-7.203320618E0,-1.308728485E0,-1.038091278E0,7.394473049E0
5.966890417E-1,-6.859186249E0,-1.335971832E0,-1.068627777E0,7.069315530E0
6.066110417E-1,-6.640491028E0,-1.494192810E0,-1.001716919E0,6.879837936E0
6.165330417E-1,-6.384074249E0,-1.753004608E0,-1.157842255E0,6.720865113E0
6.264540417E-1,-6.131100311E0,-2.008223877E0,-1.375190277E0,6.596552317E0
6.363760417E-1,-5.801186371E0,-2.463876343E0,-1.615889740E0,6.506577410E0
6.462980417E-1,-5.386997681E0,-2.878364410E0,-1.755100250E0,6.354927425E0
6.562190417E-1,-5.012177124E0,-3.245850220E0,-1.785936127E0,6.232738645E0
6.661410417E-1,-5.129084015E0,-3.448828125E0,-1.702709198E0,6.411016837E0
6.760630417E-1,-4.724924469E0,-3.750450897E0,-1.780397644E0,6.289722485E0
6.859840417E-1,-4.412374420E0,-4.213138733E0,-2.003733215E0,6.421412057E0
6.959060417E-1,-4.783602448E0,-4.769980774E0,-2.288291473E0,7.132450268E0
7.058280417E-1,-5.658233643E0,-4.772675171E0,-2.413580933E0,7.785846721E0
7.157490417E-1,-6.132148132E0,-4.112547913E0,-2.728975067E0,7.871695876E0
7.256710417E-1,-6.850055237E0,-3.373834076E0,-3.115171967E0,8.246836333E0
7.355930417E-1,-7.410938873E0,-2.846480713E0,-3.341950378E0,8.613541650E0
7.455150417E-1,-7.570956116E0,-2.636617126E0,-3.607198792E0,8.791075560E0
7.554360417E-1,-7.884254608E0,-2.468067627E0,-3.739074554E0,9.068269243E0
7.653580417E-1,-7.781568146E0,-2.339634705E0,-4.193529510E0,9.143980704E0
7.752800417E-1,-8.334069214E0,-1.852697296E0,-4.384682007E0,9.597636857E0
7.852010417E-1,-9.840237122E0,-9.996212769E-1,-3.789220276E0,1.059186950E1
7.951230417E-1,-1.139520355E1,-1.745370483E-1,-3.938310242E0,1.205783624E1
8.050450417E-1,-1.300256104E1,6.716532898E-1,-4.863985291E0,1.389877925E1
8.149660417E-1,-1.487890915E1,1.255289612E0,-6.015989685E0,1.609813099E1
8.248880417E-1,-1.642279861E1,1.457070007E0,-7.456444244E0,1.809502495E1
8.348100417E-1,-1.696676743E1,1.620530090E0,-8.624315643E0,1.910173120E1
8.447310417E-1,-1.597627716E1,2.154918823E0,-8.841513977E0,1.838633940E1
8.546530417E-1,-1.444765594E1,2.583627319E0,-7.345824280E0,1.641252652E1
8.645750417E-1,-1.266710861E1,2.809956665E0,-4.689148865E0,1.379636235E1
8.744970417E-1,-8.647517395E0,1.508862305E0,-2.372416534E0,9.093106332E0
8.844180417E-1,-5.307363281E0,-1.628014526E0,-1.054706726E0,5.650747081E0
8.943400417E-1,-7.048542480E0,-3.363505554E0,-2.627037048E0,8.239929876E0
9.042622917E-1,-1.128443390E1,-2.774929504E0,-4.828808441E0,1.258396095E1
9.141832917E-1,-1.401520523E1,-3.004402313E0,-4.133654022E0,1.491775809E1
9.241052917E-1,-1.431787582E1,-4.717889099E0,-5.855822754E-1,1.508651558E1
9.340272917E-1,-1.281754578E1,-5.552254028E0,6.973997498E-1,1.398582750E1
9.439482917E-1,-1.249586472E1,-4.884043579E0,-1.510209503E0,1.350115734E1
9.538702917E-1,-1.306677750E1,-3.751349030E0,-2.590962067E0,1.383930555E1
9.637922917E-1,-1.163620239E1,-2.889291687E0,-2.921923828E-1,1.199310589E1
9.737132917E-1,-1.018631744E1,-2.381547546E0,2.682571564E0,1.079949175E1
9.836352917E-1,-9.187743988E0,-2.133363647E0,4.066892853E0,1.027158690E1
9.935572917E-1,-9.434131622E0,-1.404828644E0,3.742367706E0,1.024605773E1
1.003478292E0,-9.910291443E0,-7.943980408E-1,3.274141388E0,1.046732757E1
1.013400292E0,-1.035576508E1,-5.905220032E-1,2.738854523E0,1.072808979E1
1.023322292E0,-1.052266800E1,-4.418811035E-1,2.484234009E0,1.082096203E1
1.033244292E0,-1.059496765E1,-2.903961182E-1,2.271526337E0,1.083962644E1
1.043165292E0,-1.120225479E1,-1.698966980E-1,2.278112640E0,1.143281131E1
1.053087292E0,-1.160072617E1,-1.320254517E-1,2.320474548E0,1.183126707E1
1.063009292E0,-1.160776154E1,-1.875599670E-1,2.006277924E0,1.178136061E1
1.072930292E0,-1.159997772E1,-2.492317200E-1,1.654359741E0,1.172000451E1
1.082852292E0,-1.080138840E1,-2.151026917E-1,1.349294128E0,1.088746321E1
1.092774292E0,-9.799222412E0,-3.614982605E-1,8.732839966E-1,9.844697345E0
1.102695292E0,-8.984466705E0,-5.530998230E-1,4.704716492E-1,9.013761976E0
1.112617292E0,-7.856262817E0,-5.568420410E-1,1.612147522E-1,7.877622021E0
1.122539292E0,-7.193740540E0,-3.200344849E-1,1.651066589E-1,7.202748450E0
1.132460292E0,-6.976841583E0,-1.242416382E-2,2.947370911E-1,6.983075454E0
1.142382292E0,-6.870861969E0,3.115022278E-1,4.408332825E-1,6.892032488E0
1.152304292E0,-6.729555817E0,5.530998230E-1,4.715194702E-1,6.768690532E0
1.162225292E0,-6.606960754E0,6.575825500E-1,3.730242920E-1,6.650074612E0
1.172147292E0,-6.473887482E0,6.559359741E-1,3.014730835E-1,6.514012369E0
1.182069292E0,-6.380631409E0,6.424639893E-1,1.287322998E-1,6.414186555E0
1.191991292E0,-6.489305420E0,6.033952332E-1,-7.499404907E-2,6.517729263E0
1.201912292E0,-6.635102234E0,5.780978394E-1,-2.279759216E-1,6.664139238E0
1.211834292E0,-6.984775085E0,4.800517273E-1,-2.465373230E-1,7.005591574E0
1.221756292E0,-7.241191864E0,4.300556946E-1,-1.191522217E-1,7.254929687E0
1.231677292E0,-7.418273621E0,3.177891541E-1,-8.247848511E-2,7.425535412E0
1.241599292E0,-7.499853973E0,1.640588379E-1,-2.236349487E-1,7.504980847E0
1.251521292E0,-7.856262817E0,-5.448669434E-2,-2.649490356E-1,7.860918028E0
1.261442292E0,-8.164322205E0,-2.800675964E-1,-1.288819885E-1,8.170141093E0
1.271364292E0,-8.258177032E0,-4.448748779E-1,1.107696533E-2,8.270158660E0
1.281286292E0,-8.574768677E0,-5.358856201E-1,1.742376709E-1,8.593264224E0
1.291207292E0,-8.970395966E0,-5.209167480E-1,1.441502380E-1,8.986664416E0
1.301129292E0,-9.204509125E0,-4.831951904E-1,3.802093506E-2,9.217261600E0
1.311051292E0,-9.267677765E0,-3.867956543E-1,4.385879517E-2,9.275849591E0
1.320973292E0,-9.266929321E0,-3.983216858E-1,4.490661621E-2,9.275594634E0
1.330894292E0,-9.376501465E0,-5.450166321E-1,1.344204712E-1,9.393289717E0
1.340816292E0,-9.483379211E0,-5.423222351E-1,3.290158081E-1,9.504569747E0
1.350738292E0,-9.816586304E0,-4.085005188E-1,4.799020386E-1,9.836795479E0
1.360659292E0,-1.024080414E1,1.052311707E-1,5.185217285E-1,1.025446282E1
1.370581292E0,-1.028705795E1,5.632786560E-1,6.746470642E-1,1.032453354E1
1.380503292E0,-1.054646851E1,7.256909180E-1,8.659492493E-1,1.060681353E1
1.390424292E0,-1.142813507E1,7.367678833E-1,1.044228516E0,1.149937004E1
1.400346292E0,-1.227103226E1,7.291337585E-1,1.177601166E0,1.234895191E1
1.410268292E0,-1.302516403E1,6.993457031E-1,1.197659454E0,1.309879272E1
1.420189292E0,-1.323353073E1,8.152047729E-1,1.106349335E0,1.330469478E1
1.430111292E0,-1.351344864E1,9.208850098E-1,9.211843872E-1,1.357607837E1
1.440033292E0,-1.362152390E1,9.922865295E-1,4.182302856E-1,1.366402072E1
1.449954292E0,-1.357092911E1,1.015338593E0,-6.732998657E-1,1.362550410E1
1.459876292E0,-1.339354797E1,1.174308014E0,-1.985920258E0,1.359080593E1
1.469798292E0,-1.344055023E1,1.800904999E0,-3.032094727E0,1.389551179E1
1.479720292E0,-1.402433624E1,2.074236603E0,-3.787573700E0,1.467413299E1
1.489641292E0,-1.439092392E1,1.810934143E0,-4.226910095E0,1.510777756E1
1.499563292E0,-1.465811829E1,1.434467010E0,-2.575244751E0,1.495158897E1
1.509485292E0,-1.491378662E1,1.026714935E0,1.414558411E-1,1.494975534E1
1.519406292E0,-1.495540009E1,5.227130127E-1,2.070344696E0,1.510706946E1
1.529328292E0,-1.475167374E1,-1.922003174E-1,3.025358734E0,1.505993408E1
1.539250292E0,-1.398526749E1,-1.100511475E0,3.240611115E0,1.439793015E1
1.549171292E0,-1.251143234E1,-1.933080139E0,3.674409027E0,1.318233742E1
1.559093292E0,-1.109103607E1,-2.788850555E0,3.970193939E0,1.210583365E1
1.569015292E0,-9.676178284E0,-3.570674744E0,3.584595795E0,1.091913327E1
1.578936292E0,-8.582851868E0,-4.011358337E0,2.690804443E0,9.848693845E0
1.588858292E0,-8.175698547E0,-4.134402466E0,1.569037170E0,9.295009851E0
1.598780292E0,-8.375832367E0,-4.040547638E0,6.227050781E-1,9.320319451E0
1.608701292E0,-9.056167603E0,-3.930227051E0,3.607498169E-1,9.878815554E0
1.618623292E0,-9.383836212E0,-3.588487701E0,5.182223511E-1,1.005992945E1
1.628545292E0,-9.164542236E0,-3.128344574E0,6.158193970E-1,9.703329723E0
1.638466292E0,-8.721014557E0,-2.660267944E0,3.363505554E-1,9.123938411E0
1.648388292E0,-9.567354584E0,-2.265089722E0,-4.950205994E-1,9.844285173E0
1.658310292E0,-9.987381134E0,-1.637295227E0,-6.152206421E-1,1.013937937E1
1.668231292E0,-9.976753235E0,-1.031804352E0,-4.610412598E-2,1.003007233E1
1.678153292E0,-1.034349060E1,-4.773573303E-1,4.502636719E-1,1.036428508E1
1.688075292E0,-1.041384430E1,-7.679031372E-2,7.569758606E-1,1.044160248E1
1.697996292E0,-1.048539551E1,-2.380050659E-2,1.091979218E0,1.054212996E1
1.707918292E0,-1.000040405E1,-1.356179810E-1,1.039887543E0,1.005523941E1
1.717840292E0,-9.698930969E0,-4.800517273E-1,7.716453552E-1,9.741414074E0
1.727762292E0,-8.751700745E0,-7.262896729E-1,5.542973328E-1,8.799261795E0
1.737683292E0,-8.187823334E0,-9.894424438E-1,1.466949463E-1,8.248694848E0
1.747605292E0,-8.455317078E0,-9.891430664E-1,-5.254074097E-2,8.513139927E0
1.757527292E0,-7.554490356E0,-9.098080444E-1,4.966671753E-1,7.625270717E0
1.767448292E0,-5.153034210E0,-1.243913269E0,1.116378479E0,5.417322466E0
1.777370292E0,-4.101321259E0,-1.714684296E0,1.311572571E0,4.634781646E0
1.787292292E0,-5.098697205E0,-1.984423370E0,1.200653229E0,5.601447801E0
1.797213292E0,-6.310128021E0,-1.927391968E0,1.072519684E0,6.684523462E0
1.807135292E0,-6.571634216E0,-1.815424805E0,9.193881226E-1,6.879492570E0
1.817057292E0,-6.098318481E0,-1.884880371E0,1.038839722E0,6.466950617E0
1.826978292E0,-6.556665344E0,-2.201022949E0,7.376660156E-1,6.955466455E0
1.836900292E0,-7.346722412E0,-2.539020081E0,2.122586060E-1,7.775989126E0
1.846822292E0,-6.356381836E0,-2.753074951E0,1.076261902E-1,6.927813156E0
1.856743292E0,-4.566404114E0,-2.934797058E0,1.751358032E-1,5.430999250E0
1.866665292E0,-4.252357178E0,-2.966082001E0,-3.218307495E-1,5.194589400E0
1.876587292E0,-4.466861115E0,-2.707270203E0,-8.842112732E-1,5.297545634E0
1.886508292E0,-6.658154297E0,-2.319277039E0,-1.689386902E0,7.250109842E0
1.896430292E0,-7.737260284E0,-1.819316711E0,-1.922003174E0,8.177359366E0
1.906352167E0,-7.348818054E0,-1.210233307E0,-1.697320404E0,7.638762204E0
1.916273167E0,-8.253087616E0,-9.144483948E-1,-1.783840485E0,8.493041737E0
1.926195167E0,-9.534572754E0,-6.459068298E-1,-1.754202118E0,9.716094807E0
1.936117167E0,-1.043629761E1,-5.119354248E-1,-1.878593445E0,1.061637881E1
1.946038167E0,-1.112202164E1,-1.770817566E-1,-2.107467499E0,1.132131364E1
1.955960167E0,-1.188887695E1,4.604425049E-1,-2.409539337E0,1.213932792E1
1.965882167E0,-1.337528595E1,1.218466187E0,-3.396137695E0,1.385339978E1
1.975803167E0,-1.464943634E1,1.775906982E0,-5.649551697E0,1.580117923E1
1.985725167E0,-1.552197189E1,1.499731293E0,-8.831185455E0,1.792123439E1
1.995647167E0,-1.581551147E1,9.222322083E-1,-1.103520218E1,1.930690557E1
2.005568167E0,-1.268596939E1,5.581892395E-1,-1.169009033E1,1.725988432E1
2.015490167E0,-1.099792969E1,9.574090576E-1,-1.246278351E1,1.664908593E1
2.025412167E0,-9.191935272E0,2.099384308E0,-1.127650040E1,1.469893022E1
2.035333167E0,-7.368277588E0,1.490899658E0,-6.425538025E0,9.889481044E0
2.045255167E0,-8.488248596E0,-3.117267609E0,5.161267090E-1,9.057268261E0
2.055177167E0,-1.277054352E1,-5.553002472E0,2.513423309E0,1.415061536E1
2.065099167E0,-1.688892929E1,-5.306764526E0,-2.312541046E0,1.785344584E1
2.075020167E0,-1.510658569E1,-3.203188934E0,-4.198169861E0,1.600293663E1
2.084942167E0,-1.323008789E1,-3.015479279E0,-3.840713196E0,1.410246144E1
2.094863167E0,-1.296424072E1,-3.009641418E0,-4.779261475E0,1.414110389E1
2.104785167E0,-1.264510437E1,-1.845212860E0,-4.250560913E0,1.346739556E1
2.114707167E0,-1.206970093E1,-1.222807159E0,-1.434017944E0,1.221594635E1
2.124629167E0,-1.047880920E1,-1.568438416E0,1.820364532E0,1.075077525E1
2.134550167E0,-1.010967682E1,-1.104253693E0,3.298540649E0,1.069136624E1
2.144472167E0,-9.144483948E0,-4.245172119E-1,3.050356750E0,9.649169801E0
2.154394167E0,-9.600585480E0,-2.912942505E-1,1.829944611E0,9.777770256E0
2.164315167E0,-1.039827667E1,3.869453430E-1,1.162033539E0,1.047015790E1
2.174237167E0,-1.079031143E1,6.896159363E-1,1.036744080E0,1.086191646E1
2.184159167E0,-1.146810196E1,8.256829834E-1,1.451531525E0,1.158904909E1
2.194080167E0,-1.177167068E1,8.768765259E-1,2.006128235E0,1.197354140E1
2.204002167E0,-1.258163635E1,8.110134888E-1,2.560275879E0,1.286508176E1
2.213924167E0,-1.281230667E1,6.875202942E-1,3.250490570E0,1.323607099E1
2.223845167E0,-1.193393326E1,4.167333984E-1,3.483705597E0,1.243899652E1
2.233767167E0,-1.062116318E1,-2.149530029E-1,3.068469086E0,1.105761342E1
2.243689167E0,-1.003962250E1,-6.643185425E-1,2.247576141E0,1.030955564E1
2.253610167E0,-8.807834015E0,-9.003776550E-1,1.496138763E0,8.979256715E0
2.263532167E0,-8.853489075E0,-1.077010345E0,9.386979675E-1,8.968019511E0
2.273454167E0,-8.114924927E0,-1.039588165E0,7.949967957E-1,8.219779196E0
2.283375167E0,-6.996151428E0,-8.655001831E-1,9.568103027E-1,7.114120559E0
2.293297167E0,-6.855144653E0,-6.418652344E-1,1.152752838E0,6.980962563E0
2.303219167E0,-7.737559662E0,-2.447410583E-1,1.401535492E0,7.867275859E0
2.313140167E0,-6.955286407E0,8.472381592E-2,1.330433350E0,7.081895229E0
2.323062167E0,-6.280489655E0,2.528242493E-1,1.203796692E0,6.399812253E0
2.332984167E0,-6.040089569E0,3.523672485E-1,1.044078827E0,6.139783814E0
2.342905167E0,-6.000871124E0,4.358935547E-1,8.933422852E-1,6.082640700E0
2.352827167E0,-5.557642822E0,3.035687256E-1,5.384303284E-1,5.591909775E0
2.362749167E0,-5.212460632E0,1.356179810E-1,2.326162720E-1,5.219410734E0
2.372670167E0,-5.733676758E0,7.978408813E-2,7.873626709E-2,5.734772364E0
2.382592167E0,-6.528972931E0,3.233276367E-2,-9.340576172E-2,6.529721095E0
2.392514167E0,-7.001839600E0,-2.200424194E-2,-2.266287231E-1,7.005540846E0
2.402435167E0,-7.111860809E0,-1.706451416E-2,-2.022294617E-1,7.114755943E0
2.412357167E0,-6.611002350E0,-1.115180969E-1,-2.597099304E-1,6.617041454E0
2.422279167E0,-7.261998596E0,4.146377563E-2,-3.838018799E-1,7.272251834E0
2.432200167E0,-6.433471527E0,-1.362167358E-2,-7.189549255E-1,6.473533627E0
2.442122167E0,-6.212830353E0,-1.014889526E-1,-1.164129181E0,6.321768562E0
2.452044167E0,-6.961124268E0,-2.589614868E-1,-1.896406403E0,7.219464618E0
2.461965167E0,-7.595954132E0,-4.544549561E-1,-3.016976166E0,8.185792183E0
2.471887167E0,-8.139324188E0,-5.246589661E-1,-4.453987885E0,9.293108917E0
2.481809167E0,-9.186396790E0,-4.290078735E-1,-4.818479919E0,1.038227733E1
2.491730167E0,-1.044542862E1,-1.188528442E-1,-3.842509460E0,1.113040808E1
2.501652167E0,-1.119402191E1,2.760260010E-1,-3.163671112E0,1.163576950E1
2.511574167E0,-1.128997238E1,4.915777588E-1,-2.370919647E0,1.154670451E1
2.521495167E0,-1.119791382E1,8.304730225E-1,-9.406439209E-1,1.126799762E1
2.531417167E0,-1.206251587E1,1.140927429E0,2.797682190E-1,1.211958228E1
2.541339167E0,-1.261711258E1,1.251996460E0,9.758207703E-1,1.271657388E1
2.551260167E0,-1.357721603E1,1.214873657E0,1.365460510E0,1.369967867E1
2.561182167E0,-1.444885345E1,1.365610199E0,1.398541718E0,1.458047243E1
2.571104167E0,-1.447624649E1,1.646575928E0,1.092727661E0,1.461050918E1
2.581025167E0,-1.382090927E1,2.057920532E0,8.333171082E-1,1.399810656E1
2.590947167E0,-1.325104431E1,2.414479065E0,6.337820435E-1,1.348412267E1
2.600869167E0,-1.273446854E1,2.831960907E0,1.239422607E-1,1.304615089E1
2.610790167E0,-1.234842133E1,3.357817383E0,-4.939727783E-1,1.280634436E1
2.620712167E0,-1.253538254E1,3.669319611E0,-3.676354980E-1,1.306655569E1
2.630634167E0,-1.320329361E1,3.690276031E0,1.172062683E-1,1.370980805E1
2.640555167E0,-1.387599472E1,3.553909607E0,4.733157349E-1,1.433169672E1
2.650477167E0,-1.429437469E1,3.334166565E0,1.204245758E0,1.472739021E1
2.660399167E0,-1.415142197E1,2.961890717E0,1.980830841E0,1.459312273E1
2.670320167E0,-1.425964691E1,2.338886261E0,2.338886261E0,1.463824812E1
2.680242167E0,-1.411489792E1,1.614692230E0,2.320175171E0,1.439516541E1
2.690164167E0,-1.310300217E1,8.999285889E-1,2.058219910E0,1.329416438E1
2.700085167E0,-1.172302185E1,2.698887634E-1,1.813329163E0,1.186550647E1
2.710007167E0,-1.053120026E1,-3.134481812E-1,1.615590363E0,1.065901313E1
2.719928167E0,-9.616302795E0,-8.738827515E-1,1.454375610E0,9.764843006E0
2.729850167E0,-9.002579041E0,-1.371448059E0,1.362466736E0,9.207801842E0
2.739772167E0,-9.019044800E0,-1.851499786E0,1.345402222E0,9.304908796E0
2.749693167E0,-9.438322906E0,-2.306852875E0,1.400038605E0,9.816497215E0
2.759615167E0,-9.829160156E0,-2.813249817E0,1.550625458E0,1.034075448E1
2.769537167E0,-1.008737320E1,-3.370540924E0,1.992207184E0,1.082056069E1
2.779458167E0,-1.021116577E1,-3.882626038E0,2.333497467E0,1.117085054E1
2.789380167E0,-9.954599304E0,-4.221371613E0,2.328108673E0,1.106047538E1
2.799302167E0,-9.766290894E0,-4.477638702E0,2.197280731E0,1.096620850E1
2.809223167E0,-9.586514740E0,-4.613556061E0,2.121538239E0,1.084836803E1
2.819145167E0,-9.498348083E0,-4.518054657E0,2.052082672E0,1.071645825E1
2.829067167E0,-9.524244232E0,-4.402195587E0,1.989063721E0,1.067927566E1
2.838988167E0,-9.273964691E0,-4.122127991E0,1.811083832E0,1.030914084E1
2.848910167E0,-9.163943481E0,-3.662733307E0,1.532662811E0,9.987118238E0
2.858832167E0,-9.251661072E0,-3.429518280E0,1.287023621E0,9.950440092E0
2.868753167E0,-9.103319550E0,-3.414998474E0,1.199904785E0,9.796551071E0
2.878675167E0,-8.998238068E0,-3.307971039E0,1.271006927E0,9.670905817E0
2.888597167E0,-8.645421753E0,-3.099005585E0,1.417701874E0,9.292848406E0
2.898517833E0,-8.354127502E0,-2.776426392E0,1.404379578E0,8.914722196E0
2.908439833E0,-8.430468750E0,-2.120490417E0,9.952803040E-1,8.749849475E0
2.918361833E0,-8.948092346E0,-1.446741486E0,4.764591980E-1,9.076807309E0
2.928282833E0,-8.524024200E0,-1.164877625E0,-7.200027466E-2,8.603552318E0
2.938204833E0,-7.588619385E0,-8.681945801E-1,-7.517367554E-1,7.675025351E0
2.948126833E0,-6.701114960E0,-3.564088440E-1,-1.060245209E0,6.793827262E0
2.958047833E0,-6.446494446E0,7.619155884E-2,-1.425335999E0,6.602626637E0
2.967969833E0,-5.896987152E0,3.534150696E-1,-2.043849792E0,6.251134430E0
2.977891833E0,-4.853357391E0,4.273612976E-1,-2.429148560E0,5.444123288E0
2.987812833E0,-4.163891144E0,1.740879822E-1,-2.472258911E0,4.845653744E0
2.997734833E0,-4.352648621E0,-4.773573303E-1,-2.732118530E0,5.161190919E0
3.007656833E0,-4.734504547E0,-5.974076843E-1,-2.474803619E0,5.375600636E0
3.017577833E0,-4.236190796E0,-6.659651184E-1,-2.050136719E0,4.753091895E0
3.027499833E0,-3.558699646E0,-9.395960999E-1,-1.756447449E0,4.078270668E0
3.037421833E0,-3.403771820E0,-9.882449341E-1,-1.557660828E0,3.871511062E0
3.047342833E0,-3.869752808E0,-1.075214081E0,-1.801952820E0,4.402057028E0
3.057264833E0,-5.690117340E0,-1.644330597E0,-2.609224091E0,6.472195054E0
3.067186833E0,-6.996001740E0,-2.215542755E0,-3.630699921E0,8.187469203E0
3.077107833E0,-8.119714966E0,-2.157762909E0,-4.778662720E0,9.665470981E0
3.087029833E0,-9.512568512E0,-1.957329712E0,-5.337450714E0,1.108189873E1
3.096951833E0,-1.126093277E1,-2.345023499E0,-5.993985443E0,1.297056682E1
3.106872833E0,-1.331990112E1,-1.913919983E0,-7.822582855E0,1.556520665E1
3.116794833E0,-1.554173080E1,-1.148860931E0,-1.006087830E1,1.854957007E1
3.126716833E0,-1.721644821E1,-1.735491028E0,-1.152124146E1,2.078838673E1
3.136637833E0,-1.672816360E1,-1.222507782E0,-1.285526733E1,2.113253135E1
3.146559833E0,-1.522962982E1,-8.551716614E-1,-1.344863342E1,2.033565057E1
3.156480833E0,-1.371897125E1,-1.531465302E0,-1.224543549E1,1.845281140E1
3.166402833E0,-1.141601028E1,-2.663112030E0,-9.339827728E0,1.498832340E1
3.176324833E0,-8.837322693E0,-3.200344849E0,-5.756878510E0,1.102189320E1
3.186245833E0,-7.565717010E0,-3.216511230E0,-2.007475433E0,8.462622288E0
3.196167833E0,-8.045169983E0,-3.874393158E0,1.429078217E0,9.043115998E0
3.206089833E0,-9.349407806E0,-5.102589111E0,3.395988007E0,1.117947121E1
3.216010833E0,-1.247670456E1,-6.171965332E0,3.612737274E0,1.438100078E1
3.225932833E0,-1.488205261E1,-7.490722961E0,2.615810394E0,1.686501955E1
3.235854833E0,-1.424722275E1,-9.086404724E0,1.085093536E0,1.693291277E1
3.245775833E0,-1.339429642E1,-9.716594238E0,5.613327026E-2,1.654758384E1
3.255697833E0,-1.215502350E1,-9.088650055E0,1.754351807E-1,1.517823882E1
3.265619833E0,-9.842033386E0,-6.565796356E0,1.341959381E0,1.190697938E1
3.275540833E0,-9.276808777E0,-4.095034332E0,2.605631561E0,1.046985210E1
3.285462833E0,-9.674382019E0,-2.837349701E0,3.661685486E0,1.072623706E1
3.295384833E0,-1.006012985E1,-2.490670624E0,4.032464447E0,1.112072040E1
3.305305833E0,-1.006970993E1,-2.194586334E0,3.804638214E0,1.098592459E1
3.315227833E0,-1.016176849E1,-1.490151215E0,3.163820801E0,1.074671353E1
3.325149833E0,-1.058972855E1,-7.821235657E-1,2.299667816E0,1.086473838E1
3.335070833E0,-1.057640625E1,-5.135820007E-1,1.577270050E0,1.070569551E1
3.344992833E0,-1.023406815E1,-9.848020935E-1,7.429051208E-1,1.030814697E1
3.354914833E0,-1.072729248E1,-1.573378143E0,-9.639953613E-2,1.084249121E1
3.364835833E0,-1.084090622E1,-2.007325745E0,-7.324269104E-1,1.104948205E1
3.374757833E0,-9.545500031E0,-2.207758942E0,-1.013991394E0,9.849819741E0
3.384679833E0,-8.085436249E0,-2.413730621E0,-1.086440735E0,8.507686426E0
3.394600833E0,-7.089557190E0,-2.643951874E0,-1.126257935E0,7.649886247E0
3.404522833E0,-6.498885498E0,-2.739902344E0,-1.101409607E0,7.138324782E0
3.414444833E0,-5.955216064E0,-2.842139740E0,-9.987231445E-1,6.673814846E0
3.424365833E0,-5.889053650E0,-2.971171417E0,-6.014492798E-1,6.623485013E0
3.434287833E0,-6.692283325E0,-3.138673096E0,2.137554932E-1,7.394837139E0
3.444209833E0,-7.754773865E0,-4.047133942E0,1.836830292E0,8.938106978E0
3.454130833E0,-8.771759033E0,-4.815186768E0,2.219734039E0,1.024973167E1
3.464052833E0,-9.262738037E0,-4.189487915E0,5.628295898E-1,1.018169446E1
3.473973833E0,-8.687933350E0,-3.392844543E0,-6.909631348E-1,9.352486837E0
3.483895833E0,-7.528294830E0,-2.482587433E0,-1.274749146E0,8.028913301E0
3.493817833E0,-6.985224152E0,-1.469344482E0,-1.090332642E0,7.220883251E0
3.503738833E0,-7.142247620E0,-6.002517700E-1,-1.166823578E0,7.261782185E0
3.513660833E0,-7.315138092E0,8.637039185E-2,-1.746717682E0,7.521284984E0
3.523582833E0,-7.614066467E0,6.626719666E-1,-2.117047577E0,7.930638861E0
3.533503833E0,-7.736511841E0,1.314416656E0,-2.338736572E0,8.188467217E0
3.543425833E0,-7.644902344E0,1.931732941E0,-2.361638947E0,8.231249147E0
3.553347833E0,-7.195836182E0,2.168839874E0,-2.179617462E0,7.825257634E0
3.563268833E0,-6.627468109E0,2.165247345E0,-1.847607880E0,7.212855501E0
3.573190833E0,-6.224356384E0,2.069596252E0,-1.583407288E0,6.747815920E0
3.583112833E0,-6.165379028E0,1.729353790E0,-1.377285919E0,6.549769431E0
3.593033833E0,-6.340365143E0,1.260079651E0,-9.795629883E-1,6.538162932E0
3.602955833E0,-6.663543091E0,8.695417786E-1,-4.334985352E-1,6.734005525E0
3.612877833E0,-7.126679993E0,4.255650330E-1,1.790277100E-1,7.141619161E0
3.622798833E0,-7.927963715E0,-1.683998108E-1,7.833210754E-1,7.968347323E0
3.632720833E0,-8.891959076E0,-7.343728638E-1,1.433868256E0,9.036714994E0
3.642642833E0,-9.903405762E0,-1.260828094E0,2.030527496E0,1.018774632E1
3.652563833E0,-1.093476105E1,-1.549427948E0,2.399061127E0,1.130155832E1
3.662485833E0,-1.210712311E1,-1.724863129E0,2.666854248E0,1.251677652E1
3.672406833E0,-1.320793396E1,-1.645827484E0,2.845582581E0,1.361086360E1
3.682328833E0,-1.424931839E1,-1.336121521E0,2.822829895E0,1.458755168E1
3.692250833E0,-1.492426483E1,-8.535250854E-1,2.584375763E0,1.517040487E1
3.702171833E0,-1.519011200E1,-1.556762695E-1,2.300715637E0,1.536414756E1
3.712093833E0,-1.497680557E1,6.542893982E-1,1.851649475E0,1.510501260E1
3.722015833E0,-1.458417206E1,1.342558136E0,1.303339691E0,1.470371488E1
3.731936833E0,-1.414109344E1,1.942211151E0,5.739065552E-1,1.428537982E1
3.741858833E0,-1.368065094E1,2.304008789E0,-2.195933533E-1,1.387504551E1
3.751780833E0,-1.347408051E1,2.213896179E0,-6.861730957E-1,1.367197920E1
3.761701833E0,-1.383827316E1,1.536704407E0,-1.338067474E0,1.398748330E1
3.771623833E0,-1.473490860E1,9.512718201E-1,-1.662592621E0,1.485889174E1
3.781545833E0,-1.504671021E1,5.204676819E-1,-1.392404480E0,1.511995915E1
3.791466833E0,-1.524804153E1,2.122586060E-1,-1.060245209E0,1.528633194E1
3.801388833E0,-1.495899261E1,-2.897973633E-1,-6.712042236E-1,1.497684739E1
3.811310833E0,-1.384994888E1,-1.005159760E0,3.502716064E-2,1.388641988E1
3.821231833E0,-1.235874985E1,-1.780397644E0,9.895921326E-1,1.252548626E1
3.831153833E0,-1.051847672E1,-2.873125305E0,2.070045319E0,1.109857149E1
3.841074833E0,-5.728437653E0,-4.783003693E0,5.190606079E0,9.090352784E0
3.850996833E0,-5.372328186E0,-5.229525146E0,5.039719849E0,9.033748920E0
3.860918833E0,-8.830437012E0,-4.984484711E0,4.036955109E0,1.091415192E1
3.870839833E0,-1.233360214E1,-4.834945679E0,3.973337402E0,1.383046824E1
3.880761833E0,-1.273222321E1,-4.108955383E0,4.111649780E0,1.399638118E1
3.890683833E0,-1.132859207E1,-3.237467651E0,3.421584778E0,1.226888086E1
3.900605583E0,-9.262288971E0,-2.406844940E0,2.593207397E0,9.915020129E0
3.910527583E0,-8.168513489E0,-2.091001740E0,1.785786438E0,8.618928825E0
3.920449583E0,-7.924221497E0,-1.971101074E0,1.088835754E0,8.237966319E0
3.930370583E0,-7.819289703E0,-1.992207184E0,5.430706787E-1,8.087342375E0
3.940292583E0,-7.781867523E0,-2.204914856E0,-2.844085693E-3,8.088208687E0
3.950214583E0,-7.768694916E0,-2.338437195E0,-5.542973328E-1,8.131921959E0
3.960135583E0,-7.298223267E0,-2.541714478E0,-9.976753235E-1,7.792286660E0
3.970057583E0,-7.237299957E0,-2.793191528E0,-1.601519623E0,7.921192757E0
3.979979583E0,-7.477550354E0,-2.611319733E0,-1.995051270E0,8.167801394E0
3.989900583E0,-8.570876770E0,-2.090103607E0,-2.173031158E0,9.085732007E0
3.999822583E0,-9.372459869E0,-1.794618073E0,-2.228865051E0,9.799566187E0
4.009743583E0,-7.957901459E0,-2.022743683E0,-2.439028015E0,8.565544074E0
4.019665583E0,-6.548432465E0,-1.582509155E0,-2.517315216E0,7.191882846E0
4.029587583E0,-6.685697021E0,-8.822653198E-1,-2.303110657E0,7.126096790E0
4.039508583E0,-6.256539459E0,-6.830296326E-1,-2.238744507E0,6.680029375E0
4.049430583E0,-6.207142181E0,-4.463717651E-1,-2.070494385E0,6.558567588E0
4.059352583E0,-7.353757782E0,-1.104702759E-1,-1.680405579E0,7.544118246E0
4.069273583E0,-8.597970428E0,-3.435356140E-1,-1.719474335E0,8.774947532E0
4.079195583E0,-9.178463287E0,-5.641767883E-1,-1.651815033E0,9.342964019E0
4.089117583E0,-7.746840363E0,-1.040785675E0,-2.327958984E0,8.155744200E0
4.099038583E0,-7.285948792E0,-1.519190826E0,-1.612746277E0,7.615375310E0
4.108960583E0,-6.916816406E0,-1.929637299E0,-1.226549377E0,7.284934638E0
4.118881583E0,-6.653663635E0,-2.157912598E0,-1.198108521E0,7.096709842E0
4.128803583E0,-6.440057831E0,-2.188000031E0,-1.452279968E0,6.954912372E0
4.138725583E0,-6.023923187E0,-2.227218475E0,-1.882036285E0,6.692549087E0
4.148646583E0,-5.848338318E0,-2.144141235E0,-2.205214233E0,6.607826612E0
4.158568583E0,-5.712570648E0,-2.263293457E0,-2.578537903E0,6.663694051E0
4.168490583E0,-5.423222351E0,-2.511477356E0,-3.032843170E0,6.702014389E0
4.178411583E0,-5.347479858E0,-2.598147125E0,-3.427272949E0,6.862369065E0
4.188333583E0,-6.050717468E0,-2.445614319E0,-3.499123535E0,7.405138540E0
4.198255583E0,-6.857090607E0,-2.365530853E0,-3.592229919E0,8.094414346E0
4.208176583E0,-7.413782959E0,-2.296075287E0,-3.875590668E0,8.675041355E0
4.218098583E0,-8.463400269E0,-2.233355713E0,-4.133504333E0,9.680024789E0
4.228020583E0,-9.858050079E0,-2.219883728E0,-4.500840454E0,1.106194377E1
4.237941583E0,-1.130314499E1,-2.290536804E0,-5.277874603E0,1.268320172E1
4.247863583E0,-1.250080444E1,-2.335293732E0,-6.491850128E0,1.427822911E1
4.257785583E0,-1.443163925E1,-2.900218964E0,-8.230933685E0,1.686510453E1
4.267706583E0,-1.537407944E1,-3.139720917E0,-1.048808990E1,1.887379654E1
4.277628583E0,-1.399858978E1,-2.496508484E0,-1.247984802E1,1.891929378E1
4.287549583E0,-1.245050903E1,-1.511107635E0,-1.330014221E1,1.828093007E1
4.297471583E0,-1.208257416E1,-6.310876465E-1,-1.271815247E1,1.755386772E1
4.307393583E0,-1.176433594E1,-7.622149658E-1,-1.142424316E1,1.641626948E1
4.317314583E0,-1.113504456E1,-1.418749695E0,-9.264534302E0,1.455450665E1
4.327236583E0,-9.826016693E0,-2.416574707E0,-6.505621490E0,1.202969444E1
4.337158583E0,-8.923094330E0,-3.069965973E0,-3.397933960E0,1.002956922E1
4.347079583E0,-1.093521011E1,-3.519481201E0,-1.661544800E-1,1.148882829E1
4.357001583E0,-1.336286179E1,-3.887416077E0,1.938618622E0,1.405120354E1
4.366923583E0,-1.440035431E1,-3.735781403E0,2.747686157E0,1.512864985E1
4.376844583E0,-1.312186295E1,-3.983665924E0,2.224823456E0,1.389254191E1
4.386766583E0,-1.060903839E1,-5.210664368E0,1.136885834E0,1.187414115E1
4.396687583E0,-9.295370178E0,-5.884113922E0,6.542893982E-1,1.102065325E1
4.406609583E0,-8.800499268E0,-5.878874817E0,1.442999268E-1,1.058445931E1
4.416531583E0,-8.278235321E0,-4.950804749E0,-1.136137390E-1,9.646375266E0
4.426452583E0,-7.699239349E0,-3.040177917E0,5.578898621E-1,8.296517910E0
4.436374583E0,-8.968000946E0,-1.578018494E0,1.053060150E0,9.166467096E0
4.446296583E0,-1.059990738E1,-9.214837646E-1,1.438508606E0,1.073668831E1
4.456217583E0,-1.149654282E1,-9.228309631E-1,1.887874146E0,1.168700913E1
4.466139583E0,-1.144504990E1,-1.315015411E0,2.269430695E0,1.174175235E1
4.476061583E0,-1.111408813E1,-1.563348999E0,2.540816345E0,1.150750898E1
4.485982583E0,-1.098340988E1,-1.477876740E0,2.835703125E0,1.143943287E1
4.495904583E0,-1.070483917E1,-1.203048248E0,3.006647644E0,1.118395444E1
4.505826583E0,-1.035501663E1,-8.319699097E-1,2.949466553E0,1.079897663E1
4.515747583E0,-1.006686584E1,-4.884342957E-1,2.684966583E0,1.043021580E1
4.525669583E0,-9.800419922E0,-2.703378296E-1,2.121837616E0,1.003112696E1
4.535590583E0,-9.371262360E0,-1.908531189E-1,1.565594330E0,9.503055758E0
4.545512583E0,-9.075178070E0,-2.595602417E-1,1.289568329E0,9.170017175E0
4.555434583E0,-9.015452271E0,-4.022135925E-1,1.004411316E0,9.080143033E0
4.565355583E0,-8.596623230E0,-5.041516113E-1,6.906637573E-1,8.639046026E0
4.575277583E0,-8.203840027E0,-5.568420410E-1,3.715274048E-1,8.231105446E0
4.585199583E0,-8.131540375E0,-4.575984192E-1,-9.056167603E-2,8.144909244E0
4.595120583E0,-7.989036713E0,-1.951940918E-1,-4.676275635E-1,8.005091122E0
4.605042583E0,-7.773484955E0,6.376739502E-2,-7.203021240E-1,7.807046162E0
4.614963583E0,-7.454348602E0,3.785627747E-1,-9.388476562E-1,7.522769289E0
4.624885583E0,-7.354805603E0,6.554869080E-1,-1.449435883E0,7.524871622E0
4.634807583E0,-7.417674866E0,8.277786255E-1,-1.663341064E0,7.646817728E0
4.644728583E0,-7.518115997E0,9.843530273E-1,-1.851649475E0,7.805102486E0
4.654650583E0,-7.131170654E0,8.686436462E-1,-2.073937225E0,7.477255666E0
4.664572583E0,-6.864425354E0,5.068460083E-1,-2.179617462E0,7.219969570E0
4.674493583E0,-6.837182007E0,-1.092727661E-2,-2.465223541E0,7.268046801E0
4.684415583E0,-6.776109009E0,-6.189628601E-1,-2.564018097E0,7.271379314E0
4.694337583E0,-6.917415161E0,-1.155596924E0,-2.470612335E0,7.435722028E0
4.704258583E0,-7.188052368E0,-1.566492462E0,-2.140848083E0,7.661933568E0
4.714180583E0,-7.613467712E0,-1.697619781E0,-1.623823242E0,7.967659973E0
4.724101583E0,-7.930358734E0,-1.651964722E0,-1.079555054E0,8.172209995E0
4.734023583E0,-8.053851929E0,-1.318458252E0,-7.128176880E-1,8.192128668E0
4.743945583E0,-8.330776062E0,-7.250921631E-1,-5.408253479E-1,8.379742269E0
4.753866583E0,-8.644074554E0,-1.618135071E-1,-4.676275635E-1,8.658226380E0
4.763788583E0,-8.746461639E0,2.019300842E-1,-3.445834351E-1,8.755575636E0
4.773710583E0,-9.140292664E0,3.673361206E-1,-3.074606323E-1,9.152836601E0
4.783631583E0,-9.531129913E0,4.727169800E-1,-3.547622681E-1,9.549437420E0
4.793553583E0,-1.018601807E1,5.742059326E-1,-4.481680298E-1,1.021202874E1
4.803474583E0,-1.077294754E1,7.527845764E-1,-6.608757019E-1,1.081941958E1
4.813396583E0,-1.123099503E1,9.969268799E-1,-8.984317017E-1,1.131089263E1
4.823318583E0,-1.204619980E1,1.340013428E0,-1.218017120E0,1.218154880E1
4.833239583E0,-1.302486465E1,2.045346680E0,-1.472487946E0,1.326645254E1
4.843161583E0,-1.377615234E1,2.789748688E0,-1.797911224E0,1.417030543E1
4.853083583E0,-1.397703461E1,3.338058472E0,-1.772464142E0,1.447901101E1
4.863004583E0,-1.426892761E1,3.413501587E0,-2.089355164E0,1.481957129E1
4.872926583E0,-1.413480652E1,2.929707642E0,-2.554138641E0,1.465945314E1
4.882848583E0,-1.425171341E1,2.065255280E0,-3.354823608E0,1.478619139E1
4.892769583E0,-1.381656830E1,1.354233856E0,-4.373904419E0,1.455549892E1
4.902690958E0,-1.302082306E1,7.095245361E-1,-4.977299652E0,1.395774946E1
4.912611958E0,-1.331585953E1,5.501060486E-1,-4.518503723E0,1.407237036E1
4.922533958E0,-1.516167114E1,8.125103760E-1,-3.412753143E0,1.556224049E1
4.932455958E0,-1.579620163E1,1.238075409E0,-2.441572723E0,1.603165912E1
4.942376958E0,-1.449585571E1,6.102809143E-1,-1.195863190E0,1.455789698E1
4.952298958E0,-1.307905197E1,-4.975653076E-1,-1.748364258E-1,1.308968065E1
4.962220958E0,-1.245260468E1,-1.732048187E0,6.432124329E-1,1.258892674E1
4.972141958E0,-1.225756027E1,-2.772235107E0,1.200503540E0,1.262435266E1
4.982063958E0,-1.253164032E1,-2.986140289E0,1.567989349E0,1.297758196E1
4.991985958E0,-1.255364456E1,-2.584076385E0,1.508113861E0,1.290526443E1
5.001906958E0,-1.183633621E1,-2.342778168E0,1.379531250E0,1.214456961E1
5.011828958E0,-1.034064651E1,-2.068847809E0,1.445543976E0,1.064418616E1
5.021749958E0,-9.399403839E0,-2.181114349E0,1.355730743E0,9.743924168E0
5.031671958E0,-8.638236694E0,-2.531385956E0,1.133742371E0,9.072619236E0
5.041593958E0,-8.120762787E0,-2.894979858E0,8.717871094E-1,8.665316462E0
5.051514958E0,-8.009544067E0,-3.429368591E0,6.719526672E-1,8.738700446E0
5.061436958E0,-7.930209045E0,-4.131708069E0,7.146139526E-1,8.970501668E0
5.071358958E0,-7.675438843E0,-4.607867889E0,1.302890625E0,9.046675185E0
5.081279958E0,-7.755821686E0,-4.491110687E0,9.729766846E-1,9.014961390E0
5.091201958E0,-7.570656738E0,-4.145180054E0,-2.032772827E-1,8.633578793E0
5.101122958E0,-7.018305359E0,-3.893104248E0,-1.222507782E0,8.118337026E0
5.111044958E0,-7.734865265E0,-3.478167114E0,-2.281256104E0,8.782363950E0
5.120966958E0,-8.309071198E0,-2.934048615E0,-3.472329254E0,9.471344988E0
5.130887958E0,-7.741601257E0,-2.876268768E0,-4.705165558E0,9.504940556E0
5.140809958E0,-6.318510590E0,-2.447560272E0,-5.049449615E0,8.450507013E0
5.150731958E0,-4.906496887E0,-1.727557526E0,-5.239554291E0,7.383162999E0
5.160652958E0,-5.414989471E0,-1.393302612E0,-5.025798798E0,7.518115236E0
5.170574958E0,-6.368356934E0,-8.704399109E-1,-4.445455627E0,7.815095099E0
5.180495958E0,-6.879244537E0,-2.387535095E-1,-4.034410400E0,7.978563525E0
5.190417958E0,-7.282655640E0,2.924917603E-1,-3.353326721E0,8.022931178E0
5.200339958E0,-7.629035339E0,5.354365540E-1,-2.686164093E0,8.105821985E0
5.210260958E0,-9.027726746E0,5.215155029E-1,-2.434986420E0,9.364880537E0
5.220182958E0,-9.699080658E0,4.897814941E-1,-2.277813263E0,9.974992972E0
5.230104958E0,-9.433832245E0,2.124082947E-1,-2.011517029E0,9.648238641E0
5.240025958E0,-8.657097473E0,-4.490661621E-2,-1.601819000E0,8.804156824E0
5.249947958E0,-8.126900024E0,-5.168751526E-1,-1.369352417E0,8.257650391E0
5.259869958E0,-7.553442535E0,-9.702822876E-1,-1.212778015E0,7.711470182E0
5.269790958E0,-6.948400726E0,-1.463806000E0,-1.028062134E0,7.174950342E0
5.279712958E0,-6.144871674E0,-1.852397919E0,-9.446855164E-1,6.487160909E0
5.289633958E0,-5.699098663E0,-2.169887695E0,-1.106199646E0,6.197726667E0
5.299555958E0,-5.160967712E0,-2.261497192E0,-1.515598297E0,5.834980332E0
5.309477958E0,-4.449048157E0,-2.204465790E0,-2.073338470E0,5.380746355E0
5.319398958E0,-4.609813843E0,-2.084565125E0,-2.636467438E0,5.704976422E0
5.329320958E0,-5.433700562E0,-2.193239136E0,-3.003953247E0,6.584765357E0
5.339242958E0,-5.975573730E0,-2.238295441E0,-3.191363525E0,7.134581210E0
5.349163958E0,-6.343658295E0,-2.265389099E0,-3.268453217E0,7.487107236E0
5.359085958E0,-6.795418854E0,-2.280657349E0,-3.434907074E0,7.948440221E0
5.369006958E0,-7.510182495E0,-2.394570465E0,-3.764521637E0,8.735469763E0
5.378928958E0,-8.758287048E0,-2.630330200E0,-4.170627136E0,1.005088850E1
5.388850958E0,-9.706415405E0,-2.608475647E0,-4.741839294E0,1.111322119E1
5.398771958E0,-1.063598236E1,-2.204914856E0,-5.627996521E0,1.223356510E1
5.408693958E0,-1.206266556E1,-1.726360016E0,-7.414381714E0,1.426398526E1
5.418615958E0,-1.441786789E1,-2.190395050E0,-1.016730698E1,1.777770728E1
5.428536958E0,-1.511571671E1,-2.924767914E0,-1.370340363E1,2.061122097E1
5.438458958E0,-1.333382217E1,-2.195783844E0,-1.685689590E1,2.160479623E1
5.448379958E0,-1.178379547E1,-1.368603973E0,-1.870600067E1,2.215051633E1
5.458301958E0,-1.108250381E1,-2.480342102E-1,-1.739891876E1,2.063021536E1
5.468223958E0,-1.066786606E1,3.586541748E-1,-1.313084427E1,1.692191095E1
5.478144958E0,-1.038016434E1,5.433700562E-1,-8.061635742E0,1.315420212E1
5.488066958E0,-9.673034821E0,3.405418396E-1,-3.992946625E0,1.047030058E1
5.497988958E0,-1.041953247E1,-1.932631073E0,-6.539900208E-1,1.061741130E1
5.507909958E0,-1.544832504E1,-4.399501190E0,2.010618896E0,1.618792592E1
5.517831958E0,-1.761132706E1,-4.842430115E0,3.532803497E0,1.860345857E1
5.527752958E0,-1.511107635E1,-4.445156250E0,3.972439270E0,1.624451650E1
5.537674958E0,-1.197644485E1,-4.837041321E0,2.911295929E0,1.324038686E1
5.547596958E0,-1.136331985E1,-5.414839783E0,1.723366241E0,1.270494074E1
5.557517958E0,-1.063358734E1,-5.133275299E0,9.310638428E-1,1.184443223E1
5.567439958E0,-9.247320099E0,-4.360582123E0,5.014572144E-1,1.023616456E1
5.577361958E0,-8.889863434E0,-3.147504730E0,7.918533325E-1,9.463798899E0
5.587282958E0,-8.954828339E0,-2.106269989E0,6.929090881E-1,9.225261343E0
5.597204958E0,-9.457183685E0,-1.496288452E0,3.228785706E-1,9.580263721E0
5.607125958E0,-9.860295410E0,-1.254541168E0,3.706292725E-1,9.946691167E0
5.617047958E0,-1.007659561E1,-1.582808533E0,5.340893555E-1,1.021412323E1
5.626969958E0,-1.013572266E1,-1.652413788E0,7.942483521E-1,1.030020269E1
5.636890958E0,-1.004111938E1,-1.562450867E0,1.085692291E0,1.021978762E1
5.646812958E0,-1.059526703E1,-1.548230438E0,1.250798950E0,1.078059363E1
5.656734958E0,-1.120539825E1,-1.370250549E0,1.442699890E0,1.138068186E1
5.666655958E0,-1.126392654E1,-1.017134857E0,1.705852661E0,1.143768061E1
5.676577958E0,-1.079390396E1,-7.363188171E-1,1.662742310E0,1.094601481E1
5.686498958E0,-9.976453857E0,-4.287084961E-1,1.716330872E0,1.013208834E1
5.696420958E0,-9.354497223E0,-2.088157654E-1,1.959275665E0,9.559758546E0
5.706342958E0,-9.396110687E0,8.202941895E-2,1.903890839E0,9.587409723E0
5.716263958E0,-9.686207428E0,6.707551575E-1,1.285975800E0,9.794195249E0
5.726185958E0,-9.657467194E0,1.173110504E0,6.400689697E-1,9.749489686E0
5.736107958E0,-9.075776825E0,1.411115570E0,7.589218140E-2,9.185136458E0
5.746028958E0,-8.284821625E0,1.217418365E0,-5.046006775E-1,8.388980789E0
5.755950958E0,-7.807763672E0,4.697232056E-1,-1.474284210E0,7.959605981E0
5.765871958E0,-7.705825653E0,1.832189941E-1,-2.228415985E0,8.023662256E0
5.775793958E0,-7.112609253E0,5.590873718E-1,-2.864143982E0,7.687984770E0
5.785715958E0,-6.097120972E0,5.764512634E-1,-3.426225128E0,7.017563597E0
5.795636958E0,-5.448220367E0,-1.642085266E-1,-4.588558044E0,7.124951546E0
5.805558958E0,-5.818101196E0,-8.183482361E-1,-5.775439911E0,8.238671102E0
5.815479958E0,-6.188580780E0,-1.262175293E0,-6.857389984E0,9.322843769E0
5.825401958E0,-5.741610260E0,-1.395547943E0,-7.060667267E0,9.206881377E0
5.835323958E0,-4.819527740E0,-1.052461395E0,-6.401288452E0,8.081585023E0
5.845244958E0,-4.850064240E0,-7.348219299E-1,-4.894222412E0,6.929393871E0
5.855166958E0,-7.004234619E0,-3.222798157E-1,-4.062551880E0,8.103548276E0
5.865088958E0,-7.747139740E0,2.965333557E-1,-2.623145142E0,8.184558425E0
5.875009958E0,-8.271199951E0,5.855822754E-1,-1.526076508E0,8.431166274E0
5.884931958E0,-8.725804596E0,7.294331360E-1,-6.309379578E-1,8.778941921E0
5.894852958E0,-8.676257629E0,9.042695618E-1,2.529739380E-2,8.723290082E0
5.904775792E0,-9.134903870E0,1.035247192E0,1.926493835E-1,9.195396633E0
5.914697792E0,-9.926008759E0,1.079555054E0,1.502874756E-1,9.985673503E0
5.924618792E0,-1.018122803E1,1.344055023E0,-1.134640503E-1,1.027018803E1
5.934540792E0,-1.040261765E1,1.360371094E0,-3.808081055E-1,1.049809879E1
5.944462792E0,-1.030517029E1,1.123862915E0,-8.023315430E-1,1.039727553E1
5.954383792E0,-1.005623795E1,8.440946960E-1,-1.281485138E0,1.017264084E1
5.964305792E0,-1.007075775E1,6.354286194E-1,-1.676663361E0,1.022913150E1
5.974226792E0,-1.023840912E1,5.498066711E-1,-2.261796570E0,1.049966820E1
5.984148792E0,-1.117635864E1,4.430786133E-1,-3.117117920E0,1.161136234E1
5.994070792E0,-1.274479706E1,5.571414185E-1,-3.762575684E0,1.330027197E1
6.003991792E0,-1.341974350E1,1.109642487E0,-4.466861115E0,1.418709520E1
6.013913792E0,-1.348605560E1,1.557211761E0,-5.146896973E0,1.451857957E1
6.023835792E0,-1.330987198E1,1.587448883E0,-5.599106598E0,1.452661973E1
6.033756792E0,-1.307111847E1,1.361718292E0,-6.040089569E0,1.446344000E1
6.043678792E0,-1.264525406E1,9.213340759E-1,-6.329886932E0,1.417105413E1
6.053599792E0,-1.166958298E1,2.594105530E-1,-6.385271759E0,1.330481703E1
6.063521792E0,-1.080797470E1,-7.577243042E-1,-6.271059265E0,1.251849222E1
6.073443792E0,-1.094044922E1,-1.966760101E0,-5.924380188E0,1.259602537E1
6.083364792E0,-1.182525925E1,-2.767145691E0,-5.176834717E0,1.320202519E1
6.093286792E0,-1.205727676E1,-2.824626160E0,-4.226011963E0,1.308493840E1
6.103207792E0,-1.274599457E1,-1.989063721E0,-3.609743500E0,1.339578292E1
6.113129792E0,-1.404604111E1,-1.008901978E0,-3.044069824E0,1.440748122E1
6.123051792E0,-1.498533783E1,-2.947370911E-1,-1.922601929E0,1.511104292E1
6.132972792E0,-1.539024582E1,-1.219963074E-1,-1.428479462E0,1.545687883E1
6.142894792E0,-1.486528748E1,-4.059558105E-1,-1.630110168E0,1.495990745E1
6.152816792E0,-1.410501846E1,-7.673043823E-1,-1.567689972E0,1.421259842E1
6.162737792E0,-1.314626221E1,-9.193881226E-1,-1.451681213E0,1.325808670E1
6.172659792E0,-1.159234360E1,-1.120869141E0,-1.375639343E0,1.172736805E1
6.182580792E0,-1.016251694E1,-1.351689148E0,-1.254990234E0,1.032854368E1
6.192502792E0,-9.583970032E0,-1.833537140E0,-1.083596649E0,9.817765617E0
6.202424792E0,-9.130712585E0,-2.555186462E0,-6.605763245E-1,9.504485849E0
6.212345792E0,-8.901688843E0,-3.202739868E0,-2.954855347E-1,9.464930989E0
6.222267792E0,-8.538094940E0,-3.632047119E0,1.698966980E-1,9.280069847E0
6.232188792E0,-7.796986084E0,-4.064348145E0,7.183561707E-1,8.822015270E0
6.242110792E0,-7.264842682E0,-4.366270294E0,1.261426849E0,8.569332131E0
6.252032792E0,-6.753955078E0,-4.774920502E0,1.556463318E0,8.416552326E0
6.261953792E0,-6.884333954E0,-4.970413971E0,1.687890015E0,8.657253706E0
6.271875792E0,-7.285799103E0,-4.862338715E0,1.779948578E0,8.938312105E0
6.281797792E0,-7.487280121E0,-4.462520142E0,1.838327179E0,8.908024272E0
6.291718792E0,-7.295828247E0,-3.673361206E0,2.286195831E0,8.482298258E0
6.301640792E0,-7.688012695E0,-2.427352295E0,3.236719208E0,8.687573286E0
6.311561792E0,-8.545429688E0,-3.153791656E0,-1.643582153E-1,9.110311958E0
6.321483792E0,-7.385641479E0,-4.081861725E0,-3.205583954E0,9.026907759E0
6.331405792E0,-6.292464752E0,-3.569776611E0,-5.451513519E0,9.058554927E0
6.341326792E0,-5.184169464E0,-2.635569305E0,-7.009024658E0,9.107593824E0
6.351248792E0,-4.671186218E0,-1.391805725E0,-7.528893585E0,8.968909771E0
6.361170792E0,-4.575535126E0,-1.501377869E-1,-7.238198090E0,8.564436620E0
6.371091792E0,-5.088668060E0,4.703219604E-1,-6.761439514E0,8.475423864E0
6.381013792E0,-5.639522552E0,3.376977539E-1,-6.015839996E0,8.252792573E0
6.390934792E0,-6.289770355E0,4.327500916E-1,-4.679419098E0,7.851461447E0
6.400856792E0,-7.295678558E0,4.016148376E-1,-3.471281433E0,8.089376669E0
6.410778792E0,-8.010891266E0,2.149530029E-1,-2.121388550E0,8.289805368E0
6.420699792E0,-8.439450073E0,5.538482666E-2,-8.409512329E-1,8.481425823E0
6.430621792E0,-8.415499878E0,-4.715194702E-2,1.112187195E-1,8.416366859E0
6.440542792E0,-7.748636627E0,-7.574249268E-2,4.870870972E-1,7.764300377E0
6.450464792E0,-7.082821198E0,-6.381230164E-1,3.393443298E-1,7.119600528E0
6.460386792E0,-6.900200958E0,-1.426383820E0,-2.667453003E-1,7.051134456E0
6.470307792E0,-7.083270264E0,-2.002086639E0,-1.151255951E0,7.450265687E0
6.480229792E0,-7.588918762E0,-1.961221619E0,-2.036365356E0,8.098448128E0
6.490150792E0,-8.148305511E0,-1.780697021E0,-2.748584290E0,8.781826700E0
6.500072792E0,-8.619375916E0,-1.556313629E0,-3.359763336E0,9.381032084E0
6.509994792E0,-9.113947449E0,-1.488205261E0,-3.900888062E0,1.002475539E1
6.519915792E0,-9.427844696E0,-1.479223938E0,-4.322710876E0,1.047655422E1
6.529837792E0,-9.389973450E0,-1.400787048E0,-4.784051514E0,1.063113139E1
6.539758792E0,-9.630672913E0,-1.369651794E0,-5.689518585E0,1.126926921E1
6.549680792E0,-1.025307861E1,-1.174757080E0,-7.486531677E0,1.274966007E1
6.559602792E0,-1.210592560E1,-1.332828369E0,-1.039273819E1,1.601058628E1
6.569523792E0,-1.383527939E1,-2.721790009E0,-1.317889435E1,1.930042364E1
6.579445792E0,-1.284763321E1,-2.822380829E0,-1.507724670E1,2.000877010E1
6.589367792E0,-1.114088242E1,-1.877994690E0,-1.770323593E1,2.100120681E1
6.599288792E0,-1.017269577E1,-1.025816803E0,-1.921374481E1,2.176474280E1
6.609210792E0,-1.021400986E1,-1.450034637E0,-1.640289001E1,1.937739401E1
6.619131792E0,-1.165790726E1,-3.872896271E0,-9.900411987E0,1.577733452E1
6.629053792E0,-1.258418106E1,-5.324727173E0,-3.170257416E0,1.402728999E1
6.638975792E0,-1.320434143E1,-4.974904633E0,1.914518738E0,1.423972228E1
6.648896792E0,-1.359233459E1,-4.379592590E0,3.715723114E0,1.475598147E1
6.658818792E0,-1.303549255E1,-4.321663055E0,3.217109985E0,1.410498615E1
6.668739792E0,-1.242910355E1,-4.355792084E0,2.171983337E0,1.334814786E1
6.678661792E0,-1.136391861E1,-3.556454315E0,1.321452026E0,1.198053625E1
6.688583792E0,-1.050710037E1,-2.214494934E0,1.042432251E0,1.078841096E1
6.698504792E0,-1.019005966E1,-1.339115295E0,1.139131165E0,1.034060760E1
6.708426792E0,-1.025158173E1,-8.574169922E-1,1.350641327E0,1.037566016E1
6.718348792E0,-1.091485245E1,-2.815644836E-1,1.743274841E0,1.105677574E1
6.728269792E0,-1.155432266E1,4.140390015E-1,2.474055176E0,1.182348297E1
6.738191792E0,-1.160357025E1,6.170169067E-1,3.210972748E0,1.205545098E1
6.748112792E0,-1.095017899E1,5.583389282E-1,3.538940735E0,1.152138289E1
6.758034792E0,-1.002719833E1,5.504054260E-1,3.075953522E0,1.050281594E1
6.767956792E0,-1.021490799E1,4.674778748E-1,2.187700653E0,1.045700315E1
6.777877792E0,-1.007360184E1,3.603007507E-1,1.495689697E0,1.019040521E1
6.787799792E0,-9.719438324E0,2.044747925E-1,9.735754395E-1,9.770217009E0
6.797720792E0,-9.614057465E0,9.145980835E-2,5.939648438E-1,9.632822020E0
6.807642792E0,-9.371561737E0,1.496887207E-4,3.257226562E-1,9.377220519E0
6.817564792E0,-8.906927948E0,-4.894821167E-2,1.950444031E-1,8.909197703E0
6.827485792E0,-8.283923492E0,-1.898052979E-1,1.432521057E-1,8.287335859E0
6.837407792E0,-7.646548920E0,-4.821473694E-1,5.583389282E-2,7.661937998E0
6.847328792E0,-7.268884277E0,-7.768844604E-1,-1.842668152E-1,7.312604349E0
6.857250792E0,-7.173981628E0,-1.088237000E0,-5.174739075E-1,7.274479460E0
6.867172792E0,-7.214696960E0,-1.359772339E0,-8.578660583E-1,7.391668771E0
6.877093792E0,-7.472610626E0,-1.435514832E0,-1.366957397E0,7.731053287E0
6.887015792E0,-7.606881409E0,-1.333876190E0,-1.924996948E0,7.959238890E0
6.896936792E0,-7.417824554E0,-1.095272369E0,-2.398911438E0,7.872643696E0
6.906858458E0,-7.189549255E0,-8.884025574E-1,-2.923271027E0,7.811811000E0
6.916780458E0,-7.054679718E0,-6.515950012E-1,-3.393592987E0,7.855542969E0
6.926701458E0,-7.178771667E0,-4.314028931E-1,-3.908222809E0,8.185052024E0
6.936623458E0,-7.488477631E0,-8.143066406E-2,-4.548591156E0,8.762055106E0
6.946545458E0,-7.732919312E0,2.471360779E-1,-4.947661285E0,9.183597852E0
6.956466458E0,-7.656428375E0,5.236111450E-1,-5.036277008E0,9.179278305E0
6.966388458E0,-7.560627594E0,7.072792053E-1,-4.868475952E0,9.020276691E0
6.976309458E0,-7.659571838E0,8.051756287E-1,-4.605173492E0,8.973570718E0
6.986231458E0,-7.930358734E0,7.458988953E-1,-4.332290955E0,9.067287341E0
6.996153458E0,-8.096363525E0,5.565426636E-1,-3.814068604E0,8.967048644E0
7.006074458E0,-8.226892090E0,3.067121887E-1,-3.191812592E0,8.829693848E0
7.015996458E0,-8.412057037E0,1.404080200E-1,-2.620600433E0,8.811921734E0
7.025917458E0,-8.705746307E0,-9.280700684E-2,-2.223176880E0,8.985607790E0
7.035839458E0,-9.046288147E0,-2.718347168E-1,-2.151925049E0,9.302688040E0
7.045761458E0,-9.152567139E0,-2.387535095E-1,-2.256108398E0,9.429555322E0
7.055682458E0,-9.113199005E0,-6.212081909E-2,-2.655627594E0,9.492450317E0
7.065604458E0,-9.206006012E0,1.073268127E-1,-3.097658386E0,9.713781612E0
7.075525458E0,-9.590855713E0,1.495390320E-1,-3.469335480E0,1.020015509E1
7.085447458E0,-1.042312500E1,3.320095825E-1,-3.517235870E0,1.100557646E1
7.095369458E0,-1.103669907E1,4.463717651E-1,-3.435805206E0,1.156774531E1
7.105290458E0,-1.188887695E1,5.547463989E-1,-3.211870880E0,1.232758100E1
7.115212458E0,-1.273761200E1,7.677534485E-1,-3.121458893E0,1.313695971E1
7.125133458E0,-1.320823334E1,1.206640778E0,-3.113974457E0,1.362388516E1
7.135055458E0,-1.337154373E1,1.747466125E0,-3.465293884E0,1.392336458E1
7.144977458E0,-1.280946259E1,2.282303925E0,-3.707041168E0,1.352898360E1
7.154898458E0,-1.267788620E1,2.383493500E0,-4.425247650E0,1.363791247E1
7.164820458E0,-1.230995132E1,2.317181396E0,-5.361849976E0,1.362547857E1
7.174741458E0,-1.195548843E1,2.082918549E0,-5.528453522E0,1.333551843E1
7.184663458E0,-1.185834045E1,1.604663086E0,-5.156327362E0,1.303007651E1
7.194585458E0,-1.206640778E1,8.997789001E-1,-4.745880890E0,1.299735297E1
7.204506458E0,-1.227881607E1,4.219725037E-1,-4.337230682E0,1.302915787E1
7.214428458E0,-1.254765701E1,1.752854919E-1,-3.855083313E0,1.312768406E1
7.224349458E0,-1.245380219E1,1.850152588E-1,-3.351979523E0,1.289834044E1
7.234271458E0,-1.259136612E1,1.889071655E-1,-2.680775299E0,1.287496574E1
7.244193458E0,-1.300705170E1,5.912704468E-2,-2.212099915E0,1.319394846E1
7.254114458E0,-1.314775909E1,-9.101074219E-2,-1.869911499E0,1.328037730E1
7.264036458E0,-1.288760010E1,-1.417552185E-1,-1.686393127E0,1.299824037E1
7.273958458E0,-1.201461548E1,-2.824626160E-1,-1.541644135E0,1.211641188E1
7.283879458E0,-1.119836288E1,-6.300398254E-1,-1.555714874E0,1.132345046E1
7.293801458E0,-1.079824493E1,-1.081501007E0,-1.667532349E0,1.097963580E1
7.303722458E0,-1.079629898E1,-1.463806000E0,-1.717528381E0,1.102962844E1
7.313644458E0,-1.088446564E1,-1.992506561E0,-1.735041962E0,1.120053772E1
7.323566458E0,-1.056098831E1,-2.468666382E0,-1.161135406E0,1.090765893E1
7.333487458E0,-1.004680756E1,-2.982398071E0,-6.195616150E-1,1.049842354E1
7.343409458E0,-9.438771973E0,-3.469784546E0,-1.431024170E-1,1.005735052E1
7.353330458E0,-9.035360870E0,-3.870800629E0,3.447331238E-1,9.835633406E0
7.363252458E0,-8.800499268E0,-4.218228149E0,8.270301819E-1,9.794192922E0
7.373174458E0,-8.565937042E0,-4.421056366E0,1.242715759E0,9.719329157E0
7.383095458E0,-8.446635132E0,-4.521796875E0,1.720971222E0,9.734168376E0
7.393017458E0,-8.341104584E0,-4.306993561E0,2.092348938E0,9.617803454E0
7.402938458E0,-8.045469360E0,-4.002077637E0,1.912872162E0,9.187234761E0
7.412860458E0,-8.139623566E0,-3.348536682E0,1.320853271E0,8.900046240E0
7.422782458E0,-8.709039459E0,-3.493135986E0,-6.251000977E-1,9.404260601E0
7.432703458E0,-8.251890106E0,-3.670966187E0,-3.548969879E0,9.703858525E0
7.442625458E0,-6.977739716E0,-2.714754639E0,-5.523364105E0,9.304100995E0
7.452546458E0,-5.830675049E0,-1.534608765E0,-6.838080139E0,9.116530896E0
7.462468458E0,-4.744384003E0,-1.972897339E-1,-7.134314117E0,8.570095725E0
7.472390458E0,-4.447401581E0,5.499563599E-1,-6.990163879E0,8.303265856E0
7.482311458E0,-5.017565918E0,6.734495544E-1,-6.784940643E0,8.465513663E0
7.492233458E0,-5.899082794E0,5.560935974E-1,-5.771098938E0,8.271275649E0
7.502154458E0,-6.502178650E0,1.920506287E-1,-4.308490448E0,7.802454779E0
7.512076458E0,-6.589596863E0,-1.805245972E-1,-2.982697449E0,7.235458521E0
7.521998458E0,-7.086862793E0,-6.417155457E-1,-1.752555542E0,7.328497391E0
7.531919458E0,-7.333549805E0,-1.181193695E0,-8.493338013E-1,7.476465688E0
7.541841458E0,-7.347470856E0,-1.593436432E0,-3.728746033E-1,7.527509755E0
7.551762458E0,-7.264692993E0,-1.920057220E0,-2.990780640E-1,7.520095192E0
7.561684458E0,-7.002737732E0,-2.177072754E0,-4.025129700E-1,7.344385489E0
7.571606458E0,-6.674320679E0,-2.342778168E0,-4.614903259E-1,7.088592201E0
7.581527458E0,-6.356232147E0,-2.278561707E0,-5.198689270E-1,6.772281319E0
7.591449458E0,-6.145470428E0,-1.734293518E0,-6.749464417E-1,6.421069498E0
7.601370458E0,-6.474486237E0,-1.243763580E0,-1.174757080E0,6.696713677E0
7.611292458E0,-7.056026917E0,-9.554631042E-1,-1.692680054E0,7.318851778E0
7.621214458E0,-7.661368103E0,-7.623646545E-1,-2.068398743E0,7.972203863E0
7.631135458E0,-8.370144196E0,-1.113384705E0,-2.440075836E0,8.789363426E0
7.641057458E0,-8.926836548E0,-1.500479736E0,-2.933300171E0,9.515466362E0
7.650978458E0,-9.535470886E0,-1.673370209E0,-3.597918091E0,1.032813572E1
7.660900458E0,-9.930649109E0,-1.805695038E0,-4.336781616E0,1.098571805E1
7.670822458E0,-1.018062927E1,-1.819765778E0,-5.457800446E0,1.169377380E1
7.680743458E0,-1.074600357E1,-1.710942078E0,-7.354206848E0,1.313347912E1
7.690665458E0,-1.171793243E1,-1.527573395E0,-9.683513031E0,1.527788747E1
7.700586458E0,-1.340776840E1,-1.954934692E0,-1.206790466E1,1.814454039E1
7.710508458E0,-1.333801346E1,-2.906505890E0,-1.387988663E1,1.946796426E1
7.720430458E0,-1.157962006E1,-2.697690125E0,-1.603405701E1,1.996136560E1
7.730351458E0,-1.039618103E1,-1.646575928E0,-1.722423203E1,2.018578612E1
7.740273458E0,-9.798024902E0,-6.659651184E-1,-1.583317474E1,1.863153842E1
7.750194458E0,-1.009904892E1,-6.921606445E-1,-1.225800934E1,1.589744220E1
7.760116458E0,-1.048898804E1,-1.971250763E0,-8.063581696E0,1.337632421E1
7.770038458E0,-1.018377274E1,-3.286864929E0,-4.483626251E0,1.160239685E1
7.779959458E0,-1.071696396E1,-4.544399872E0,-1.189576263E0,1.170128106E1
7.789881458E0,-1.321826248E1,-4.960833893E0,1.034498749E0,1.415635983E1
7.799802458E0,-1.394874344E1,-3.794309692E0,2.289339294E0,1.463575430E1
7.809724458E0,-1.269165756E1,-2.986888733E0,2.080972595E0,1.320341331E1
7.819646458E0,-1.249137405E1,-3.126847687E0,1.307980042E0,1.294304500E1
7.829567458E0,-1.210802124E1,-2.621797943E0,8.107141113E-1,1.241512224E1
7.839489458E0,-1.146585663E1,-1.865570526E0,8.168513489E-1,1.164531956E1
7.849410458E0,-1.039663010E1,-1.469643860E0,9.975256348E-1,1.054726637E1
7.859332458E0,-9.752070465E0,-1.036295013E0,1.072819061E0,9.865481562E0
7.869254458E0,-9.839039612E0,-4.239184570E-1,1.051114197E0,9.904102604E0
7.879175458E0,-9.916877747E0,6.481521606E-2,1.233734436E0,9.993536207E0
7.889097458E0,-1.003049149E1,9.430389404E-3,1.742227020E0,1.018067794E1
7.899018458E0,-1.025562332E1,-3.583547974E-1,2.297871552E0,1.051600882E1
7.908940667E0,-1.044902115E1,-6.851252747E-1,2.451302490E0,1.075454897E1
7.918862667E0,-1.075019485E1,-7.057823181E-1,2.294129333E0,1.101489208E1
7.928783667E0,-1.085617447E1,-5.613327026E-1,1.923050995E0,1.103946301E1
7.938705667E0,-1.087398743E1,-5.492079163E-1,1.253044281E0,1.095971495E1
7.948626667E0,-1.046818130E1,-2.936892700E-1,8.384065247E-1,1.050580786E1
7.958548667E0,-9.578132172E0,1.559756470E-1,7.209008789E-1,9.606489597E0
7.968470667E0,-8.815019073E0,4.044589233E-1,4.974156189E-1,8.838301340E0
7.978391667E0,-8.415050812E0,3.231779480E-1,2.981799316E-1,8.426531637E0
7.988313667E0,-8.370593262E0,-1.556762695E-2,2.341131592E-1,8.373880992E0
7.998234667E0,-8.243507538E0,-4.420307922E-1,1.990859985E-2,8.255374256E0
8.008156667E0,-8.111182709E0,-9.406439209E-1,-6.276448059E-1,8.189629657E0
8.018078667E0,-8.149802399E0,-1.183439026E0,-1.398392029E0,8.353161517E0
8.027999667E0,-7.678432617E0,-1.168769531E0,-2.113305359E0,8.049248984E0
8.037921667E0,-7.721992035E0,-1.126407623E0,-2.741848297E0,8.271377588E0
8.047842667E0,-7.922275543E0,-8.890013123E-1,-3.254232788E0,8.610621589E0
8.057764667E0,-7.427853699E0,-5.057981873E-1,-3.651356964E0,8.292240352E0
8.067686667E0,-6.918612671E0,-2.742297363E-1,-3.852837982E0,7.923809927E0
8.077607667E0,-6.752158813E0,-2.499801636E-2,-4.237987061E0,7.972001497E0
8.087529667E0,-6.861281891E0,2.760260010E-1,-4.622238007E0,8.277588038E0
8.097450667E0,-6.805897064E0,3.688330078E-1,-4.741390228E0,8.302834090E0
8.107372667E0,-6.897656250E0,3.171903992E-1,-4.297563171E0,8.133100313E0
8.117293667E0,-6.891519012E0,2.287243652E-1,-3.757785645E0,7.852789446E0
8.127215667E0,-6.915918274E0,1.375639343E-1,-3.387455750E0,7.702188381E0
8.137137667E0,-7.481442261E0,-5.044509888E-2,-2.998714142E0,8.060199099E0
8.147058667E0,-8.104446716E0,-4.314028931E-1,-2.557880859E0,8.509460590E0
8.156980667E0,-8.856482849E0,-6.855743408E-1,-2.098635864E0,9.127517358E0
8.166901667E0,-9.081015930E0,-8.747808838E-1,-1.616039429E0,9.265078270E0
8.176823667E0,-8.641978912E0,-7.194039917E-1,-1.068478088E0,8.737447399E0
8.186745667E0,-8.958420868E0,-5.992039490E-1,-7.694000244E-1,9.011344307E0
8.196666667E0,-9.408684540E0,-1.754351807E-1,-7.530839539E-1,9.440405591E0
8.206588667E0,-9.492809601E0,4.462220764E-1,-1.008752289E0,9.556679833E0
8.216509667E0,-9.488768005E0,7.496411133E-1,-1.404379578E0,9.621380465E0
8.226431667E0,-9.702673187E0,8.048762512E-1,-1.843117218E0,9.908923950E0
8.236353667E0,-9.838590546E0,8.077203369E-1,-2.212698669E0,1.011663538E1
8.246274667E0,-1.005069946E1,8.677455139E-1,-2.503693542E0,1.039413408E1
8.256196667E0,-1.033181488E1,1.026565247E0,-2.746788025E0,1.073988265E1
8.266117667E0,-1.062280975E1,1.363364868E0,-2.986888733E0,1.111864898E1
8.276039667E0,-1.105615860E1,1.813927917E0,-3.236868896E0,1.166217380E1
8.285961667E0,-1.162737076E1,2.241438904E0,-3.457510071E0,1.233588971E1
8.295882667E0,-1.195773376E1,2.618205414E0,-3.792513428E0,1.281505187E1
8.305804667E0,-1.240260864E1,2.787054291E0,-4.261338501E0,1.340713909E1
8.315725667E0,-1.289568329E1,2.690205688E0,-4.432283020E0,1.389895632E1
8.325647667E0,-1.297920959E1,2.508184204E0,-4.455484772E0,1.394998976E1
8.335569667E0,-1.288430695E1,2.302661591E0,-4.615352325E0,1.387836781E1
8.345490667E0,-1.274838959E1,2.218536530E0,-4.822222137E0,1.380931453E1
8.355412667E0,-1.233569778E1,1.966610413E0,-4.832400970E0,1.339362145E1
8.365333667E0,-1.272773254E1,1.312919769E0,-4.609813843E0,1.360034256E1
8.375255667E0,-1.299732193E1,6.355783081E-1,-3.766168213E0,1.354689485E1
8.385177667E0,-1.362227234E1,6.900650024E-2,-3.067121887E0,1.396346312E1
8.395098667E0,-1.425590469E1,2.118095398E-1,-2.601589966E0,1.449289316E1
8.405020667E0,-1.464868790E1,2.984793091E-1,-2.459086304E0,1.485665684E1
8.414941667E0,-1.455782684E1,3.787124634E-2,-2.027234344E0,1.469834806E1
8.424863667E0,-1.407942169E1,-3.950285339E-1,-1.191821594E0,1.413529630E1
8.434785667E0,-1.416384613E1,-7.499404907E-1,-5.071453857E-1,1.419274971E1
8.444706667E0,-1.354353607E1,-7.132667542E-1,1.257385254E-1,1.356288793E1
8.454628667E0,-1.251487518E1,-6.831793213E-1,7.234455872E-1,1.255437009E1
8.464549667E0,-1.115390533E1,-8.881031799E-1,9.050180054E-1,1.122574670E1
8.474471667E0,-1.004126907E1,-1.245410156E0,7.063810730E-1,1.014283517E1
8.484392667E0,-9.202563171E0,-1.776356049E0,4.555027771E-1,9.383501080E0
8.494314667E0,-8.654702454E0,-2.166295166E0,4.192781067E-1,8.931545411E0
8.504236667E0,-8.415499878E0,-2.709814911E0,2.948867798E-1,8.845942192E0
8.514157667E0,-8.297096100E0,-3.238814850E0,2.040257263E-1,8.909172342E0
8.524079667E0,-8.099656677E0,-3.595223694E0,3.671864319E-1,8.869323400E0
8.534000667E0,-8.081244965E0,-4.065545654E0,4.110452271E-1,9.055613719E0
8.543922667E0,-7.793393555E0,-4.426295471E0,5.342390442E-1,8.978557014E0
8.553844667E0,-7.754025421E0,-4.374802551E0,3.378474426E-1,8.909430312E0
8.563765667E0,-9.085805969E0,-4.171824646E0,3.906875610E-2,9.997875642E0
8.573687667E0,-1.034094589E1,-4.148772583E0,-2.741249542E0,1.147440303E1
8.583608667E0,-8.480315094E0,-3.887116699E0,-4.826563110E0,1.050338668E1
8.593530667E0,-6.557862854E0,-3.420237579E0,-5.777834930E0,9.385465721E0
8.603452667E0,-5.852679291E0,-1.901795197E0,-6.180347900E0,8.721661540E0
8.613373667E0,-5.946534119E0,-3.227288818E-1,-5.835465088E0,8.337749981E0
8.623295667E0,-6.682852936E0,3.577560425E-1,-5.479205933E0,8.649289589E0
8.633216667E0,-7.240593109E0,7.918533325E-1,-5.174439697E0,8.934654244E0
8.643138667E0,-7.056775360E0,8.857081604E-1,-5.323679352E0,8.883924767E0
8.653060667E0,-6.707850952E0,5.876779175E-1,-5.326224060E0,8.585411607E0
8.662981667E0,-5.953120422E0,4.026626587E-2,-5.213209076E0,7.913204977E0
8.672903667E0,-5.180127869E0,-5.354365540E-1,-4.430486755E0,6.837370103E0
8.682824667E0,-5.095703430E0,-8.340655518E-1,-3.313958588E0,6.135485336E0
8.692746667E0,-5.215753784E0,-1.260229340E0,-1.991009674E0,5.723319408E0
8.702667667E0,-5.642815704E0,-1.707050171E0,-4.511618042E-1,5.912608251E0
8.712589667E0,-6.101761322E0,-1.872007141E0,1.000070343E0,6.460343850E0
8.722511667E0,-6.558910675E0,-1.834734650E0,2.273621979E0,7.180175303E0
8.732432667E0,-6.647825775E0,-1.808988190E0,3.074007568E0,7.544239414E0
8.742354667E0,-6.164031830E0,-1.761387177E0,3.294349365E0,7.207670284E0
8.752275667E0,-6.810836792E0,-1.475930786E0,3.077300720E0,7.618113232E0
8.762197667E0,-6.751859436E0,-1.119671631E0,2.043849792E0,7.142730037E0
8.772119667E0,-6.386319580E0,-1.092877350E0,1.631607056E-1,6.481209771E0
8.782040667E0,-6.452032928E0,-1.097966766E0,-1.694925385E0,6.760697596E0
8.791962667E0,-6.827601929E0,-1.390458527E0,-3.195704498E0,7.665640890E0
8.801883667E0,-7.138206024E0,-1.838626556E0,-4.395609283E0,8.582302362E0
8.811805667E0,-7.794441376E0,-2.165846100E0,-5.370382233E0,9.710057210E0
8.821727667E0,-8.477171631E0,-2.485730896E0,-6.191574554E0,1.078781222E1
8.831648667E0,-9.957144012E0,-2.651286621E0,-7.473508759E0,1.272899724E1
8.841570667E0,-1.171329208E1,-2.734363861E0,-8.940009155E0,1.498671815E1
8.851491667E0,-1.451531525E1,-4.030219116E0,-9.980196075E0,1.807045535E1
8.861413667E0,-1.505778717E1,-4.699178009E0,-1.035786072E1,1.887073149E1
8.871334667E0,-1.405577087E1,-3.750450897E0,-1.092607910E1,1.819367421E1
8.881256667E0,-1.288116348E1,-2.673889618E0,-1.212583420E1,1.789161573E1
8.891178667E0,-1.189965454E1,-1.670675812E0,-1.391401566E1,1.838457961E1
8.901099667E0,-1.051817734E1,-1.001716919E0,-1.452145248E1,1.795850978E1
8.911021792E0,-1.088790848E1,-1.609602814E0,-1.274823990E1,1.684206023E1
8.920942792E0,-1.212748077E1,-2.579286346E0,-9.067843323E0,1.536080371E1
8.930864792E0,-1.348291214E1,-3.116818542E0,-4.614903259E0,1.458769378E1
8.940786792E0,-1.395562912E1,-2.618654480E0,-1.070274353E-1,1.419959120E1
8.950707792E0,-1.404933426E1,-1.895957336E0,3.232078857E0,1.454045326E1
8.960629792E0,-1.378633118E1,-2.350561981E0,4.408482513E0,1.466365531E1
8.970550792E0,-1.248808090E1,-3.741469574E0,3.331322479E0,1.345542525E1
8.980472792E0,-1.175759995E1,-4.662204895E0,1.931134186E0,1.279478762E1
8.990393792E0,-1.055784485E1,-3.956572266E0,1.601519623E0,1.138803833E1
9.000315792E0,-9.450148315E0,-3.048560486E0,1.668131104E0,1.006884728E1
9.010237792E0,-9.712253265E0,-1.980232086E0,1.334175568E0,1.000146025E1
9.020158792E0,-1.063134201E1,-1.039438477E0,8.514294434E-1,1.071591328E1
9.030080792E0,-1.116079102E1,-4.135899353E-1,6.399192810E-1,1.118676939E1
9.040001792E0,-1.103265747E1,-2.140548706E-1,6.042933655E-1,1.105126784E1
9.049923792E0,-1.059870987E1,-8.562194824E-2,8.887019348E-1,1.063624808E1
9.059845792E0,-9.937235413E0,7.499404907E-2,1.332079926E0,1.002640058E1
9.069766792E0,-9.541009369E0,1.516346741E-1,1.627116394E0,9.679946312E0
9.079688792E0,-9.571994934E0,1.329235840E-1,1.654509430E0,9.714842106E0
9.089609792E0,-9.862091675E0,3.442840576E-2,1.467398529E0,9.970721938E0
9.099531792E0,-1.003483246E1,1.158590698E-1,1.145567780E0,1.010067381E1
9.109453792E0,-1.004770569E1,1.604663086E-1,7.936495972E-1,1.008027870E1
9.119374792E0,-9.643845520E0,1.329235840E-1,4.909790039E-1,9.657250410E0
9.129296792E0,-9.317524109E0,-5.179229736E-2,1.519340515E-1,9.318906691E0
9.139217792E0,-9.238039398E0,-2.082170105E-1,-2.415975952E-1,9.243543457E0
9.149139792E0,-9.093889160E0,-1.591191101E-1,-8.135581970E-1,9.131594378E0
9.159060792E0,-9.006321259E0,-5.628295898E-2,-1.802252197E0,9.185047815E0
9.168982792E0,-8.573421478E0,5.493576050E-2,-2.830014954E0,9.028596703E0
9.178904792E0,-7.424560547E0,3.526666260E-1,-3.744014282E0,8.322626749E0
9.188825792E0,-7.231761475E0,8.698411560E-1,-5.085374908E0,8.883469796E0
9.198747792E0,-7.132817230E0,1.206042023E0,-5.968238983E0,9.378245868E0
9.208668792E0,-5.801635437E0,1.196611633E0,-5.804629211E0,8.293646570E0
9.218590792E0,-4.857548676E0,8.226892090E-1,-5.373076630E0,7.289893630E0
9.228512792E0,-4.940925293E0,4.763095093E-1,-5.003195801E0,7.047806873E0
9.238433792E0,-5.446274414E0,2.471360779E-1,-4.547693024E0,7.099612178E0
9.248355792E0,-6.159391479E0,1.254391479E-1,-3.892954559E0,7.287587638E0
9.258276792E0,-6.680308228E0,-6.436614990E-3,-3.229234772E0,7.419873089E0
9.268198792E0,-6.975045319E0,-1.706451416E-1,-2.490071869E0,7.408160019E0
9.278119792E0,-7.321574707E0,-4.489164734E-1,-1.652713165E0,7.519204945E0
9.288041792E0,-7.541018372E0,-6.840774536E-1,-7.704478455E-1,7.611078105E0
9.297963792E0,-7.889942780E0,-8.677455139E-1,7.125183105E-2,7.937836995E0
9.307884792E0,-8.308622131E0,-8.746311951E-1,6.716532898E-1,8.381485524E0
9.317806792E0,-8.680897980E0,-7.702981567E-1,8.644523621E-1,8.757775224E0
9.327727792E0,-8.806486816E0,-4.670288086E-1,5.541476440E-1,8.836255178E0
9.337649792E0,-8.948391724E0,-2.215393066E-2,-1.787283325E-1,8.950203855E0
9.347571792E0,-9.044491882E0,5.249583435E-1,-1.115180969E0,9.128090888E0
9.357492792E0,-9.114695892E0,8.283773804E-1,-2.105521545E0,9.391331709E0
9.367414792E0,-9.416767731E0,7.894583130E-1,-2.864443359E0,9.874400978E0
9.377335792E0,-9.943372650E0,6.336323547E-1,-3.298840027E0,1.049545116E1
9.387257792E0,-1.033406021E1,6.448590088E-1,-3.699706421E0,1.099529314E1
9.397178792E0,-1.067505112E1,8.595126343E-1,-3.875740356E0,1.138933017E1
9.407100792E0,-1.129266678E1,1.120719452E0,-3.773203583E0,1.195898827E1
9.417022792E0,-1.190624084E1,1.374591522E0,-3.626358948E0,1.252192286E1
9.426943792E0,-1.252026398E1,1.732497253E0,-3.576362915E0,1.313578808E1
9.436865792E0,-1.303115158E1,2.148033142E0,-3.968697052E0,1.379041385E1
9.446786792E0,-1.357407257E1,2.474953308E0,-4.361929321E0,1.447091108E1
9.456708792E0,-1.383318375E1,2.704426117E0,-4.634811859E0,1.483753262E1
9.466630792E0,-1.332693649E1,2.749482422E0,-4.878056030E0,1.445552906E1
9.476551792E0,-1.287831940E1,2.295326843E0,-5.051395569E0,1.402270420E1
9.486473792E0,-1.234123627E1,1.256187744E0,-5.201084290E0,1.345122292E1
9.496394792E0,-1.201686081E1,1.642085266E-1,-5.814808044E0,1.335080150E1
9.506316792E0,-1.147169449E1,-4.683760071E-1,-6.743027802E0,1.331493802E1
9.516238792E0,-1.204590042E1,-2.637515259E-1,-6.708150330E0,1.379030684E1
9.526159792E0,-1.353320755E1,2.279759216E-1,-5.049898682E0,1.444649287E1
9.536081792E0,-1.440424622E1,2.775228882E-1,-2.913391571E0,1.469854341E1
9.546002792E0,-1.469718704E1,-2.649490356E-2,-1.424886932E0,1.476612040E1
9.555924792E0,-1.380339569E1,-6.345304871E-1,-6.164181519E-1,1.383171475E1
9.565845792E0,-1.355506210E1,-1.089883575E0,-6.279441833E-1,1.361329750E1
9.575767792E0,-1.279239807E1,-1.289119263E0,-4.866380310E-1,1.286639396E1
9.585688792E0,-1.155656799E1,-1.532213745E0,-1.287322998E-1,1.165840961E1
9.595610792E0,-1.043734543E1,-1.588197327E0,1.092727661E-2,1.055749354E1
9.605532792E0,-9.439819794E0,-1.732048187E0,-9.954299927E-2,9.597921518E0
9.615453792E0,-8.742719421E0,-2.055675201E0,-3.183879089E-1,8.986785536E0
9.625375792E0,-8.442443848E0,-2.467618561E0,-3.704795837E-1,8.803479687E0
9.635296792E0,-8.308322754E0,-2.756817169E0,-3.677851868E-1,8.761480116E0
9.645218792E0,-8.335865479E0,-2.970422974E0,-4.534071350E-1,8.860905368E0
9.655140792E0,-8.454718323E0,-3.056643677E0,-4.379891968E-1,9.000953673E0
9.665061792E0,-8.434210968E0,-3.005749512E0,-3.823049927E-1,8.961953017E0
9.674983792E0,-8.084538116E0,-2.982248383E0,-4.159849548E-1,8.627085571E0
9.684904792E0,-7.733368378E0,-2.757415924E0,-1.773811340E-1,8.212173471E0
9.694826792E0,-7.476801910E0,-2.517913971E0,-1.945953369E-2,7.889412921E0
9.704748792E0,-7.405400391E0,-2.352208557E0,6.406677246E-2,7.770260265E0
9.714669792E0,-7.530839539E0,-2.153721313E0,-9.879455566E-3,7.832761790E0
9.724591792E0,-7.947273560E0,-1.615889740E0,-1.742376709E-1,8.111757852E0
9.734512792E0,-9.035211182E0,-6.167175293E-1,-1.361119537E0,9.157948897E0
9.744434792E0,-9.364077301E0,-3.881428528E-1,-3.507506104E0,1.000695746E1
9.754355792E0,-7.847131805E0,-8.801696777E-2,-5.454207916E0,9.556861857E0
9.764277792E0,-6.733597412E0,6.319857788E-1,-6.718927917E0,9.533348441E0
9.774199792E0,-6.295458527E0,1.336720276E0,-7.310048676E0,9.739426615E0
9.784120792E0,-6.273753662E0,2.254461823E0,-7.003186798E0,9.668878345E0
9.794042792E0,-6.845863953E0,2.564616852E0,-5.956263885E0,9.429750385E0
9.803963792E0,-7.377558289E0,2.260449371E0,-4.514312439E0,8.939631674E0
9.813885792E0,-7.234156494E0,1.337319031E0,-2.979404297E0,7.937146360E0
9.823806792E0,-7.170239410E0,2.761756897E-1,-1.517993317E0,7.334364998E0
9.833728792E0,-7.388635254E0,-5.457650757E-1,-1.493893433E-1,7.410270414E0
9.843650792E0,-7.397766266E0,-1.140628052E0,1.059197388E0,7.559753778E0
9.853571792E0,-7.108417969E0,-1.521286469E0,1.913021851E0,7.516885734E0
9.863493792E0,-6.539301453E0,-2.077829132E0,2.034419403E0,7.156724090E0
9.873414792E0,-5.847290497E0,-2.745590515E0,1.714235229E0,6.683388052E0
9.883336792E0,-5.039420471E0,-3.100652161E0,1.032253418E0,6.006275853E0
9.893257792E0,-5.183720398E0,-2.985691223E0,1.273851013E-1,5.983438494E0
9.903179792E0,-5.402864685E0,-2.332449646E0,-7.738906860E-1,5.935501238E0
9.913100792E0,-6.379733276E0,-1.484463043E0,-1.747615814E0,6.779291131E0
9.923021792E0,-8.162076874E0,-1.068328400E0,-2.709665222E0,8.666205056E0
9.932943792E0,-9.497150574E0,-1.002465363E0,-3.232228546E0,1.008206860E1
9.942864792E0,-1.029588959E1,-1.255588989E0,-3.713926849E0,1.101703675E1
9.952786792E0,-1.098625397E1,-2.173480225E0,-4.236639862E0,1.197375922E1
9.962708792E0,-1.079001205E1,-3.201692047E0,-4.792134705E0,1.223273261E1
9.972629792E0,-1.061412781E1,-4.428989868E0,-6.002817078E0,1.297341409E1
9.982551792E0,-1.207299408E1,-5.776338043E0,-8.450826416E0,1.582844700E1
9.992472792E0,-1.418091064E1,-5.742059326E0,-1.151719986E1,1.914981370E1
1.000239479E1,-1.464299973E1,-4.089196472E0,-1.347512833E1,2.031546338E1
1.001231579E1,-1.253568192E1,-3.336561584E0,-1.549517761E1,2.020832733E1
1.002223779E1,-1.039633072E1,-2.644400940E0,-1.918201080E1,2.197785447E1
1.003215979E1,-9.010512543E0,-1.264720001E0,-2.027518753E1,2.222323294E1
1.004208079E1,-9.455986176E0,-3.406915283E-1,-1.561597641E1,1.825898312E1
1.005200279E1,-1.162243103E1,-1.116977234E0,-8.314609680E0,1.433392045E1
1.006192379E1,-1.343815521E1,-2.180066528E0,-7.334747314E-2,1.361404001E1
1.007184579E1,-1.602088440E1,-2.145039368E0,6.430627441E0,1.739605990E1
1.008176679E1,-1.800605621E1,-7.768844604E-1,8.314909058E0,1.984840856E1
1.009168879E1,-1.541464508E1,-1.517993317E0,5.697302399E0,1.650378264E1
1.010161079E1,-1.340178085E1,-3.460803223E0,2.980152740E0,1.415860867E1
1.011153179E1,-1.218885315E1,-4.222718811E0,1.850302277E0,1.303161977E1
1.012145379E1,-1.051308792E1,-3.815565491E0,1.532213745E0,1.128854449E1
1.013137479E1,-9.744136963E0,-3.037483521E0,1.297801208E0,1.028877054E1
1.014129679E1,-1.005309448E1,-2.184706879E0,5.270539856E-1,1.030123482E1
1.015121879E1,-1.117950211E1,-9.749226379E-1,2.727328491E-1,1.122524497E1
1.016113979E1,-1.180669785E1,-1.008901978E-1,5.891748047E-1,1.182181965E1
1.017106179E1,-1.174697205E1,9.505233765E-2,1.121467896E0,1.180076597E1
1.018098279E1,-1.142289597E1,5.448669434E-2,1.363215179E0,1.150408087E1
1.019090479E1,-1.076261902E1,1.332229614E-2,1.447190552E0,1.085948922E1
1.020082579E1,-1.009440857E1,2.604583740E-2,1.438059540E0,1.019636102E1
1.021074779E1,-9.750723267E0,-7.185058594E-3,1.225052490E0,9.827380600E0
1.022066979E1,-9.664652252E0,-6.182144165E-2,9.148974609E-1,9.708056572E0
1.023059079E1,-9.337133331E0,1.149609375E-1,7.032376099E-1,9.364284169E0
1.024051279E1,-8.793164520E0,2.077679443E-1,6.801855469E-1,8.821879742E0
1.025043379E1,-8.442892914E0,1.445993042E-1,6.215075684E-1,8.466972385E0
1.026035579E1,-8.254584503E0,-4.116439819E-2,4.870870972E-1,8.269045511E0
1.027027679E1,-8.115972748E0,-1.718426514E-1,3.638932800E-1,8.125943752E0
1.028019879E1,-7.904163208E0,-1.779798889E-1,2.103126526E-1,7.908963540E0
1.029012079E1,-7.646997986E0,-1.682501221E-1,1.035845947E-1,7.649550057E0
1.030004179E1,-7.587721252E0,3.143463135E-2,-2.881507874E-1,7.593255746E0
1.030996379E1,-7.610923004E0,3.338058472E-1,-1.036893768E0,7.688479954E0
1.031988479E1,-7.382647705E0,5.468128967E-1,-1.944306793E0,7.653941494E0
1.032980679E1,-7.124284973E0,6.566844177E-1,-3.208577728E0,7.841023010E0
1.033972779E1,-6.741979980E0,7.984396362E-1,-4.046535187E0,7.903559130E0
1.034964979E1,-6.181994476E0,9.413923645E-1,-4.671036530E0,7.805245515E0
1.035957179E1,-5.781577148E0,8.205935669E-1,-5.132676544E0,7.774598165E0
1.036949279E1,-5.482050018E0,4.502636719E-1,-5.313051453E0,7.647491452E0
1.037941479E1,-5.261558533E0,-1.716929626E-1,-5.179379425E0,7.385082795E0
1.038933579E1,-5.278323669E0,-1.248553619E0,-4.517156525E0,7.058632302E0
1.039925779E1,-5.800437927E0,-2.226470032E0,-3.834426270E0,7.301032377E0
1.040917879E1,-6.316414948E0,-2.714604950E0,-3.048859863E0,7.520752907E0
1.041910079E1,-6.758745117E0,-2.709665222E0,-2.297721863E0,7.635603901E0
1.042902279E1,-7.396419067E0,-2.223775635E0,-1.502725067E0,7.868314668E0
1.043894379E1,-8.028105469E0,-1.463356934E0,-9.330097961E-1,8.213549672E0
1.044886579E1,-8.525820465E0,-6.789880371E-1,-7.114704895E-1,8.582355715E0
1.045878679E1,-9.069190521E0,-7.065307617E-2,-6.503974915E-1,9.092756758E0
1.046870879E1,-9.688003693E0,4.587959290E-1,-6.792874146E-1,9.722620050E0
1.047862979E1,-1.034977753E1,9.131011963E-1,-8.677455139E-1,1.042615130E1
1.048855179E1,-1.116183884E1,1.304088135E0,-1.343156891E0,1.131774547E1
1.049847379E1,-1.169308411E1,1.660646667E0,-2.037263489E0,1.198484067E1
1.050839479E1,-1.188558380E1,1.838327179E0,-2.799628143E0,1.234846010E1
1.051831679E1,-1.210323120E1,2.000440063E0,-3.531007233E0,1.276549952E1
1.052823779E1,-1.261860947E1,2.310445404E0,-4.370611267E0,1.355247969E1
1.053815979E1,-1.318383408E1,2.873274994E0,-5.233267365E0,1.447260438E1
1.054808079E1,-1.356479187E1,3.672014008E0,-5.908363495E0,1.524454081E1
1.055800279E1,-1.368124969E1,4.266278229E0,-6.290219421E0,1.565070553E1
1.056792479E1,-1.364816849E1,4.152814178E0,-6.451434174E0,1.565692727E1
1.057784579E1,-1.322410034E1,3.396886139E0,-6.558162231E0,1.514678702E1
1.058776779E1,-1.228929428E1,1.831890564E0,-6.914720764E0,1.421956189E1
1.059768879E1,-1.130883316E1,3.941304016E-1,-6.916517029E0,1.326209840E1
1.060761079E1,-1.112666199E1,1.478924561E-1,-6.239924011E0,1.275778707E1
1.061753179E1,-1.174921738E1,1.158890076E0,-5.343288574E0,1.295908438E1
1.062745379E1,-1.251352798E1,1.909279633E0,-4.604874115E0,1.346991451E1
1.063737579E1,-1.275377838E1,1.452279968E0,-3.177292786E0,1.322358384E1
1.064729679E1,-1.313982559E1,6.396199036E-1,-1.904190216E0,1.329248173E1
1.065721879E1,-1.330657883E1,-2.743794250E-1,-1.112785950E0,1.335584579E1
1.066713979E1,-1.364786911E1,-1.324146423E0,-4.050576782E-1,1.371793595E1
1.067706179E1,-1.390458527E1,-1.642983398E0,2.508782959E-1,1.400356475E1
1.068698279E1,-1.348919907E1,-1.601819000E0,4.417314148E-1,1.359115309E1
1.069690479E1,-1.295615753E1,-1.446741486E0,3.376977539E-1,1.304105512E1
1.070682679E1,-1.221474930E1,-1.374142456E0,8.397537231E-2,1.229208769E1
1.071674779E1,-1.117875366E1,-1.448238373E0,6.391708374E-2,1.127235615E1
1.072666979E1,-1.026565247E1,-1.671124878E0,2.656974792E-1,1.040417580E1
1.073659079E1,-9.735455017E0,-2.124831390E0,3.324586487E-1,9.970181622E0
1.074651279E1,-9.448052673E0,-2.589165802E0,4.249662781E-1,9.805614474E0
1.075643379E1,-9.442214813E0,-3.157982941E0,4.468208313E-1,9.966339633E0
1.076635579E1,-9.278305664E0,-3.852239227E0,4.559518433E-1,1.005656975E1
1.077627779E1,-8.989406433E0,-4.365072784E0,8.102650452E-1,1.002595720E1
1.078619879E1,-8.261769562E0,-4.554279327E0,9.804611206E-1,9.484703501E0
1.079612079E1,-7.870932312E0,-4.383484497E0,1.273701324E0,9.098836566E0
1.080604179E1,-8.069419556E0,-3.943100281E0,1.384321289E0,9.087349296E0
1.081596379E1,-8.593030701E0,-3.984863434E0,-5.763015747E-1,9.489543546E0
1.082588479E1,-8.279432831E0,-4.165837097E0,-3.307671661E0,9.840929760E0
1.083580679E1,-7.452552338E0,-3.508853302E0,-5.171296234E0,9.725990571E0
1.084572879E1,-6.710695038E0,-2.383044434E0,-6.479875031E0,9.628141517E0
1.085564979E1,-5.892047424E0,-1.260828094E0,-7.040758667E0,9.267048772E0
1.086557179E1,-5.312602386E0,-1.381626892E-1,-6.928192749E0,8.731705894E0
1.087549279E1,-5.142406311E0,6.273454285E-1,-6.583609314E0,8.377458836E0
1.088541479E1,-5.322930908E0,1.072070618E0,-6.060147858E0,8.136849570E0
1.089533579E1,-5.614823914E0,1.164578247E0,-5.376220093E0,7.860421907E0
1.090525779E1,-6.264622650E0,9.943821716E-1,-4.417912903E0,7.729957779E0
1.091517892E1,-6.691834259E0,6.845265198E-1,-3.151097260E0,7.428232377E0
1.092510092E1,-7.190896454E0,3.308120728E-1,-1.855990448E0,7.433917472E0
1.093502292E1,-7.523055725E0,-2.142045593E-1,-5.403762817E-1,7.545479280E0
1.094494392E1,-7.490423584E0,-9.036708069E-1,6.155200195E-1,7.569803914E0
1.095486592E1,-7.094347229E0,-1.226549377E0,1.425335999E0,7.339330262E0
1.096478692E1,-6.860084381E0,-1.455573120E0,2.109563141E0,7.323230672E0
1.097470892E1,-6.713838501E0,-1.874102783E0,2.367626495E0,7.361626443E0
1.098462992E1,-6.353388062E0,-2.218087463E0,2.077679443E0,7.042883197E0
1.099455192E1,-5.961802368E0,-2.412233734E0,1.218466187E0,6.545732878E0
1.100447392E1,-5.291945343E0,-2.486329651E0,6.750961304E-2,5.847313759E0
1.101439492E1,-4.646188202E0,-2.554438019E0,-9.297166443E-1,5.382990938E0
1.102431692E1,-5.201982422E0,-2.661914520E0,-1.813478851E0,6.118424272E0
1.103423792E1,-6.220015411E0,-2.695594482E0,-2.756817169E0,7.318118763E0
1.104415992E1,-6.992259521E0,-2.864443359E0,-3.606749725E0,8.372895112E0
1.105408092E1,-8.275091858E0,-3.183879089E0,-4.363126831E0,9.881857470E0
1.106400292E1,-9.982291718E0,-3.325334930E0,-4.977599030E0,1.163960877E1
1.107392492E1,-1.126781845E1,-3.278482361E0,-5.633684692E0,1.301731856E1
1.108384592E1,-1.188244034E1,-2.981799316E0,-6.760840759E0,1.399258673E1
1.109376792E1,-1.230680786E1,-2.420466614E0,-8.775052185E0,1.530744000E1
1.110368892E1,-1.339279953E1,-2.189796295E0,-1.153381531E1,1.780986195E1
1.111361092E1,-1.469673798E1,-3.397035828E0,-1.339803864E1,2.017526701E1
1.112353192E1,-1.434077820E1,-3.287463684E0,-1.444885345E1,2.062121973E1
1.113345392E1,-1.196656540E1,-1.635498962E0,-1.662457901E1,2.054872676E1
1.114337592E1,-1.107022934E1,1.585203552E-1,-1.837399109E1,2.145177510E1
1.115329692E1,-9.765542450E0,1.476978607E0,-1.671544006E1,1.941528320E1
1.116321892E1,-9.026978302E0,2.119143219E0,-1.188752975E1,1.507615564E1
1.117313992E1,-8.528514862E0,5.819897461E-1,-6.341562653E0,1.064376318E1
1.118306192E1,-8.801846466E0,-1.453926544E0,-5.715115356E-1,8.939408764E0
1.119298292E1,-1.282562897E1,-3.490441589E0,4.828209686E0,1.414183686E1
1.120290492E1,-1.692156143E1,-4.952451324E0,8.503367157E0,1.957481209E1
1.121282592E1,-1.498159561E1,-5.547014923E0,7.597750397E0,1.769020612E1
1.122274792E1,-1.307980042E1,-6.489305420E0,3.568429413E0,1.503083338E1
1.123266992E1,-1.332109863E1,-6.415957947E0,-6.688092041E-1,1.480079359E1
1.124259092E1,-1.183139648E1,-3.379671936E0,-4.507576447E0,1.310428825E1
1.125251292E1,-9.818232880E0,-9.039701843E-1,-2.953208771E0,1.029253618E1
1.126243392E1,-8.989406433E0,-2.327659607E-1,7.566764832E-1,9.024198985E0
1.127235592E1,-9.927805023E0,-9.328601074E-1,1.804647217E0,1.013352318E1
1.128227692E1,-1.121033798E1,-4.950205994E-1,1.990560608E0,1.139644921E1
1.129219892E1,-1.181088913E1,-1.315763855E-1,1.973346405E0,1.197532924E1
1.130212092E1,-1.190055267E1,-1.055305481E-1,1.704505463E0,1.202246354E1
1.131204192E1,-1.190698929E1,-6.083349609E-1,1.337468719E0,1.199730336E1
1.132196392E1,-1.185729263E1,-9.931846619E-1,1.238823853E0,1.196313040E1
1.133188492E1,-1.170431076E1,-1.491947479E0,1.088686066E0,1.184913647E1
1.134180692E1,-1.138457565E1,-1.856439514E0,9.771679688E-1,1.157625966E1
1.135172792E1,-1.081965042E1,-1.849703522E0,9.870474243E-1,1.102091198E1
1.136164992E1,-1.004546036E1,-1.735940094E0,6.698570251E-1,1.021633350E1
1.137157192E1,-9.477241974E0,-1.597328339E0,-2.395019531E-2,9.610938917E0
1.138149292E1,-9.382638702E0,-1.005758514E0,-9.648934937E-1,9.485593216E0
1.139141492E1,-8.809181213E0,-2.308200073E-1,-1.663041687E0,8.967756641E0
1.140133592E1,-8.335715790E0,3.315605164E-1,-2.145638123E0,8.613817566E0
1.141125792E1,-7.798632660E0,9.187893677E-1,-2.438279572E0,8.222411601E0
1.142117892E1,-7.219037933E0,1.379830627E0,-2.889740753E0,7.897407351E0
1.143110092E1,-6.484814758E0,1.641935577E0,-3.425326996E0,7.515426795E0
1.144102192E1,-5.918542328E0,1.796564026E0,-3.723955994E0,7.219739180E0
1.145094392E1,-5.394182739E0,1.677561493E0,-3.768114166E0,6.790442133E0
1.146086592E1,-5.130880280E0,1.263073425E0,-3.731739807E0,6.468938778E0
1.147078692E1,-5.205724640E0,9.458830261E-1,-3.567381592E0,6.381259683E0
1.148070892E1,-5.322481842E0,7.827223206E-1,-3.368594971E0,6.347353722E0
1.149062992E1,-5.366340637E0,7.629634094E-1,-2.985840912E0,6.188293056E0
1.150055192E1,-5.560337219E0,6.764433289E-1,-2.508333893E0,6.137317369E0
1.151047292E1,-5.929918671E0,2.065704346E-1,-2.270777893E0,6.353191247E0
1.152039492E1,-5.967340851E0,-2.727328491E-1,-1.979483643E0,6.293003697E0
1.153031692E1,-6.002068634E0,-7.966433716E-1,-1.439706116E0,6.223521692E0
1.154023792E1,-6.333778839E0,-1.525777130E0,-9.907896423E-1,6.589872104E0
1.155015992E1,-6.573280792E0,-2.127376099E0,-7.105723572E-1,6.945405857E0
1.156008092E1,-6.991810455E0,-2.378553772E0,-6.586303711E-1,7.414629152E0
1.157000292E1,-7.518714752E0,-2.347119141E0,-7.560777283E-1,7.912755103E0
1.157992392E1,-7.877219238E0,-2.059118042E0,-9.909393311E-1,8.201982126E0
1.158984592E1,-8.256380768E0,-1.828447723E0,-1.406325531E0,8.572560642E0
1.159976692E1,-8.916508026E0,-1.748513947E0,-1.818268890E0,9.266472800E0
1.160968892E1,-9.743687897E0,-1.333427124E0,-2.344574432E0,1.011011924E1
1.161961092E1,-1.025667114E1,-5.821394348E-1,-3.121907959E0,1.073706191E1
1.162953192E1,-1.089778793E1,3.936813354E-2,-3.739373932E0,1.152155585E1
1.163945392E1,-1.181837357E1,7.476951599E-1,-4.048630829E0,1.251496757E1
1.164937492E1,-1.298025742E1,1.682950287E0,-4.106111298E0,1.371785531E1
1.165929692E1,-1.429242874E1,3.047662354E0,-4.458777924E0,1.527882409E1
1.166921792E1,-1.522094788E1,4.858297119E0,-5.312901764E0,1.683767295E1
1.167913992E1,-1.584709579E1,6.587800598E0,-6.096821594E0,1.821265481E1
1.168906192E1,-1.642055328E1,7.123087463E0,-6.155798950E0,1.892793718E1
1.169898292E1,-1.535012924E1,5.702092438E0,-5.617967377E0,1.731190005E1
1.170890492E1,-1.334519852E1,2.693049774E0,-5.878425751E0,1.482911764E1
1.171882592E1,-1.156480087E1,-6.466552734E-2,-6.122268677E0,1.308552539E1
1.172874792E1,-1.051697983E1,-1.205293579E0,-5.793402557E0,1.206744010E1
1.173866892E1,-1.051623138E1,-1.125060425E0,-5.328619080E0,1.184276424E1
1.174859092E1,-1.124027573E1,7.180567932E-1,-4.499343567E0,1.212862303E1
1.175851192E1,-1.310719345E1,1.928140411E0,-3.606899414E0,1.373047592E1
1.176843392E1,-1.466230957E1,1.292412415E0,-3.215313721E0,1.506625017E1
1.177835592E1,-1.418674850E1,3.523672485E-1,-2.790197754E0,1.446282128E1
1.178827692E1,-1.440065369E1,-1.060993652E0,-1.636846161E0,1.453216431E1
1.179819892E1,-1.353724915E1,-2.169139252E0,3.038681030E-2,1.370996728E1
1.180811992E1,-1.296379166E1,-2.383194122E0,1.192270660E0,1.323484105E1
1.181804192E1,-1.321481964E1,-2.003284149E0,1.056502991E0,1.340749060E1
1.182796292E1,-1.310958847E1,-1.741328888E0,6.382727051E-1,1.324012569E1
1.183788492E1,-1.233914062E1,-1.863025818E0,6.870712280E-1,1.249789276E1
1.184780592E1,-1.122710312E1,-2.374811554E0,7.646099854E-1,1.150096530E1
1.185772792E1,-1.036205200E1,-2.719095612E0,6.283932495E-1,1.073128514E1
1.186764992E1,-9.723779297E0,-3.001109161E0,3.385958862E-1,1.018200310E1
1.187757092E1,-9.126221924E0,-3.078797607E0,3.757186890E-2,9.631631895E0
1.188749292E1,-8.786278839E0,-3.219205627E0,-1.986369324E-1,9.359563950E0
1.189741392E1,-8.646170197E0,-3.555556183E0,-2.038760376E-1,9.350925317E0
1.190733579E1,-8.502169647E0,-3.808230743E0,-2.724334717E-1,9.320071357E0
1.191725679E1,-8.080197144E0,-3.918102264E0,-5.406756592E-1,8.996301540E0
1.192717879E1,-7.582033081E0,-3.564088440E0,-8.114625549E-1,8.417150559E0
1.193710079E1,-7.467221832E0,-2.868784332E0,-7.298822021E-1,8.032562074E0
1.194702179E1,-8.071814575E0,-2.985691223E0,-2.243534546E0,8.893929945E0
1.195694379E1,-7.317084045E0,-3.592678986E0,-4.157454529E0,9.150491210E0
1.196686479E1,-6.065536652E0,-3.553011475E0,-4.637356567E0,8.421383577E0
1.197678679E1,-5.494174805E0,-3.101699982E0,-4.892426147E0,7.983879581E0
1.198670779E1,-5.409600677E0,-2.300715637E0,-4.808899841E0,7.594905504E0
1.199662979E1,-5.624403992E0,-1.314266968E0,-4.352648621E0,7.232341802E0
1.200655079E1,-6.140979767E0,-3.008743286E-1,-3.743265839E0,7.198207902E0
1.201647279E1,-6.597380676E0,3.365002441E-1,-3.334765320E0,7.399954320E0
1.202639479E1,-6.868466949E0,7.518864441E-1,-3.170706482E0,7.602272756E0
1.203631579E1,-7.032226410E0,1.182091827E0,-2.902314606E0,7.698894689E0
1.204623779E1,-7.057972870E0,1.205443268E0,-2.508633270E0,7.586917384E0
1.205615879E1,-7.098688202E0,1.275347900E0,-2.162702637E0,7.529619456E0
1.206608079E1,-7.228468323E0,1.191821594E0,-1.847458191E0,7.555414931E0
1.207600179E1,-6.993606720E0,6.159690857E-1,-1.635049896E0,7.208560261E0
1.208592379E1,-6.944059753E0,-2.691403198E-1,-1.128203888E0,7.040258971E0
1.209584479E1,-6.869814148E0,-1.059347076E0,-3.353027344E-1,6.959094092E0
1.210576679E1,-6.664740601E0,-1.816772003E0,3.454815674E-1,6.916558776E0
1.211568879E1,-6.468049622E0,-2.464325409E0,8.119116211E-1,6.969057763E0
1.212560979E1,-5.945935364E0,-2.750081177E0,9.002279663E-1,6.612677538E0
1.213553179E1,-5.385351105E0,-2.778072968E0,5.773493958E-1,6.087119866E0
1.214545279E1,-5.402116241E0,-2.841540985E0,-3.293151855E-3,6.103869748E0
1.215537479E1,-6.218069458E0,-2.851270752E0,-8.382568359E-1,6.891792743E0
1.216529579E1,-6.768025818E0,-2.850671997E0,-1.710642700E0,7.540477621E0
1.217521779E1,-7.367379456E0,-3.162623291E0,-2.710413666E0,8.463262277E0
1.218513879E1,-9.054071960E0,-3.683540039E0,-3.637435913E0,1.042955542E1
1.219506079E1,-9.871821442E0,-3.771706696E0,-4.383334808E0,1.144081527E1
1.220498279E1,-1.013302826E1,-3.710633698E0,-5.180876312E0,1.197031927E1
1.221490379E1,-1.035935760E1,-3.534001007E0,-5.988147583E0,1.247651252E1
1.222482579E1,-1.083746338E1,-3.311713257E0,-6.909331970E0,1.327241219E1
1.223474679E1,-1.150687134E1,-2.836152191E0,-8.476123810E0,1.457039883E1
1.224466879E1,-1.291933411E1,-2.624342651E0,-1.110061615E1,1.723426955E1
1.225458979E1,-1.456082062E1,-3.946842499E0,-1.388886795E1,2.050599219E1
1.226451179E1,-1.393272675E1,-3.642225952E0,-1.636756348E1,2.180100499E1
1.227443379E1,-1.149250122E1,-2.502346344E0,-1.943468536E1,2.271665285E1
1.228435479E1,-9.669891357E0,-1.505569153E0,-2.064177521E1,2.284417696E1
1.229427679E1,-8.489745483E0,-8.827143860E-1,-1.718216949E1,1.918546094E1
1.230419779E1,-1.013871643E1,-9.894424438E-1,-1.081366287E1,1.485624017E1
1.231411979E1,-1.217044144E1,-2.101629639E0,-4.045637054E0,1.299629451E1
1.232404079E1,-1.271351212E1,-3.551514587E0,2.396965485E0,1.341611306E1
1.233396279E1,-1.510733414E1,-2.880460052E0,6.311774597E0,1.662429227E1
1.234388379E1,-1.495959137E1,-2.021995239E0,6.536756744E0,1.645013761E1
1.235380579E1,-1.477367798E1,-3.774401093E0,4.931045837E0,1.602569430E1
1.236372779E1,-1.435395081E1,-4.790188751E0,3.829187164E0,1.560911549E1
1.237364879E1,-1.315120193E1,-4.171974335E0,2.715054016E0,1.406168555E1
1.238357079E1,-1.152782776E1,-3.437751160E0,1.290466461E0,1.209852262E1
1.239349179E1,-1.047671356E1,-2.098037109E0,-2.023791504E-1,1.068663858E1
1.240341379E1,-1.037507492E1,-1.074615326E0,-9.677375793E-1,1.047537559E1
1.241333479E1,-1.026071274E1,-4.885839844E-1,-1.340013428E0,1.035937142E1
1.242325679E1,-1.024230103E1,-4.799020386E-1,-1.036145325E0,1.030575729E1
1.243317779E1,-1.025906616E1,-6.954537964E-1,-3.956272888E-1,1.029021941E1
1.244309979E1,-1.004111938E1,-8.008346558E-1,1.404080200E-1,1.007398278E1
1.245302079E1,-9.855355682E0,-7.086264038E-1,2.767744446E-1,9.884674557E0
1.246294279E1,-9.799222412E0,-6.233038330E-1,3.026705933E-1,9.823689584E0
1.247286479E1,-9.510023804E0,-6.259982300E-1,2.854563904E-1,9.534878703E0
1.248278579E1,-9.232650604E0,-6.994953918E-1,2.725831604E-1,9.263122182E0
1.249270779E1,-9.042845306E0,-8.024812317E-1,2.516267395E-1,9.081868936E0
1.250262879E1,-8.868158569E0,-8.966354370E-1,5.269042969E-2,8.913527237E0
1.251255079E1,-8.374784546E0,-7.508386230E-1,-1.591191101E-1,8.409880720E0
1.252247179E1,-7.859855347E0,-5.095404053E-1,-2.469863892E-1,7.880225871E0
1.253239379E1,-7.584727478E0,-2.423460388E-1,-3.242257690E-1,7.595521369E0
1.254231579E1,-7.336842957E0,6.795867920E-2,-3.770658875E-1,7.346840248E0
1.255223679E1,-7.104675751E0,2.998265076E-1,-3.948788452E-1,7.121954982E0
1.256215879E1,-6.857689362E0,4.816983032E-1,-3.011737061E-1,6.881180294E0
1.257207979E1,-6.658453674E0,6.225553894E-1,-3.960763550E-1,6.699213165E0
1.258200179E1,-6.555467834E0,7.340734863E-1,-6.617738342E-1,6.629552550E0
1.259192279E1,-6.458768921E0,8.657995605E-1,-9.592053223E-1,6.586757905E0
1.260184479E1,-6.259233856E0,9.351054382E-1,-1.485211487E0,6.500637185E0
1.261176579E1,-6.228996735E0,9.270222473E-1,-2.227817230E0,6.680040432E0
1.262168779E1,-6.211333466E0,9.352551270E-1,-2.775378571E0,6.867174949E0
1.263160879E1,-6.386918335E0,9.295669556E-1,-3.063828735E0,7.144499077E0
1.264153079E1,-6.611750793E0,6.762936401E-1,-3.472928009E0,7.498923296E0
1.265145279E1,-6.729555817E0,3.463796997E-1,-3.990252228E0,7.831284264E0
1.266137379E1,-6.798113251E0,-2.722837830E-1,-4.433630219E0,8.120687110E0
1.267129579E1,-6.822512512E0,-7.828720093E-1,-4.425996094E0,8.170006547E0
1.268121679E1,-6.991062012E0,-1.154848480E0,-4.308191071E0,8.292715681E0
1.269113879E1,-7.528294830E0,-1.632804565E0,-4.356839905E0,8.850046766E0
1.270105979E1,-7.817643127E0,-1.594035187E0,-4.188739471E0,9.011216932E0
1.271098179E1,-8.091423798E0,-1.229393463E0,-3.788022766E0,9.018406946E0
1.272090279E1,-8.706045685E0,-8.508306885E-1,-3.359463959E0,9.370439820E0
1.273082479E1,-9.063053284E0,-3.751199341E-1,-2.988834686E0,9.550538339E0
1.274074679E1,-9.311536560E0,-1.320254517E-1,-2.769690399E0,9.715622921E0
1.275066779E1,-9.615853729E0,3.308120728E-2,-2.651136932E0,9.974681165E0
1.276058979E1,-1.013392639E1,2.130070496E-1,-2.583028564E0,1.046010864E1
1.277051079E1,-1.063912582E1,5.941145325E-1,-2.776127014E0,1.101139644E1
1.278043279E1,-1.099044525E1,1.097068634E0,-3.172053680E0,1.149153475E1
1.279035379E1,-1.138951538E1,1.616937561E0,-3.581602020E0,1.204837834E1
1.280027579E1,-1.213481552E1,2.002685394E0,-3.998784485E0,1.293270172E1
1.281019679E1,-1.275811935E1,2.417323151E0,-4.368216248E0,1.370015963E1
1.282011879E1,-1.324834991E1,2.706821136E0,-4.781806183E0,1.434264015E1
1.283004079E1,-1.373828110E1,2.794538727E0,-5.416186981E0,1.502946758E1
1.283996179E1,-1.326661194E1,2.557132416E0,-6.224655762E0,1.487576075E1
1.284988379E1,-1.217044144E1,1.769170990E0,-6.972949677E0,1.413759661E1
1.285980479E1,-1.093985046E1,7.162605286E-1,-7.641758881E0,1.336375082E1
1.286972679E1,-1.014784744E1,-1.600172424E-1,-7.870932312E0,1.284351933E1
1.287964779E1,-1.058838135E1,9.265731812E-2,-7.248676300E0,1.283221388E1
1.288956979E1,-1.238734039E1,1.710493011E0,-6.123915253E0,1.392387613E1
1.289949079E1,-1.510209503E1,2.301613770E0,-5.142556000E0,1.611882696E1
1.290941292E1,-1.560819260E1,1.864223328E0,-3.935166779E0,1.620421372E1
1.291933492E1,-1.499357071E1,8.087681580E-1,-2.697241058E0,1.525569985E1
1.292925592E1,-1.544847473E1,-3.817062378E-1,-1.655706940E0,1.554163558E1
1.293917792E1,-1.516107239E1,-1.554517365E0,-8.265811157E-1,1.526295766E1
1.294909892E1,-1.394080994E1,-1.964065704E0,-6.012995911E-1,1.409131992E1
1.295902092E1,-1.291439438E1,-1.710942078E0,-5.977070618E-1,1.304094163E1
1.296894192E1,-1.225037521E1,-1.581760712E0,-7.092251587E-1,1.237241529E1
1.297886392E1,-1.127979355E1,-1.875449982E0,-6.813830566E-1,1.145492636E1
1.298878492E1,-1.044198578E1,-2.169738007E0,-3.942800903E-1,1.067231403E1
1.299870692E1,-9.895172882E0,-2.645748138E0,-2.621049500E-1,1.024612749E1
1.300862792E1,-9.548793182E0,-3.263214111E0,-2.607577515E-1,1.009435546E1
1.301854992E1,-9.191486206E0,-3.837869110E0,-2.706372070E-1,9.964231153E0
1.302847192E1,-8.703650665E0,-4.336931305E0,-1.971400452E-1,9.726323676E0
1.303839292E1,-8.029602356E0,-4.736749878E0,5.987548828E-3,9.322625663E0
1.304831492E1,-7.651189270E0,-5.262456665E0,1.528321838E-1,9.287491861E0
1.305823592E1,-7.404502258E0,-5.140759735E0,2.607577515E-1,9.017874414E0
1.306815792E1,-7.122788086E0,-4.554578705E0,1.330732727E-1,8.455531077E0
1.307807892E1,-6.995852051E0,-3.869154053E0,-8.143066406E-2,7.994931516E0
1.308800092E1,-7.239545288E0,-2.969225464E0,-1.023870850E-1,7.825458386E0
1.309792192E1,-8.355624390E0,-2.333946533E0,-7.361691284E-1,8.706647480E0
1.310784392E1,-8.111332397E0,-2.629881134E0,-3.028651886E0,9.048907132E0
1.311776592E1,-6.325096893E0,-2.897374878E0,-4.100423126E0,8.075586772E0
1.312768692E1,-5.522765350E0,-2.357447662E0,-4.303550720E0,7.387763220E0
1.313760892E1,-5.629643097E0,-1.361718292E0,-4.095633087E0,7.093755598E0
1.314752992E1,-6.090534668E0,-3.204835510E-1,-3.856430511E0,7.215911484E0
1.315745192E1,-6.862030334E0,8.788224792E-1,-3.401676178E0,7.709162735E0
1.316737292E1,-7.073839874E0,1.578168182E0,-3.147953796E0,7.901862975E0
1.317729492E1,-7.215295715E0,1.883682861E0,-3.349434814E0,8.174806845E0
1.318721592E1,-7.179220734E0,1.978735199E0,-3.724554749E0,8.326398465E0
1.319713792E1,-7.093898163E0,1.768422546E0,-3.917204132E0,8.294287050E0
1.320705892E1,-6.774612122E0,1.228046265E0,-3.817511444E0,7.872538387E0
1.321698092E1,-6.273753662E0,4.176315308E-1,-3.569926300E0,7.230406275E0
1.322690292E1,-6.303541718E0,2.634521484E-2,-2.781515808E0,6.890004532E0
1.323682392E1,-6.292015686E0,-4.626878357E-1,-2.041005707E0,6.630930985E0
1.324674592E1,-6.218219147E0,-6.569837952E-1,-1.201701050E0,6.367257061E0
1.325666692E1,-5.854176178E0,-8.292755127E-1,-4.308041382E-1,5.928293920E0
1.326658892E1,-5.135969696E0,-9.696835327E-1,4.236190796E-2,5.226879127E0
1.327650992E1,-4.864584045E0,-1.228944397E0,2.032772827E-1,5.021534021E0
1.328643192E1,-5.544919281E0,-1.729653168E0,-2.752775574E-1,5.814946917E0
1.329635292E1,-6.695426788E0,-1.998643799E0,-7.927514648E-1,7.032195375E0
1.330627492E1,-7.229366455E0,-2.418071594E0,-1.550326080E0,7.779095097E0
1.331619692E1,-7.804620209E0,-2.898722076E0,-2.313289490E0,8.640948706E0
1.332611792E1,-8.623267822E0,-3.013383636E0,-3.290008392E0,9.709036208E0
1.333603992E1,-9.070088654E0,-3.046913910E0,-4.236789551E0,1.046425240E1
1.334596092E1,-9.894274750E0,-3.147355042E0,-5.476511536E0,1.173859852E1
1.335588292E1,-1.071741302E1,-3.265010376E0,-6.955436096E0,1.318716520E1
1.336580392E1,-1.172152496E1,-3.275488586E0,-8.631500702E0,1.492064936E1
1.337572592E1,-1.455722809E1,-4.676724701E0,-1.037911652E1,1.848000820E1
1.338564692E1,-1.514760040E1,-5.811514893E0,-1.219543945E1,2.029660678E1
1.339556892E1,-1.390817780E1,-5.041516113E0,-1.478625183E1,2.091620275E1
1.340548992E1,-1.212284042E1,-2.966381378E0,-1.841096420E1,2.224244324E1
1.341541192E1,-9.624685364E0,-1.570833435E0,-2.079745148E1,2.297033030E1
1.342533392E1,-8.224946136E0,-8.803193665E-1,-1.860930176E1,2.036494078E1
1.343525492E1,-8.676107941E0,-2.865042114E-1,-1.341734848E1,1.598068127E1
1.344517692E1,-7.962841187E0,6.256988525E-2,-7.867938538E0,1.119442770E1
1.345509792E1,-8.839268646E0,-8.434959412E-1,-3.610342255E0,9.585339159E0
1.346501992E1,-1.311737228E1,-2.284698944E0,-2.888992310E-1,1.331798662E1
1.347494092E1,-1.621922195E1,-2.903063049E0,3.322341156E0,1.680859562E1
1.348486292E1,-1.501782028E1,-3.416195984E0,4.646637268E0,1.608715509E1
1.349478392E1,-1.331047073E1,-4.104015656E0,3.214714966E0,1.429496303E1
1.350470592E1,-1.249406845E1,-4.264182587E0,1.616937561E0,1.330035664E1
1.351462692E1,-1.153471344E1,-3.451223145E0,5.210664368E-1,1.205122672E1
1.352454892E1,-1.060978683E1,-3.104394379E0,-2.782713318E-1,1.105813167E1
1.353447092E1,-9.635462952E0,-2.694097595E0,-9.048683167E-1,1.004584963E1
1.354439192E1,-9.685608673E0,-2.119741974E0,-1.122515717E0,9.978194373E0
1.355431392E1,-9.640103302E0,-1.145418091E0,-8.473878479E-1,9.744826342E0
1.356423492E1,-9.838291168E0,-3.264710999E-1,-4.284091187E-1,9.853024453E0
1.357415692E1,-1.062430664E1,6.331832886E-2,5.927673340E-2,1.062466068E1
1.358407792E1,-1.128054199E1,1.778302002E-1,8.216413879E-1,1.131182327E1
1.359399992E1,-1.135688324E1,4.038601685E-1,1.606459351E0,1.147704716E1
1.360392092E1,-1.148920807E1,4.745132446E-1,1.769470367E0,1.163434958E1
1.361384292E1,-1.135089569E1,4.677772522E-1,1.534309387E0,1.146367105E1
1.362376392E1,-1.088356750E1,4.297563171E-1,1.294058990E0,1.096865173E1
1.363368592E1,-1.077938416E1,1.344204712E-1,9.193881226E-1,1.081935609E1
1.364360792E1,-1.021490799E1,9.714797974E-2,6.265969849E-1,1.023456920E1
1.365352892E1,-9.662706299E0,1.047821045E-1,3.851490784E-1,9.670946806E0
1.366345092E1,-8.953630829E0,4.281097412E-2,2.272274780E-1,8.956615997E0
1.367337192E1,-8.506809998E0,-8.382568359E-3,-2.514770508E-2,8.506851298E0
1.368329392E1,-8.405171356E0,-7.993377686E-2,-5.108876038E-1,8.421062942E0
1.369321492E1,-8.176896057E0,-4.041595459E-3,-9.919871521E-1,8.236849153E0
1.370313692E1,-7.652386780E0,1.037342834E-1,-1.406026154E0,7.781175604E0
1.371305792E1,-7.221133575E0,2.544708252E-1,-1.741777954E0,7.432584743E0
1.372297992E1,-6.930288391E0,5.725593567E-1,-2.220183105E0,7.299721530E0
1.373290092E1,-6.427184601E0,1.079854431E0,-3.072211304E0,7.205086383E0
1.374282292E1,-5.847589874E0,1.659598846E0,-3.967349854E0,7.258680357E0
1.375274492E1,-5.843099213E0,1.997895355E0,-4.747228088E0,7.789067260E0
1.376266592E1,-5.659131775E0,1.752256165E0,-5.703289948E0,8.223362471E0
1.377258792E1,-4.813689880E0,9.388476562E-1,-6.162534943E0,7.875905161E0
1.378250892E1,-4.210594025E0,-2.284249878E-1,-6.072422333E0,7.392942107E0
1.379243092E1,-4.188589783E0,-1.212778015E0,-5.864055634E0,7.307685226E0
1.380235192E1,-4.675078125E0,-1.756746826E0,-5.349126434E0,7.318173850E0
1.381227392E1,-5.262007599E0,-1.871258698E0,-4.644391937E0,7.263656762E0
1.382219492E1,-6.127657471E0,-1.873354340E0,-3.932173004E0,7.517953651E0
1.383211692E1,-6.690786438E0,-1.275946655E0,-3.113675079E0,7.489301404E0
1.384203892E1,-7.250622253E0,-8.589138794E-1,-2.455194397E0,7.703066639E0
1.385195992E1,-7.917186127E0,-5.926176453E-1,-1.842219086E0,8.150263983E0
1.386188192E1,-8.529562683E0,-4.707710266E-1,-1.350791016E0,8.648682055E0
1.387180292E1,-9.167685699E0,-5.869294739E-1,-1.143621826E0,9.257365617E0
1.388172492E1,-9.770631866E0,-7.077282715E-1,-1.093625793E0,9.857085967E0
1.389164592E1,-1.032522858E1,-6.846762085E-1,-1.287322998E0,1.042767122E1
1.390156792E1,-1.128218857E1,-4.598437500E-1,-1.964215393E0,1.146112461E1
1.391148917E1,-1.204560104E1,1.451980591E-1,-2.972817993E0,1.240786983E1
1.392141117E1,-1.278132111E1,9.021739197E-1,-3.972588959E0,1.341482575E1
1.393133217E1,-1.352332809E1,1.667981415E0,-5.023104401E0,1.452219483E1
1.394125417E1,-1.402074371E1,2.600242767E0,-6.134543152E0,1.552337387E1
1.395117517E1,-1.385788239E1,3.714375916E0,-7.352111206E0,1.612113618E1
1.396109717E1,-1.378303802E1,4.526437225E0,-8.624165955E0,1.687711497E1
1.397101917E1,-1.335238358E1,4.708458710E0,-9.523346100E0,1.706311377E1
1.398094017E1,-1.274928772E1,3.910917206E0,-9.416168976E0,1.632494560E1
1.399086217E1,-1.196851135E1,2.431693268E0,-8.820856934E0,1.506538792E1
1.400078317E1,-1.109013794E1,5.478607178E-1,-8.143814850E0,1.377000476E1
1.401070517E1,-1.120390137E1,5.837860107E-2,-7.195836182E0,1.331581287E1
1.402062617E1,-1.204679855E1,9.806108093E-1,-5.631589050E0,1.333423219E1
1.403054817E1,-1.292636948E1,1.470991058E0,-4.911735992E0,1.390611351E1
1.404046917E1,-1.279599060E1,1.075962524E0,-3.969445496E0,1.344066845E1
1.405039117E1,-1.255648865E1,1.290316772E-1,-2.577340393E0,1.281892116E1
1.406031217E1,-1.307545944E1,-1.127156067E0,-1.488654327E0,1.320811160E1
1.407023417E1,-1.382135834E1,-2.030976563E0,-5.757028198E-1,1.398163960E1
1.408015617E1,-1.408960052E1,-2.141746216E0,2.389031982E-1,1.425345553E1
1.409007717E1,-1.383063904E1,-2.042352905E0,6.830296326E-1,1.399729656E1
1.409999917E1,-1.377630203E1,-1.910626831E0,7.394622803E-1,1.392780661E1
1.410992017E1,-1.336795120E1,-1.770069122E0,6.932084656E-1,1.350243689E1
1.411984217E1,-1.262414795E1,-1.838027802E0,7.228468323E-1,1.277771361E1
1.412976317E1,-1.172107590E1,-2.076481934E0,6.294410706E-1,1.192021784E1
1.413968517E1,-1.085901855E1,-2.475252686E0,3.502716064E-1,1.114306287E1
1.414960617E1,-9.999655609E0,-3.090173950E0,-1.646575928E-1,1.046754028E1
1.415952817E1,-9.218879242E0,-3.842060394E0,-6.599775696E-1,1.000923239E1
1.416944917E1,-8.358169098E0,-4.290827179E0,-9.213340759E-1,9.440288398E0
1.417937117E1,-7.582033081E0,-4.594096527E0,-9.741741943E-1,8.918630158E0
1.418929317E1,-7.046147461E0,-4.461921387E0,-8.425978088E-1,8.382535868E0
1.419921417E1,-7.056475983E0,-3.834575958E0,-8.919950867E-1,8.080438188E0
1.420913617E1,-7.454049225E0,-3.512296143E0,-1.613644409E0,8.396601832E0
1.421905717E1,-7.564818878E0,-3.722908173E0,-3.207978973E0,9.020956657E0
1.422897917E1,-6.419550476E0,-4.011508026E0,-5.261857910E0,9.219000685E0
1.423890017E1,-4.969964905E0,-3.748205566E0,-6.101611633E0,8.716608322E0
1.424882217E1,-4.045038300E0,-2.822979584E0,-6.442303162E0,8.113865823E0
1.425874317E1,-3.891307983E0,-1.437161407E0,-5.940396881E0,7.245414125E0
1.426866517E1,-4.484524384E0,-2.782713318E-1,-5.151237946E0,6.835469717E0
1.427858617E1,-5.601501617E0,7.294331360E-1,-4.321064301E0,7.111996187E0
1.428850817E1,-6.659052429E0,1.438508606E0,-3.394191742E0,7.611361497E0
1.429843017E1,-7.257807312E0,1.731299744E0,-2.642754364E0,7.915637461E0
1.430835117E1,-7.631580048E0,1.758842468E0,-2.168390808E0,8.126282025E0
1.431827317E1,-7.721692657E0,1.374292145E0,-1.922452240E0,8.075211391E0
1.432819417E1,-7.632178802E0,8.505313110E-1,-1.798360291E0,7.887183053E0
1.433811617E1,-7.450606384E0,2.079176331E-1,-1.739083557E0,7.653703473E0
1.434803717E1,-6.998696136E0,-5.890251160E-1,-1.854194183E0,7.264071466E0
1.435795917E1,-6.710844727E0,-1.440005493E0,-1.707349548E0,7.072771398E0
1.436788017E1,-6.658303986E0,-2.048340454E0,-1.242715759E0,7.076231556E0
1.437780217E1,-6.702761536E0,-2.377505951E0,-5.276527405E-1,7.131476997E0
1.438772317E1,-6.658902740E0,-2.758613434E0,2.481838989E-1,7.211971231E0
1.439764517E1,-6.552773438E0,-3.023113403E0,7.996371460E-1,7.260679991E0
1.440756617E1,-6.270759888E0,-3.047512665E0,9.039701843E-1,7.030428515E0
1.441748817E1,-5.965095520E0,-2.918181610E0,3.311114502E-1,6.648893386E0
1.442741017E1,-5.974825287E0,-2.655477905E0,-6.866221619E-1,6.574309858E0
1.443733117E1,-6.206693115E0,-2.571652222E0,-1.745520172E0,6.941417380E0
1.444725317E1,-7.087760925E0,-2.799029388E0,-2.895129547E0,8.151852277E0
1.445717417E1,-7.811056824E0,-3.309318237E0,-3.780987396E0,9.287629492E0
1.446709617E1,-8.711733856E0,-3.763324127E0,-4.557871857E0,1.052763559E1
1.447701717E1,-9.712702332E0,-3.695664825E0,-5.585484924E0,1.179797300E1
1.448693917E1,-1.025427612E1,-3.307521973E0,-6.608607330E0,1.263976152E1
1.449686017E1,-1.069406158E1,-2.694846039E0,-7.978109436E0,1.361158986E1
1.450678217E1,-1.163485519E1,-2.188299408E0,-9.954150238E0,1.546750195E1
1.451670317E1,-1.341660004E1,-2.017354889E0,-1.258717484E1,1.850707561E1
1.452662517E1,-1.436981781E1,-2.754272461E0,-1.503937546E1,2.098238535E1
1.453654717E1,-1.334744385E1,-2.731070709E0,-1.768916519E1,2.232755181E1
1.454646817E1,-1.126677063E1,-8.704399109E-1,-1.975367203E1,2.275753380E1
1.455639017E1,-9.775870972E0,6.484515381E-1,-1.927347061E1,2.162070332E1
1.456631117E1,-9.334738312E0,9.666897583E-1,-1.539308990E1,1.802828459E1
1.457623317E1,-9.265432434E0,7.999365234E-1,-9.811646576E0,1.351874791E1
1.458615417E1,-6.879992981E0,4.291575623E-1,-4.993316345E0,8.511855717E0
1.459607617E1,-7.287894745E0,-1.686093750E0,-9.741741943E-1,7.543562640E0
1.460599717E1,-1.187495590E1,-4.245920563E0,2.495161285E0,1.285566991E1
1.461591917E1,-1.575024719E1,-5.143005066E0,5.219795380E0,1.737144357E1
1.462584017E1,-1.514056503E1,-5.577850800E0,5.751789093E0,1.712986301E1
1.463576217E1,-1.321945999E1,-5.850733337E0,3.648363190E0,1.490958608E1
1.464568317E1,-1.212299011E1,-5.265300751E0,2.056573334E0,1.337608968E1
1.465560517E1,-1.211685287E1,-4.503385162E0,1.097966766E0,1.297320826E1
1.466552717E1,-1.222013809E1,-3.700604553E0,-1.211131439E0,1.282548589E1
1.467544817E1,-1.051593201E1,-2.365530853E0,-2.564018097E0,1.107947431E1
1.468537017E1,-9.888885956E0,-1.375489655E0,-2.430645447E0,1.027570312E1
1.469529117E1,-9.777068481E0,-7.843688965E-1,-2.041454773E0,1.001867458E1
1.470521317E1,-9.622589722E0,6.182144165E-2,-1.388662262E0,9.722470762E0
1.471513417E1,-9.874815216E0,2.960842896E-1,-9.053173828E-1,9.920647208E0
1.472505617E1,-1.061322968E1,2.607577515E-1,-3.646417236E-1,1.062269280E1
1.473497717E1,-1.136257141E1,-1.345701599E-1,2.251318359E-1,1.136559820E1
1.474489917E1,-1.130628845E1,-2.902464294E-1,7.738906860E-1,1.133645925E1
1.475482017E1,-1.106439148E1,-4.623884583E-1,9.607022095E-1,1.111564261E1
1.476474217E1,-1.084449875E1,-7.902067566E-1,8.134085083E-1,1.090363303E1
1.477466317E1,-1.038974442E1,-1.193468170E0,5.236111450E-1,1.047116631E1
1.478458517E1,-9.467512207E0,-1.413211212E0,5.068460083E-1,9.585814843E0
1.479450717E1,-9.143286438E0,-1.686991882E0,4.367916870E-1,9.307868471E0
1.480442817E1,-8.916058960E0,-1.655856628E0,3.507206726E-1,9.075294681E0
1.481435017E1,-8.829688568E0,-1.429078217E0,-9.131011963E-2,8.945054628E0
1.482427117E1,-8.499624939E0,-9.852511597E-1,-7.930508423E-1,8.593210901E0
1.483419317E1,-7.893684998E0,-4.064048767E-1,-1.400787048E0,8.027305408E0
1.484411417E1,-7.499853973E0,2.627037048E-1,-1.961520996E0,7.756570600E0
1.485403617E1,-7.291936340E0,9.479786682E-1,-2.595602417E0,7.797958134E0
1.486395717E1,-7.023694153E0,1.550625458E0,-3.328029327E0,7.925433620E0
1.487387917E1,-6.596632233E0,1.959575043E0,-3.896397400E0,7.908059424E0
1.488380017E1,-6.139931946E0,2.208507385E0,-4.413721619E0,7.877639729E0
1.489372217E1,-6.164780273E0,2.338287506E0,-4.999154205E0,8.274276225E0
1.490364317E1,-5.802084503E0,1.786684570E0,-5.751190338E0,8.362572370E0
1.491356558E1,-4.954696655E0,5.334906006E-1,-5.997727661E0,7.797843821E0
1.492348758E1,-4.220623169E0,-5.878276062E-1,-5.746999054E0,7.154523000E0
1.493340858E1,-4.403842163E0,-1.279539185E0,-5.109923859E0,6.866030015E0
1.494333058E1,-4.891977081E0,-1.802102509E0,-4.173022156E0,6.677808557E0
1.495325158E1,-5.630241852E0,-2.363734589E0,-3.332669678E0,6.956547398E0
1.496317358E1,-5.811065826E0,-2.259102173E0,-2.301015015E0,6.645803094E0
1.497309458E1,-5.984854431E0,-2.118245087E0,-1.413061523E0,6.504013198E0
1.498301658E1,-6.814429321E0,-1.866618347E0,-8.506809998E-1,7.116485733E0
1.499293758E1,-7.549251251E0,-1.509311371E0,-6.346801758E-1,7.724767582E0
1.500285958E1,-7.974516907E0,-8.919950867E-1,-6.592291260E-1,8.051283014E0
1.501278058E1,-8.652157745E0,-2.499801636E-1,-9.883946228E-1,8.712017428E0
1.502270258E1,-9.416767731E0,2.083666992E-1,-1.500180359E0,9.537791793E0
1.503262358E1,-1.014485367E1,6.846762085E-1,-2.292183380E0,1.042309657E1
1.504254558E1,-1.088192093E1,1.048569489E0,-3.084036713E0,1.135900451E1
1.505246758E1,-1.118683685E1,1.400038605E0,-4.030069427E0,1.197275601E1
1.506238858E1,-1.124147324E1,1.862127686E0,-4.984784088E0,1.243729522E1
1.507231058E1,-1.144534927E1,2.335293732E0,-5.693859558E0,1.299498571E1
1.508223158E1,-1.200368820E1,2.722089386E0,-6.349496155E0,1.384970767E1
1.509215358E1,-1.273536667E1,3.083587646E0,-6.959028625E0,1.483664910E1
1.510207458E1,-1.342393478E1,3.292553101E0,-7.591313782E0,1.576930487E1
1.511199658E1,-1.391641068E1,3.246598663E0,-8.059390411E0,1.640611663E1
1.512191758E1,-1.335837112E1,2.722538452E0,-8.129594421E0,1.587288884E1
1.513183958E1,-1.216505264E1,1.738185425E0,-7.972570953E0,1.464826549E1
1.514176058E1,-1.107097778E1,4.415817261E-1,-7.839048615E0,1.357248049E1
1.515168258E1,-9.907447357E0,-6.421646118E-1,-7.527396698E0,1.245919699E1
1.516160358E1,-9.962083740E0,-5.686674500E-1,-6.780300293E0,1.206395322E1
1.517152558E1,-1.125030487E1,5.812413025E-1,-5.817801819E0,1.267888083E1
1.518144758E1,-1.299507660E1,1.789678345E0,-4.878205719E0,1.399542266E1
1.519136858E1,-1.398317184E1,2.056573334E0,-3.876039734E0,1.465545198E1
1.520129058E1,-1.399020721E1,1.325792999E0,-2.867437134E0,1.434244821E1
1.521121158E1,-1.400981644E1,9.804611206E-2,-2.028282166E0,1.415621765E1
1.522113358E1,-1.394649811E1,-1.141675873E0,-1.337019653E0,1.405687927E1
1.523105458E1,-1.340297836E1,-1.846260681E0,-9.785151672E-1,1.356488111E1
1.524097658E1,-1.274344986E1,-2.150877228E0,-6.524931335E-1,1.294015203E1
1.525089758E1,-1.219978043E1,-2.148033142E0,-3.653901672E-1,1.239282852E1
1.526081958E1,-1.142244690E1,-2.047142944E0,-2.136058044E-1,1.160640835E1
1.527074058E1,-1.069660629E1,-2.227817230E0,-5.059478760E-2,1.092625808E1
1.528066258E1,-1.044827271E1,-2.619851990E0,-2.058219910E-1,1.077368970E1
1.529058358E1,-1.039722885E1,-2.966531067E0,-5.031037903E-1,1.082385272E1
1.530050558E1,-1.020667511E1,-3.213966522E0,-9.030720520E-1,1.073877725E1
1.531042758E1,-9.945019226E0,-3.480262756E0,-1.072669373E0,1.059085718E1
1.532034858E1,-9.336235199E0,-3.565884705E0,-8.771759033E-1,1.003246027E1
1.533027058E1,-8.741521912E0,-3.656147003E0,-4.891827393E-1,9.487935286E0
1.534019158E1,-8.467441864E0,-3.605851593E0,3.293151855E-2,9.203304945E0
1.535011358E1,-8.749754791E0,-3.177741852E0,3.405418396E-1,9.315160811E0
1.536003458E1,-8.976383514E0,-3.159928894E0,-4.954696655E-2,9.516462920E0
1.536995658E1,-8.903335419E0,-3.727997589E0,-1.300495605E0,9.739539847E0
1.537987758E1,-8.203241272E0,-4.171076202E0,-3.143014069E0,9.724689275E0
1.538979958E1,-7.257507935E0,-3.824846191E0,-4.312382355E0,9.268091032E0
1.539972058E1,-6.945556641E0,-2.487078094E0,-4.755610657E0,8.777365619E0
1.540964258E1,-7.268584900E0,-7.050338745E-1,-4.448898468E0,8.551145934E0
1.541956358E1,-7.542664948E0,8.500822449E-1,-4.275409241E0,8.711690910E0
1.542948558E1,-7.363936615E0,1.891766052E0,-4.701722717E0,8.939381286E0
1.543940658E1,-7.183711395E0,2.755170593E0,-5.422174530E0,9.412579404E0
1.544932858E1,-6.833140411E0,2.784659271E0,-5.806126099E0,9.389208455E0
1.545925058E1,-6.562503204E0,2.170336761E0,-5.676046600E0,8.943954102E0
1.546917158E1,-6.357729034E0,1.313967590E0,-4.786147156E0,8.065632889E0
1.547909358E1,-6.203699341E0,4.370910645E-1,-3.313509521E0,7.046721185E0
1.548901458E1,-5.982459412E0,-1.315763855E-1,-1.741777954E0,6.232248663E0
1.549893658E1,-5.719456329E0,-6.604266357E-1,-3.641926575E-1,5.768967008E0
1.550885758E1,-5.459746399E0,-1.084644470E0,6.879693604E-1,5.608795433E0
1.551877958E1,-5.282514954E0,-1.368753662E0,1.552870789E0,5.673610712E0
1.552870058E1,-5.308860168E0,-1.814376984E0,2.259850616E0,6.048378703E0
1.553862258E1,-5.392087097E0,-2.160756683E0,2.747536469E0,6.425918561E0
1.554854358E1,-5.388494568E0,-2.413431244E0,2.854563904E0,6.558129242E0
1.555846558E1,-5.648803253E0,-2.393822021E0,2.205812988E0,6.519583806E0
1.556838658E1,-5.496120758E0,-2.090103607E0,8.170010376E-1,5.936612432E0
1.557830858E1,-5.737718353E0,-2.024839325E0,-8.322692871E-1,6.141177278E0
1.558823058E1,-6.312223663E0,-2.231858826E0,-2.089055786E0,7.013523756E0
1.559815158E1,-7.188501434E0,-2.443368988E0,-3.206033020E0,8.241556443E0
1.560807358E1,-8.706644440E0,-2.566562805E0,-4.296515350E0,1.004255676E1
1.561799458E1,-1.035890854E1,-2.793490906E0,-5.470523987E0,1.204313955E1
1.562791658E1,-1.147663422E1,-3.073259125E0,-6.555916901E0,1.356974948E1
1.563783758E1,-1.192644882E1,-3.080743561E0,-7.924071808E0,1.464657217E1
1.564775958E1,-1.208422073E1,-2.830613708E0,-9.796677704E0,1.581188347E1
1.565768058E1,-1.347318237E1,-2.807262268E0,-1.186357956E1,1.817008213E1
1.566760258E1,-1.424377991E1,-4.478686523E0,-1.360146561E1,2.019761782E1
1.567752358E1,-1.213736023E1,-4.849166107E0,-1.530327667E1,2.012511372E1
1.568744558E1,-1.083521805E1,-3.114423523E0,-1.721689728E1,2.057967774E1
1.569736658E1,-9.641749878E0,-1.459914093E0,-1.794258820E1,2.042134082E1
1.570728858E1,-8.165370026E0,-7.399113464E-1,-1.573153610E1,1.773984117E1
1.571720958E1,-8.493787079E0,-1.532812500E-1,-1.196147598E1,1.467122428E1
1.572713158E1,-9.707762604E0,-2.246827698E-1,-7.402705994E0,1.221029046E1
1.573705358E1,-1.182510956E1,-2.378104706E0,-2.687660980E0,1.235767452E1
1.574697458E1,-1.520313492E1,-3.743116150E0,1.637594604E0,1.574255208E1
1.575689658E1,-1.607716736E1,-2.938239899E0,3.516487427E0,1.671748330E1
1.576681758E1,-1.527199173E1,-1.952988739E0,2.201921082E0,1.555301748E1
1.577673958E1,-1.403197037E1,-2.737207947E0,6.586303711E-3,1.429645212E1
1.578666058E1,-1.213601303E1,-3.477268982E0,-6.209088135E-1,1.263960995E1
1.579658258E1,-1.085512665E1,-3.517385559E0,-5.751040649E-1,1.142525800E1
1.580650358E1,-9.417366486E0,-3.533851318E0,-2.790197754E-1,1.006244248E1
1.581642558E1,-8.940458221E0,-3.047362976E0,-3.652404785E-2,9.445610003E0
1.582634658E1,-9.558672638E0,-2.186203766E0,-2.908451843E-1,9.809806340E0
1.583626858E1,-1.028346542E1,-1.105451202E0,-4.587959290E-1,1.035288255E1
1.584618958E1,-1.078746735E1,-8.110134888E-1,-9.265731812E-2,1.081830763E1
1.585611158E1,-1.114672028E1,-9.238787842E-1,3.903881836E-1,1.119175267E1
1.586603258E1,-1.117261642E1,-7.099736023E-1,1.155447235E0,1.125462032E1
1.587595458E1,-1.104104004E1,-3.924838257E-1,1.777254181E0,1.119005099E1
1.588587658E1,-1.120854172E1,-6.092330933E-2,2.053729248E0,1.139530267E1
1.589579758E1,-1.140897491E1,1.480421448E-1,1.911075897E0,1.156887359E1
1.590571958E1,-1.129027176E1,2.941383362E-1,1.523681488E0,1.139641869E1
1.591563979E1,-1.079570023E1,5.212161255E-1,1.016536102E0,1.085597325E1
1.592556179E1,-1.038734940E1,6.236032104E-1,3.552113342E-1,1.041211235E1
1.593548279E1,-9.778415680E0,6.465055847E-1,-2.577639771E-1,9.803153827E0
1.594540479E1,-9.035809937E0,6.117778015E-1,-8.068222046E-1,9.092364674E0
1.595532579E1,-8.479566650E0,5.363346863E-1,-1.233435059E0,8.585573220E0
1.596524779E1,-8.073760529E0,5.150788879E-1,-1.492396545E0,8.226673859E0
1.597516879E1,-7.813302155E0,4.784051514E-1,-1.853146362E0,8.044296954E0
1.598509079E1,-7.513924713E0,4.293072510E-1,-2.388283539E0,7.896028595E0
1.599501179E1,-7.412286072E0,5.508544922E-1,-3.299887848E0,8.132323487E0
1.600493379E1,-6.942562866E0,8.026309204E-1,-3.987408142E0,8.046292266E0
1.601485479E1,-6.280639343E0,9.406439209E-1,-4.087998962E0,7.552680124E0
1.602477679E1,-5.943390656E0,9.128018188E-1,-4.687651978E0,7.624380677E0
1.603469879E1,-5.557343445E0,7.902067566E-1,-5.386249237E0,7.779471301E0
1.604461979E1,-4.776417389E0,2.748284912E-1,-5.929619293E0,7.619060227E0
1.605454179E1,-4.270469513E0,-3.547622681E-1,-6.063890076E0,7.425195551E0
1.606446279E1,-4.371359711E0,-9.089099121E-1,-5.815406799E0,7.331702339E0
1.607438479E1,-4.816533966E0,-1.402283936E0,-5.169499969E0,7.203410971E0
1.608430579E1,-5.463787994E0,-1.898651733E0,-4.249363403E0,7.177391377E0
1.609422779E1,-6.156846771E0,-2.241139526E0,-3.386407928E0,7.375447593E0
1.610414879E1,-6.763684845E0,-2.349514160E0,-2.639161835E0,7.631043484E0
1.611407079E1,-7.102580109E0,-2.173480225E0,-2.016007690E0,7.696424332E0
1.612399179E1,-7.603588257E0,-1.850152588E0,-1.406624908E0,7.950862382E0
1.613391379E1,-7.878865814E0,-1.464105377E0,-9.973759460E-1,8.075573655E0
1.614383479E1,-8.175249481E0,-1.057999878E0,-7.023394775E-1,8.273291278E0
1.615375679E1,-8.581654358E0,-7.358697510E-1,-6.538403320E-1,8.637928165E0
1.616367779E1,-8.840466156E0,-4.848417664E-1,-8.887019348E-1,8.898241653E0
1.617359979E1,-9.067394257E0,-1.785786438E-1,-1.313967590E0,9.163844159E0
1.618352179E1,-9.468260651E0,1.254391479E-1,-1.684746552E0,9.617799419E0
1.619344279E1,-1.014096176E1,4.369413757E-1,-2.099983063E0,1.036532450E1
1.620336479E1,-1.084839066E1,8.524772644E-1,-2.677182770E0,1.120631986E1
1.621328579E1,-1.162557449E1,1.418150940E0,-3.666774902E0,1.227234177E1
1.622320779E1,-1.255274643E1,2.138453064E0,-5.043462067E0,1.369601891E1
1.623312879E1,-1.347617615E1,3.108136597E0,-6.373895416E0,1.522807865E1
1.624305079E1,-1.418480255E1,4.225712585E0,-7.594157867E0,1.663539912E1
1.625297179E1,-1.410067749E1,5.305716705E0,-8.499325562E0,1.729792677E1
1.626289379E1,-1.357781479E1,5.343288574E0,-9.039701843E0,1.716461467E1
