"Time (s)","Acceleration x (m/s^2)","Acceleration y (m/s^2)","Acceleration z (m/s^2)","Absolute acceleration (m/s^2)"
3.263791645E-3,1.029858398E-1,3.339555359E0,1.012584320E1,1.066282967E1
1.318479166E-2,-1.667532349E-1,3.503015442E0,1.043674667E1,1.101020458E1
2.310579165E-2,-3.472778320E-1,3.740721130E0,1.070124664E1,1.134152883E1
3.302679164E-2,-3.818559265E-1,3.964505768E0,1.112082413E1,1.181252933E1
4.294779166E-2,-2.383044434E-1,4.067042542E0,1.181448166E1,1.249718372E1
5.286779164E-2,1.481918335E-2,3.961961060E0,1.260319153E1,1.321127517E1
6.278879166E-2,2.639012146E-1,3.761827240E0,1.335298233E1,1.387527027E1
7.270979165E-2,3.823049927E-1,3.632496185E0,1.405322617E1,1.452013606E1
8.263079164E-2,4.026626587E-1,3.781436462E0,1.460946945E1,1.509629082E1
9.255179166E-2,6.083349609E-1,4.088897095E0,1.495360382E1,1.551449058E1
1.024727917E-1,1.003812561E0,4.481081543E0,1.515463577E1,1.583511026E1
1.123937917E-1,1.655257874E0,4.835245056E0,1.528980469E1,1.612133992E1
1.223147917E-1,2.422711945E0,4.821773071E0,1.531854492E1,1.624120831E1
1.322357917E-1,3.039279785E0,4.353247375E0,1.544982193E1,1.633661477E1
1.421567917E-1,2.850671997E0,3.069516907E0,1.606998230E1,1.660700443E1
1.520777917E-1,1.961520996E0,1.497336273E0,1.665152298E1,1.683338344E1
1.619987916E-1,1.120420074E0,-1.722917175E-1,1.652039566E1,1.655924208E1
1.719187917E-1,4.340972900E-2,-1.501228180E0,1.550430862E1,1.557687890E1
1.818397917E-1,-1.119372253E0,-2.189347229E0,1.390563309E1,1.412136208E1
1.917607917E-1,-1.858834534E0,-2.239343262E0,1.191761719E1,1.226782473E1
2.016817917E-1,-2.166145477E0,-1.946851501E0,9.746382294E0,1.017223598E1
2.116027916E-1,-2.394271088E0,-1.552870789E0,7.544910278E0,8.066573798E0
2.215237917E-1,-2.217937775E0,-1.091530151E0,5.885910187E0,6.383934897E0
2.314447917E-1,-2.082768860E0,-4.475692749E-1,4.803361359E0,5.254571792E0
2.413657916E-1,-2.207908630E0,-1.347198486E-3,4.308640137E0,4.841409109E0
2.512867917E-1,-2.357896729E0,1.730401611E-1,4.440515900E0,5.030685971E0
2.612077917E-1,-2.508034515E0,2.775228882E-1,4.911137238E0,5.521460409E0
2.711287916E-1,-2.535128174E0,2.570155334E-1,5.662724304E0,6.209619826E0
2.810487917E-1,-2.461631012E0,2.098635864E-1,6.332731018E0,6.797584285E0
2.909697916E-1,-2.199526062E0,2.865042114E-1,6.804100800E0,7.156520611E0
3.008907917E-1,-1.817221069E0,5.298980713E-1,7.181316376E0,7.426600115E0
3.108117917E-1,-1.384920044E0,8.017327881E-1,7.477101288E0,7.646425483E0
3.207327916E-1,-9.493258667E-1,1.090482330E0,7.844437408E0,7.976563770E0
3.306537917E-1,-6.104306030E-1,1.357976074E0,8.265062714E0,8.398094200E0
3.405747917E-1,-3.808081055E-1,1.521136780E0,8.659791870E0,8.800617430E0
3.504957916E-1,-2.450404358E-1,1.565893707E0,8.920549622E0,9.060257914E0
3.604167917E-1,-2.140548706E-1,1.565145264E0,9.009315033E0,9.146762080E0
3.703377917E-1,-2.639012146E-1,1.542093201E0,8.960666199E0,9.096220864E0
3.802587916E-1,-3.577560425E-1,1.542242889E0,8.825048218E0,8.965934338E0
3.901787917E-1,-4.635859680E-1,1.586850128E0,8.638985138E0,8.795741554E0
4.000997916E-1,-5.975573730E-1,1.699416046E0,8.436306610E0,8.626491693E0
4.100207917E-1,-7.084767151E-1,1.840722198E0,8.200846252E0,8.434694821E0
4.199417917E-1,-7.461982727E-1,1.971999207E0,7.940986633E0,8.216134215E0
4.298627916E-1,-6.902146912E-1,2.102976837E0,7.700287170E0,8.012074039E0
4.397837917E-1,-6.409671021E-1,2.290087738E0,7.487878876E0,7.856441353E0
4.497047917E-1,-5.475613403E-1,2.493514709E0,7.336842957E0,7.768314077E0
4.596257917E-1,-4.751119995E-1,2.665507050E0,7.206464081E0,7.698297461E0
4.695467917E-1,-4.131408691E-1,2.802023163E0,7.214247894E0,7.750315598E0
4.794677917E-1,-3.531156921E-1,2.925815735E0,7.347321167E0,7.916325962E0
4.893887917E-1,-2.640509033E-1,2.999612274E0,7.494315491E0,8.076642950E0
4.993087917E-1,-1.499880981E-1,3.061284027E0,7.746391296E0,8.330698317E0
5.092297917E-1,-3.233276367E-2,3.148702240E0,8.146658936E0,8.734038185E0
5.191507917E-1,-9.041198730E-2,3.352578278E0,8.567882996E0,9.200900742E0
5.290717917E-1,9.190887451E-2,3.332669678E0,9.029822388E0,9.625633838E0
5.389927917E-1,3.832031250E-1,3.185076599E0,9.562115479E0,1.008591146E1
5.489137917E-1,4.860392761E-1,3.143912201E0,1.017119888E1,1.065709645E1
5.588347916E-1,5.049000549E-1,3.027753754E0,1.061487625E1,1.104978799E1
5.687557917E-1,4.727169800E-1,2.775827637E0,1.077564194E1,1.113746558E1
5.786767917E-1,3.995191956E-1,2.486030273E0,1.076725937E1,1.105775006E1
5.885977916E-1,3.258723450E-1,2.286644897E0,1.064421524E1,1.089193535E1
5.985187917E-1,4.584965515E-1,2.193688202E0,1.054512131E1,1.078063404E1
6.084387916E-1,8.074209595E-1,2.296075287E0,1.062325882E1,1.089850991E1
6.183597917E-1,1.161434784E0,2.543810120E0,1.088102280E1,1.123461427E1
6.282807917E-1,1.441053314E0,2.836002502E0,1.136631363E1,1.180307716E1
6.382017916E-1,1.715432739E0,3.080743561E0,1.227507385E1,1.277149672E1
6.481227917E-1,2.015109558E0,3.132984924E0,1.331660797E1,1.382780926E1
6.580437917E-1,2.149979095E0,2.870879974E0,1.388452698E1,1.434030862E1
6.679647916E-1,2.186353455E0,2.651136932E0,1.378977402E1,1.421149309E1
6.778857917E-1,2.375410309E0,2.631677399E0,1.326152252E1,1.372720946E1
6.878067917E-1,2.542013855E0,2.823428650E0,1.253298752E1,1.309615821E1
6.977277916E-1,2.667153625E0,3.503015442E0,1.182301392E1,1.261619926E1
7.076477917E-1,2.543361053E0,3.846251678E0,1.138951538E1,1.228753018E1
7.175687916E-1,2.161205750E0,3.754043427E0,1.152243896E1,1.230976247E1
7.274897917E-1,1.926344147E0,3.733685760E0,1.225187210E1,1.295220372E1
7.374107917E-1,1.826052704E0,3.364403687E0,1.322260345E1,1.376557019E1
7.473317916E-1,1.670675812E0,2.619402924E0,1.407867325E1,1.441740163E1
7.572527917E-1,1.302890625E0,1.786085815E0,1.459509933E1,1.476159040E1
7.671737917E-1,8.752299500E-1,1.114881592E0,1.457728638E1,1.464603245E1
7.770947916E-1,4.140390015E-1,7.009922791E-1,1.395503036E1,1.397875856E1
7.870157917E-1,-1.451980591E-2,5.239105225E-1,1.297397049E1,1.298455249E1
7.969367917E-1,-2.853067017E-1,5.692662048E-1,1.195279404E1,1.196974307E1
8.068577917E-1,-1.438508606E-1,7.854167175E-1,1.094059891E1,1.096969812E1
8.167777917E-1,2.499801636E-1,1.194665680E0,9.952653351E0,1.002721421E1
8.266987916E-1,7.080276489E-1,1.644929352E0,9.047785034E0,9.223313382E0
8.366197917E-1,1.042432251E0,2.124981079E0,8.399782562E0,8.726886998E0
8.465407917E-1,1.319057007E0,2.484383698E0,8.033643951E0,8.511845210E0
8.564617917E-1,1.515598297E0,2.623594208E0,7.946375427E0,8.504420450E0
8.663827917E-1,1.485361176E0,2.620450745E0,8.134833527E0,8.674593733E0
8.763037917E-1,1.366658020E0,2.379302216E0,8.542735291E0,8.972578193E0
8.862247917E-1,1.272803192E0,2.020198975E0,8.893755341E0,9.208697841E0
8.961457500E-1,1.174008636E0,1.763632507E0,8.947643280E0,9.195053897E0
9.060667500E-1,1.062340851E0,1.650168457E0,8.625962219E0,8.846403124E0
9.159867500E-1,9.020242310E-1,1.601369934E0,8.095016327E0,8.301043471E0
9.259077500E-1,7.174580383E-1,1.600771179E0,7.453300781E0,7.656951544E0
9.358287500E-1,5.568420410E-1,1.617985382E0,6.793622589E0,7.005801713E0
9.457497500E-1,4.460723877E-1,1.664538574E0,6.147416382E0,6.384387004E0
9.556707500E-1,3.025209045E-1,1.709295502E0,5.581892395E0,5.845573772E0
9.655917500E-1,2.173480225E-1,1.775906982E0,5.238805847E0,5.535898525E0
9.755127500E-1,1.431024170E-1,1.916464691E0,5.107379150E0,5.456980575E0
9.854337500E-1,9.520202637E-2,1.906734924E0,5.325176239E0,5.657049008E0
9.953547500E-1,8.053253174E-2,1.857786713E0,5.858517151E0,6.146550265E0
1.005275750E0,7.918533325E-2,1.816772003E0,6.241720276E0,6.501230870E0
1.015195750E0,-1.556762695E-2,1.736688538E0,6.359824677E0,6.592700459E0
1.025116750E0,-2.255809021E-1,1.765428772E0,6.232888641E0,6.482015605E0
1.035037750E0,-4.848417664E-1,1.969304810E0,5.984255676E0,6.318587577E0
1.044958750E0,-6.625222778E-1,2.252815247E0,5.805826721E0,6.262725942E0
1.054879750E0,-7.277865601E-1,2.578837280E0,5.883066101E0,6.464560445E0
1.064800750E0,-7.854167175E-1,2.858755188E0,6.121370544E0,6.801509978E0
1.074721750E0,-9.913883972E-1,2.978655853E0,6.430328064E0,7.155722232E0
1.084642750E0,-1.178349609E0,3.048859863E0,6.842720490E0,7.583328950E0
1.094563750E0,-1.210532684E0,3.240461426E0,7.326364746E0,8.101950384E0
1.104484750E0,-9.449848938E-1,3.578757935E0,7.825127563E0,8.656392215E0
1.114404750E0,-5.219645691E-1,3.990850983E0,8.383167114E0,9.299291879E0
1.124325750E0,-1.511856079E-1,4.328848114E0,8.951834564E0,9.944703372E0
1.134246750E0,9.774673462E-2,4.490811310E0,9.491761780E0,1.050097530E1
1.144167750E0,1.088237000E-1,4.670138397E0,9.891131287E0,1.093876197E1
1.154088750E0,3.607498169E-2,4.957989807E0,1.013123199E1,1.127939830E1
1.164009750E0,-8.113128662E-2,5.203329620E0,1.030187714E1,1.154165906E1
1.173930750E0,-2.240840149E-1,5.344635773E0,1.061562469E1,1.188725506E1
1.183851750E0,-4.252656555E-1,5.346432037E0,1.116273697E1,1.238434023E1
1.193772750E0,-6.342311096E-1,5.160668335E0,1.209095673E1,1.316153416E1
1.203693750E0,-1.025816803E0,5.058430939E0,1.328921494E1,1.425634095E1
1.213613750E0,-1.368753662E0,4.820874939E0,1.458581863E1,1.542272437E1
1.223534750E0,-1.485660553E0,4.514312439E0,1.575458817E1,1.645579692E1
1.233455750E0,-1.485959930E0,4.579277344E0,1.625350067E1,1.695152329E1
1.243376750E0,-1.335373077E0,5.110372925E0,1.578632217E1,1.664653419E1
1.253297750E0,-3.155438232E-1,5.407505035E0,1.472053848E1,1.568550069E1
1.263218750E0,1.227746887E0,5.275928650E0,1.366298767E1,1.469761945E1
1.273139750E0,1.868115234E0,5.318739624E0,1.255169861E1,1.375950521E1
1.283060750E0,2.169438629E0,5.107229462E0,1.175834839E1,1.300188500E1
1.292981750E0,2.211950226E0,4.538711700E0,1.145971939E1,1.252269125E1
1.302902750E0,2.070644073E0,3.708388367E0,1.143891266E1,1.220198484E1
1.312823750E0,1.578018494E0,2.610870667E0,1.125344833E1,1.165962638E1
1.322743750E0,5.637277222E-1,1.531016235E0,1.076486435E1,1.088779611E1
1.332664750E0,-5.857319641E-1,7.942483521E-1,9.994566193E0,1.004317010E1
1.342585750E0,-1.396895142E0,4.957690430E-1,9.136700134E0,9.256154295E0
1.352506750E0,-1.862876129E0,6.239025879E-1,8.449479218E0,8.674863743E0
1.362427750E0,-2.041604462E0,9.346563721E-1,8.025261383E0,8.333459760E0
1.372348750E0,-1.995650024E0,1.230740662E0,7.886050873E0,8.227219455E0
1.382269750E0,-1.818568268E0,1.481319580E0,7.926167450E0,8.265931810E0
1.392190750E0,-1.499581604E0,1.690734100E0,7.937693481E0,8.253139075E0
1.402111750E0,-1.132694550E0,1.821711731E0,7.859406281E0,8.146894970E0
1.412032750E0,-8.207432556E-1,1.929786987E0,7.728428650E0,8.007890278E0
1.421952750E0,-6.346801758E-1,2.007176056E0,7.567363586E0,7.854716182E0
1.431873750E0,-5.101391602E-1,2.092498627E0,7.447911987E0,7.753075869E0
1.441794750E0,-4.305047607E-1,2.156565399E0,7.305108948E0,7.628939992E0
1.451715750E0,-3.685336304E-1,2.144739990E0,7.253466339E0,7.572879280E0
1.461636750E0,-3.544628906E-1,2.090402985E0,7.375312958E0,7.674025658E0
1.471557750E0,-3.921844482E-1,2.023342438E0,7.599696350E0,7.874205222E0
1.481478750E0,-4.827461243E-1,1.955084381E0,7.740403748E0,7.998077827E0
1.491399750E0,-5.825885010E-1,1.912572784E0,7.768245850E0,8.021408081E0
1.501320750E0,-6.971003723E-1,1.906285858E0,7.697443085E0,7.960559324E0
1.511241750E0,-8.861572266E-1,1.968256989E0,7.452402649E0,7.758712229E0
1.521161750E0,-1.069226532E0,2.132166138E0,7.027735748E0,7.421485536E0
1.531082750E0,-1.110390930E0,2.379451904E0,6.544540558E0,7.051650197E0
1.541003750E0,-1.109642487E0,2.680326233E0,6.140830078E0,6.791557201E0
1.550924750E0,-1.102008362E0,2.950963440E0,5.888754272E0,6.678325728E0
1.560845750E0,-1.146316223E0,3.203338623E0,5.836213531E0,6.755502024E0
1.570766750E0,-1.210682373E0,3.374881897E0,5.951324158E0,6.947937741E0
1.580687750E0,-1.496438141E0,3.599564667E0,6.129753113E0,7.264300801E0
1.590608750E0,-1.588197327E0,3.597319336E0,6.527476044E0,7.620434414E0
1.600529750E0,-1.538350983E0,3.514691162E0,7.164102173E0,8.126742130E0
1.610450750E0,-1.502575378E0,3.481310577E0,8.040829010E0,8.890004908E0
1.620370750E0,-1.455423431E0,3.447181549E0,8.883127441E0,9.639049286E0
1.630291750E0,-1.308728485E0,3.451821899E0,9.553433533E0,1.024187175E1
1.640212750E0,-9.376501465E-1,3.548820190E0,1.010338989E1,1.074950231E1
1.650133750E0,-5.077441406E-1,3.726800079E0,1.064511337E1,1.129005233E1
1.660054750E0,-1.799258423E-1,3.885619812E0,1.118878281E1,1.184564373E1
1.669975750E0,8.981323242E-4,3.904031525E0,1.151420609E1,1.215805925E1
1.679896750E0,8.771759033E-2,3.739074554E0,1.154189850E1,1.213275706E1
1.689817750E0,1.103205872E-1,3.555107117E0,1.135598511E1,1.189997290E1
1.699738750E0,1.053808594E-1,3.359314270E0,1.101574265E1,1.151706054E1
1.709658750E0,8.951385498E-2,3.182382202E0,1.067100952E1,1.113579873E1
1.719579750E0,2.052232361E-1,3.152594147E0,1.058014847E1,1.104176200E1
1.729500750E0,3.695814514E-1,3.126248932E0,1.076097244E1,1.121198246E1
1.739421750E0,4.381388855E-1,3.075654144E0,1.110810059E1,1.153436226E1
1.749342750E0,4.465214539E-1,2.985391846E0,1.154354507E1,1.193169639E1
1.759263750E0,4.956193542E-1,2.759661255E0,1.181313446E1,1.214131437E1
1.769184750E0,4.385879517E-1,2.527494049E0,1.171044800E1,1.198812654E1
1.779105750E0,3.817062378E-1,2.495310974E0,1.144983994E1,1.172480751E1
1.789026750E0,6.128256226E-1,2.581681366E0,1.111723160E1,1.142950009E1
1.798947750E0,9.422904968E-1,2.822081451E0,1.081860260E1,1.122025924E1
1.808867750E0,1.315015411E0,3.070415039E0,1.101170105E1,1.150714013E1
1.818788750E0,1.740281067E0,3.170706482E0,1.198123489E1,1.251526857E1
1.828709750E0,1.994751892E0,2.971919861E0,1.335298233E1,1.382437991E1
1.838630750E0,2.063608704E0,2.339485016E0,1.463850906E1,1.496721813E1
1.848551750E0,1.964514771E0,1.859732666E0,1.545625854E1,1.569120302E1
1.858472750E0,1.801803131E0,1.330732727E0,1.553903641E1,1.569964957E1
1.868393750E0,1.368304596E0,6.953041077E-1,1.494357468E1,1.502218790E1
1.878314750E0,1.028660889E0,5.216651917E-1,1.394679749E1,1.399440738E1
1.888235750E0,1.019080811E0,6.303392029E-1,1.279628998E1,1.285227180E1
1.898156125E0,1.179397430E0,9.921368408E-1,1.169218597E1,1.179332551E1
1.908077125E0,1.513652344E0,1.417103119E0,1.071666458E1,1.091541224E1
1.917998125E0,1.890718231E0,1.730401611E0,9.735005951E0,1.006674953E1
1.927919125E0,2.132016449E0,2.049987030E0,8.778495026E0,9.263364177E0
1.937840125E0,2.193538513E0,2.300715637E0,7.949668579E0,8.561666553E0
1.947761125E0,2.047891388E0,2.337239685E0,7.320676575E0,7.952914811E0
1.957682125E0,1.780697021E0,2.241738281E0,7.001540222E0,7.564247344E0
1.967603125E0,1.441203003E0,2.068997498E0,6.910379791E0,7.356029201E0
1.977524125E0,1.102607117E0,1.871258698E0,6.999444580E0,7.328681737E0
1.987445125E0,7.906558228E-1,1.745819550E0,7.137607269E0,7.390430303E0
1.997365125E0,5.146298218E-1,1.646875305E0,7.165898438E0,7.370694848E0
2.007286125E0,2.839595032E-1,1.640887756E0,7.006180573E0,7.201368748E0
2.017207125E0,8.337661743E-2,1.723815308E0,6.715934143E0,6.934137458E0
2.027128125E0,-1.146615601E-1,1.836680603E0,6.410419464E0,6.669334346E0
2.037049125E0,-3.421884155E-1,1.994003448E0,6.215674438E0,6.536646800E0
2.046970125E0,-5.179229736E-1,2.159858551E0,6.064937897E0,6.458847022E0
2.056891125E0,-6.170169067E-1,2.332449646E0,5.976621552E0,6.445233618E0
2.066812125E0,-6.979985046E-1,2.468816071E0,6.011049957E0,6.535669537E0
2.076733125E0,-7.083270264E-1,2.554737396E0,6.218817902E0,6.760333308E0
2.086653125E0,-6.246510315E-1,2.617456970E0,6.578070831E0,7.107199573E0
2.096574125E0,-4.087998962E-1,2.671494598E0,7.101382599E0,7.598265299E0
2.106495125E0,-9.086105347E-2,2.752027130E0,7.857759705E0,8.326241447E0
2.116416125E0,1.683998108E-1,2.744542694E0,8.554860077E0,8.985905855E0
2.126337125E0,3.511697388E-1,2.615511017E0,9.072783051E0,9.448788830E0
2.136258125E0,4.586462402E-1,2.507585449E0,9.344019012E0,9.685506309E0
2.146179125E0,4.409829712E-1,2.433339844E0,9.318122864E0,9.640696162E0
2.156100125E0,3.116519165E-1,2.438728638E0,8.984766083E0,9.315070899E0
2.166021125E0,1.793270874E-1,2.508034515E0,8.575666809E0,8.936691589E0
2.175942125E0,5.897735596E-2,2.614912262E0,8.269852753E0,8.673621448E0
2.185862125E0,3.472778320E-2,2.791844330E0,8.163573761E0,8.627835032E0
2.195783125E0,1.658551025E-1,3.054248657E0,8.300089874E0,8.845758006E0
2.205704125E0,3.252735901E-1,3.298989716E0,8.689130859E0,9.300007051E0
2.215625125E0,5.700146484E-1,3.433709564E0,9.095535736E0,9.738790910E0
2.225546125E0,9.201365662E-1,3.341052246E0,9.175918579E0,9.808504635E0
2.235467125E0,1.463656311E0,3.409909058E0,9.416767731E0,1.012152578E1
2.245388125E0,1.989363098E0,3.597618713E0,9.647587738E0,1.048696215E1
2.255309125E0,2.182760925E0,3.817361755E0,9.622290344E0,1.057946915E1
2.265230125E0,2.218386841E0,4.038002930E0,1.002600082E1,1.103392044E1
2.275150125E0,1.982926483E0,4.136647797E0,1.108819199E1,1.199966058E1
2.285071125E0,1.629511414E0,3.947141876E0,1.298834061E1,1.367231612E1
2.294992125E0,1.024619293E0,3.695515137E0,1.511197449E1,1.559097334E1
2.304913125E0,2.474354553E-1,3.343297577E0,1.661425049E1,1.694910565E1
2.314834125E0,-3.887416077E-1,3.227588196E0,1.706870544E1,1.737553312E1
2.324755125E0,-4.038601685E-1,3.686533813E0,1.653521484E1,1.694600143E1
2.334676125E0,3.847000122E-1,4.223018188E0,1.517888535E1,1.576009001E1
2.344597125E0,1.478924561E0,4.629722443E0,1.395952103E1,1.478139963E1
2.354518125E0,2.338736572E0,5.432353363E0,1.343740677E1,1.468141861E1
2.364439125E0,2.843786316E0,5.579796753E0,1.258043884E1,1.405306706E1
2.374359125E0,3.143163757E0,4.596790924E0,1.240769806E1,1.360003442E1
2.384280125E0,2.494412842E0,3.027454376E0,1.280676819E1,1.339406163E1
2.394201125E0,1.061143341E0,1.336720276E0,1.270991959E1,1.282399712E1
2.404122125E0,-6.294410706E-1,-7.454498291E-2,1.213212112E1,1.214866725E1
2.414043125E0,-1.977238312E0,-1.080752563E0,1.131377289E1,1.153598519E1
2.423964125E0,-2.895578613E0,-1.589095459E0,1.033944901E1,1.085420682E1
2.433885125E0,-3.433260498E0,-1.550625458E0,9.307345276E0,1.004083627E1
2.443806125E0,-3.549119568E0,-1.174457703E0,8.422235870E0,9.214643653E0
2.453727125E0,-3.486549683E0,-6.947053528E-1,7.632328491E0,8.419684223E0
2.463648125E0,-3.109483795E0,-3.198847961E-1,7.148983612E0,7.802511291E0
2.473568125E0,-2.608325958E0,3.719764709E-1,7.027436371E0,7.505104446E0
2.483489125E0,-2.321372681E0,1.069825287E0,6.765481110E0,7.232221783E0
2.493410125E0,-1.926942902E0,1.197659454E0,6.587052155E0,6.966832365E0
2.503331125E0,-1.616787872E0,1.126407623E0,6.495592346E0,6.787894894E0
2.513252125E0,-1.300645294E0,1.049168243E0,6.468348999E0,6.680716351E0
2.523173125E0,-1.047371979E0,1.061143341E0,6.407276001E0,6.578464791E0
2.533094125E0,-7.833210754E-1,1.115330658E0,6.408323822E0,6.551653882E0
2.543015125E0,-4.635859680E-1,1.218915253E0,6.430328064E0,6.561233524E0
2.552936125E0,-2.130070496E-1,1.397044830E0,6.384223938E0,6.538762999E0
2.562856125E0,-1.219963074E-1,1.512754211E0,6.313421173E0,6.493273082E0
2.572777125E0,-1.957928467E-1,1.507365417E0,6.285429382E0,6.466614869E0
2.582698125E0,-3.890409851E-1,1.482068024E0,6.412215729E0,6.592752769E0
2.592619125E0,-4.957690430E-1,1.451830902E0,6.612050171E0,6.787695292E0
2.602540125E0,-6.138734436E-1,1.432071991E0,6.882238312E0,7.056406661E0
2.612461125E0,-7.789801025E-1,1.396895142E0,7.153174896E0,7.329804713E0
2.622382125E0,-8.803193665E-1,1.341061249E0,7.362888794E0,7.535618014E0
2.632303125E0,-8.957373047E-1,1.410516815E0,7.468718719E0,7.653343212E0
2.642224125E0,-8.081694031E-1,1.606010284E0,7.401658173E0,7.616885881E0
2.652144125E0,-6.318360901E-1,1.912722473E0,7.201823730E0,7.478234360E0
2.662065125E0,-4.423301697E-1,2.322869568E0,7.072342987E0,7.457172007E0
2.671986125E0,-3.155438232E-1,2.671045532E0,7.003336487E0,7.502051325E0
2.681907125E0,-2.255809021E-1,2.907404022E0,7.072941742E0,7.650515654E0
2.691828125E0,-7.529342651E-2,3.091371460E0,7.442074127E0,8.058952408E0
2.701749125E0,1.330732727E-1,3.303480377E0,8.031997375E0,8.685831736E0
2.711670125E0,4.062551880E-1,3.437601471E0,8.697812805E0,9.361308389E0
2.721591125E0,6.994953918E-1,3.466641083E0,9.418713684E0,1.006076844E1
2.731512125E0,8.843609619E-1,3.451073456E0,1.021610550E1,1.081946458E1
2.741433125E0,9.413923645E-1,3.298390961E0,1.097427887E1,1.149784324E1
2.751353125E0,8.297245789E-1,3.037034454E0,1.160357025E1,1.202309709E1
2.761274125E0,6.325845337E-1,2.771636353E0,1.201147202E1,1.234332173E1
2.771195125E0,4.396357727E-1,2.633323975E0,1.209679459E1,1.238790192E1
2.781116125E0,3.685336304E-1,2.663112030E0,1.185938828E1,1.216030727E1
2.791037125E0,4.682263184E-1,2.864593048E0,1.162632294E1,1.198317630E1
2.800958125E0,6.011499023E-1,3.094963989E0,1.171748337E1,1.213423256E1
2.810879125E0,7.470964050E-1,3.268602905E0,1.205039108E1,1.250815107E1
2.820800125E0,8.809181213E-1,3.397335205E0,1.250664230E1,1.298976539E1
2.830721125E0,9.223818970E-1,3.353326721E0,1.303249878E1,1.348857342E1
2.840641125E0,8.686436462E-1,3.027304688E0,1.333142715E1,1.369839645E1
2.850562125E0,7.198530579E-1,2.528990936E0,1.326870758E1,1.352673591E1
2.860483125E0,5.382806396E-1,2.259551239E0,1.297891022E1,1.318512147E1
2.870404125E0,5.800437927E-1,2.246378632E0,1.252939499E1,1.274238622E1
2.880325125E0,6.135740662E-1,2.413131866E0,1.192809540E1,1.218520161E1
2.890246125E0,5.324427795E-1,2.588117981E0,1.149908752E1,1.179876535E1
2.900166250E0,5.059478760E-1,2.478994904E0,1.183004929E1,1.209758096E1
2.910087250E0,6.641688538E-1,2.168241119E0,1.310809158E1,1.330279876E1
2.920008250E0,7.716453552E-1,1.636696472E0,1.465407669E1,1.476537082E1
2.929929250E0,8.491841125E-1,9.698332214E-1,1.587194412E1,1.592420486E1
2.939849250E0,1.027463379E0,3.382965088E-1,1.630304764E1,1.633889494E1
2.949770250E0,1.048569489E0,-4.430786133E-2,1.582060089E1,1.585537365E1
2.959691250E0,8.975335693E-1,-1.926493835E-1,1.452055435E1,1.454954223E1
2.969612250E0,8.476872253E-1,-7.918533325E-2,1.286155426E1,1.288970217E1
2.979533250E0,1.069675598E0,2.562670898E-1,1.142469223E1,1.147752026E1
2.989454250E0,1.556463318E0,5.038522339E-1,1.044632675E1,1.057365536E1
2.999375250E0,2.067650299E0,7.044351196E-1,9.797575836E0,1.003812228E1
3.009296250E0,2.398312683E0,8.834628296E-1,9.394464111E0,9.735931709E0
3.019216250E0,2.539469147E0,9.437873840E-1,9.161249084E0,9.553435139E0
3.029137250E0,2.460134125E0,8.750802612E-1,8.972192230E0,9.344423941E0
3.039058250E0,2.171983337E0,6.939569092E-1,8.833580475E0,9.123115247E0
3.048979250E0,1.790127411E0,5.583389282E-1,8.702453156E0,8.902190148E0
3.058900250E0,1.445993042E0,4.879852295E-1,8.593928833E0,8.728381193E0
3.068821250E0,1.074765015E0,4.700225830E-1,8.487350464E0,8.568031219E0
3.078742250E0,7.333250427E-1,5.090913391E-1,8.276588745E0,8.324593736E0
3.088663250E0,4.475692749E-1,5.551954651E-1,7.869136047E0,7.901383575E0
3.098584250E0,1.998344421E-1,6.486012268E-1,7.265890503E0,7.297518904E0
3.108505250E0,7.125183105E-2,8.319699097E-1,6.591991882E0,6.644667616E0
3.118425250E0,8.008346558E-2,1.099912720E0,5.943390656E0,6.044841920E0
3.128346250E0,7.214996338E-2,1.377435608E0,5.368436279E0,5.542800967E0
3.138267250E0,7.933502197E-2,1.669328613E0,5.007536774E0,5.279050729E0
3.148188250E0,8.816665649E-2,1.949246521E0,4.922363892E0,5.294997794E0
3.158109250E0,1.317260742E-2,2.105820923E0,5.148693237E0,5.562705936E0
3.168030250E0,-1.442999268E-1,2.175575867E0,5.580395508E0,5.991224152E0
3.177951250E0,-3.174897766E-1,2.223625946E0,6.019881592E0,6.425284934E0
3.187872250E0,-4.531077576E-1,2.214195557E0,6.439309387E0,6.824417483E0
3.197793250E0,-5.227130127E-1,2.160906372E0,6.928941193E0,7.276879228E0
3.207714250E0,-6.042933655E-1,2.083068237E0,7.399113464E0,7.710461971E0
3.217634250E0,-6.233038330E-1,2.019450531E0,7.776478729E0,8.058555053E0
3.227555250E0,-6.137237549E-1,2.029479675E0,7.959248657E0,8.236812720E0
3.237476250E0,-7.223977661E-1,1.882335663E0,8.076903992E0,8.324747694E0
3.247397250E0,-4.595443726E-1,2.436932373E0,8.152047729E0,8.520897993E0
3.257318250E0,-7.963439941E-2,2.692301331E0,8.351283417E0,8.774893891E0
3.267239250E0,-9.370513916E-2,2.609972534E0,8.375682678E0,8.773414250E0
3.277160250E0,1.028361511E-1,2.934647369E0,8.483009491E0,8.976869191E0
3.287081250E0,2.291734314E-1,3.085982666E0,8.779093781E0,9.308506705E0
3.297001250E0,1.974394226E-1,3.123704224E0,9.238488464E0,9.754290313E0
3.306922250E0,9.370513916E-2,3.262166290E0,9.645043030E0,1.018220824E1
3.316843250E0,-1.387614441E-1,3.169059906E0,1.011701157E1,1.060264677E1
3.326764250E0,-2.399510193E-1,2.937641144E0,1.070932983E1,1.110752256E1
3.336685250E0,-1.841171265E-1,2.868784332E0,1.126736938E1,1.162830321E1
3.346606250E0,6.256988525E-2,2.972967682E0,1.152079239E1,1.189836582E1
3.356527250E0,-2.421963501E-1,2.641407166E0,1.150537445E1,1.180717291E1
3.366448250E0,9.475296021E-2,3.421734467E0,1.166374512E1,1.215566514E1
3.376369250E0,7.945477295E-1,4.282743988E0,1.252954468E1,1.326509299E1
3.386289250E0,6.683601379E-1,3.656446381E0,1.299627411E1,1.351737571E1
3.396210250E0,3.146456909E-1,3.242108002E0,1.327813797E1,1.367184019E1
3.406131250E0,1.002914429E-1,3.355422363E0,1.368439316E1,1.409012185E1
3.416052250E0,9.924362183E-2,3.414699097E0,1.366089203E1,1.408154786E1
3.425973250E0,3.423381042E-1,3.706741791E0,1.332079926E1,1.383115407E1
3.435894250E0,9.355545044E-1,3.962559814E0,1.304731796E1,1.366783262E1
3.445815250E0,1.684447174E0,3.851041718E0,1.337109467E1,1.401620695E1
3.455736250E0,2.128423920E0,3.303031311E0,1.421129745E1,1.474453050E1
3.465657250E0,1.925446014E0,2.448308716E0,1.501572464E1,1.533536907E1
3.475578250E0,1.309626617E0,1.359323273E0,1.557211761E1,1.568609985E1
3.485498250E0,7.562274170E-1,1.422042847E-2,1.595681763E1,1.597473352E1
3.495419250E0,4.415817261E-2,-8.030799866E-1,1.545012131E1,1.547104185E1
3.505340250E0,-6.403683472E-1,-1.240171051E0,1.390248962E1,1.397237681E1
3.515261250E0,-1.167721710E0,-1.023571472E0,1.156734558E1,1.167110776E1
3.525182250E0,-1.270108795E0,-2.320175171E-1,9.223818970E0,9.313744943E0
3.535103250E0,-1.039737854E0,4.981640625E-1,7.521708527E0,7.609554612E0
3.545024250E0,-9.273216248E-1,8.731343079E-1,6.455475769E0,6.579928291E0
3.554945250E0,-1.020877075E0,1.073268127E0,5.863157501E0,6.047372186E0
3.564866250E0,-1.184786224E0,1.200353851E0,5.680686951E0,5.925771848E0
3.574786250E0,-1.353485413E0,1.278641052E0,5.797743530E0,6.089390425E0
3.584707250E0,-1.399888916E0,1.334474945E0,6.115981750E0,6.414494924E0
3.594628250E0,-1.414708099E0,1.288071442E0,6.455625458E0,6.733173627E0
3.604549250E0,-1.393452301E0,1.241218872E0,6.745572510E0,6.998934354E0
3.614470250E0,-1.215173035E0,1.243763580E0,7.001390533E0,7.214087797E0
3.624391250E0,-9.232800293E-1,1.321601715E0,7.275919647E0,7.452387793E0
3.634312250E0,-6.132746887E-1,1.428778839E0,7.496710510E0,7.656251256E0
3.644233250E0,-4.086502075E-1,1.453178101E0,7.564519501E0,7.713668185E0
3.654154250E0,-3.119512939E-1,1.430275726E0,7.530540161E0,7.671508156E0
3.664075250E0,-2.173480225E-1,1.428928528E0,7.540868683E0,7.678136323E0
3.673995250E0,-1.130149841E-1,1.456620941E0,7.681875458E0,7.819573358E0
3.683916250E0,-9.310638428E-2,1.489402771E0,7.888745270E0,8.028654392E0
3.693837250E0,-1.618135071E-1,1.480122070E0,8.141868896E0,8.276893988E0
3.703758250E0,-2.652484131E-1,1.419498138E0,8.349337463E0,8.473297337E0
3.713679250E0,-3.516188049E-1,1.384021912E0,8.310717773E0,8.432507477E0
3.723600250E0,-4.661306763E-1,1.448537750E0,7.989036713E0,8.132665431E0
3.733521250E0,-5.771997070E-1,1.610201569E0,7.547454987E0,7.738862020E0
3.743442250E0,-5.807922363E-1,1.823358307E0,7.136858826E0,7.388958589E0
3.753363250E0,-5.307962036E-1,2.006876678E0,6.734645233E0,7.047321834E0
3.763283250E0,-4.574487305E-1,2.254312134E0,6.392606506E0,6.793864915E0
3.773204250E0,-2.851570129E-1,2.617157593E0,6.324198761E0,6.850278706E0
3.783125250E0,-5.643264771E-2,2.939437408E0,6.520590363E0,7.152732037E0
3.793046250E0,1.127156067E-1,3.220403137E0,6.953490143E0,7.663858450E0
3.802967250E0,2.424957275E-1,3.434607697E0,7.523355103E0,8.273826576E0
3.812888250E0,2.874023438E-1,3.535946960E0,8.158634033E0,8.896562836E0
3.822809250E0,2.161505127E-1,3.463796997E0,8.797655182E0,9.457449306E0
3.832730250E0,1.836680603E-1,3.205883331E0,9.372459869E0,9.907291552E0
3.842651250E0,1.456471252E-1,2.946173401E0,9.916578369E0,1.034599813E1
3.852571250E0,8.637039185E-2,2.783461761E0,1.038330780E1,1.075026512E1
3.862492250E0,3.697311401E-2,2.692001953E0,1.064840652E1,1.098347864E1
3.872413250E0,1.100212097E-1,2.675685883E0,1.079495178E1,1.112215733E1
3.882334250E0,2.089654541E-1,2.647095337E0,1.097323105E1,1.128993268E1
3.892255250E0,1.962419128E-1,2.587968292E0,1.124835892E1,1.154390181E1
3.902176125E0,1.279838562E-1,2.452350311E0,1.153291718E1,1.179146219E1
3.912097125E0,6.541397095E-2,2.258204041E0,1.197584610E1,1.218706914E1
3.922018125E0,-1.375639343E-1,2.148931274E0,1.249257156E1,1.267679667E1
3.931939125E0,-3.492237854E-1,2.081271973E0,1.299627411E1,1.316650261E1
3.941859125E0,-3.855981445E-1,2.030377808E0,1.347557739E1,1.363313266E1
3.951780125E0,-2.778222656E-1,1.999990997E0,1.358919113E1,1.373838654E1
3.961701125E0,-2.320175171E-1,2.054477692E0,1.309432022E1,1.325654302E1
3.971622125E0,-1.437011719E-2,2.131118317E0,1.232536926E1,1.250826124E1
3.981543125E0,2.800675964E-1,2.325863342E0,1.152872589E1,1.176433589E1
3.991464125E0,4.198768616E-1,2.570005646E0,1.075154205E1,1.106240851E1
4.001385125E0,4.978646851E-1,2.840493164E0,1.030097900E1,1.069702945E1
4.011306125E0,5.993536377E-1,2.914589081E0,1.048838928E1,1.090231003E1
4.021227125E0,8.830137634E-1,2.732417908E0,1.158306290E1,1.193369880E1
4.031147125E0,1.317111053E0,2.266287231E0,1.313473618E1,1.339373487E1
4.041068125E0,1.455872498E0,1.602717133E0,1.453716980E1,1.469753628E1
4.050989125E0,1.398242340E0,8.541238403E-1,1.550685333E1,1.559317509E1
4.060910125E0,1.162033539E0,2.939886475E-1,1.560460007E1,1.565056850E1
4.070831125E0,9.241781616E-1,-1.347198486E-2,1.470152802E1,1.473055371E1
4.080752125E0,7.228468323E-1,-4.790039062E-3,1.305734711E1,1.307734086E1
4.090673125E0,6.486012268E-1,3.864962769E-1,1.128652954E1,1.131175548E1
4.100594125E0,7.879614258E-1,8.424481201E-1,9.875413971E0,9.942555162E0
4.110515125E0,1.069226532E0,1.120420074E0,9.162745972E0,9.292712212E0
4.120436125E0,1.350791016E0,1.352437592E0,9.193881226E0,9.390483257E0
4.130356125E0,1.448537750E0,1.696571960E0,9.691596222E0,9.945031692E0
4.140277125E0,1.439706116E0,1.657802582E0,1.027613068E1,1.050808854E1
4.150198125E0,1.301094360E0,1.488354950E0,1.046069687E1,1.064585487E1
4.160119125E0,1.002465363E0,1.306333466E0,1.017269577E1,1.030510471E1
4.170040125E0,6.879693604E-1,1.230141907E0,9.574539642E0,9.677724955E0
4.179961125E0,3.876937866E-1,1.266516266E0,8.753047943E0,8.852695534E0
4.189882125E0,8.966354370E-2,1.398691406E0,8.104596405E0,8.224892710E0
4.199803125E0,-1.913021851E-1,1.557660828E0,7.630681915E0,7.790392177E0
4.209724125E0,-3.438349915E-1,1.724264374E0,7.229067078E0,7.439806513E0
4.219644125E0,-4.249662781E-1,1.909878387E0,7.062164154E0,7.328191750E0
4.229565125E0,-4.992118835E-1,1.965412903E0,7.140451355E0,7.422809841E0
4.239486125E0,-5.517526245E-1,1.863025818E0,7.345973969E0,7.598593929E0
4.249407125E0,-6.536906433E-1,1.751358032E0,7.455097046E0,7.685898671E0
4.259328125E0,-8.910969543E-1,1.617536316E0,7.438481598E0,7.664299446E0
4.269249125E0,-1.091679840E0,1.551822968E0,7.348219299E0,7.589219081E0
4.279170125E0,-1.138981476E0,1.566642151E0,7.182663574E0,7.439240717E0
4.289091125E0,-1.155447235E0,1.683848419E0,6.983577576E0,7.276040102E0
4.299012125E0,-1.096918945E0,1.822759552E0,6.626420288E0,6.959535142E0
4.308932125E0,-9.741741943E-1,1.980531464E0,6.094127197E0,6.481504959E0
4.318853125E0,-8.057743835E-1,2.228266296E0,5.609584808E0,6.089489697E0
4.328774125E0,-7.042854309E-1,2.442919922E0,5.382956085E0,5.953158147E0
4.338695125E0,-7.533833313E-1,2.616409149E0,5.298681335E0,5.957281861E0
4.348616125E0,-6.864724731E-1,2.743943939E0,5.340594177E0,6.043378109E0
4.358537125E0,-5.207670593E-1,2.915187836E0,5.677842865E0,6.403703463E0
4.368458125E0,-4.447251892E-1,3.053799591E0,6.239924011E0,6.961330627E0
4.378379125E0,-3.165916443E-1,3.089724884E0,6.870412903E0,7.539841085E0
4.388300125E0,-3.764671326E-1,3.045267334E0,7.627239075E0,8.221323284E0
4.398220125E0,-5.664221191E-1,2.950514374E0,8.378676453E0,8.901044219E0
4.408141125E0,-6.611750793E-1,2.879861298E0,8.664132843E0,9.154122104E0
4.418062125E0,-7.616162109E-1,2.994223480E0,8.387508087E0,8.938440883E0
4.427983125E0,-8.138575745E-1,3.274141388E0,8.022417297E0,8.702961868E0
4.437904125E0,-7.842192078E-1,3.529061279E0,7.906558228E0,8.693844735E0
4.447825125E0,-7.423063660E-1,3.565435638E0,7.993377686E0,8.783930604E0
4.457746125E0,-3.683839417E-1,3.784280548E0,9.086704102E0,9.850110529E0
4.467667125E0,-3.125500488E-1,3.992347870E0,1.016176849E1,1.092236549E1
4.477588125E0,-3.047662354E-1,3.656147003E0,1.135927826E1,1.193706396E1
4.487508125E0,-5.028044128E-1,3.285218353E0,1.274584488E1,1.317201707E1
4.497429125E0,-1.067579956E0,3.110830994E0,1.377989456E1,1.416695064E1
4.507350125E0,-1.620081024E0,2.829865265E0,1.438822952E1,1.475309963E1
4.517271125E0,-2.117945709E0,2.840343475E0,1.479074249E1,1.520918501E1
4.527192125E0,-2.224524078E0,3.269051971E0,1.499431915E1,1.550692797E1
4.537113125E0,-1.738634491E0,3.790417786E0,1.495554977E1,1.552606151E1
4.547034125E0,-9.774673462E-1,4.037254486E0,1.485091736E1,1.542091478E1
4.556955125E0,-1.329235840E-1,3.898193665E0,1.481783615E1,1.532259282E1
4.566876125E0,4.831951904E-1,3.400328979E0,1.479972382E1,1.519300957E1
4.576796125E0,7.370672607E-1,2.783312073E0,1.482502121E1,1.510203126E1
4.586717125E0,7.036866760E-1,2.165846100E0,1.465033447E1,1.482627278E1
4.596638125E0,3.832031250E-1,1.666634216E0,1.416818710E1,1.427102099E1
4.606559125E0,-2.056723022E-1,1.328188019E0,1.346914078E1,1.353603109E1
4.616480125E0,-8.652008057E-1,1.071621552E0,1.255484207E1,1.263016249E1
4.626401125E0,-1.309925995E0,9.460327148E-1,1.149624344E1,1.160924189E1
4.636322125E0,-1.556762695E0,1.100361786E0,1.047716263E1,1.064918978E1
4.646243125E0,-1.537303162E0,1.244062958E0,9.527687073E0,9.730766394E0
4.656164125E0,-1.402583313E0,1.424288177E0,8.747210083E0,8.972709791E0
4.666085125E0,-1.201850739E0,1.767075348E0,8.244405670E0,8.516878850E0
4.676005125E0,-8.840615845E-1,1.896855469E0,7.877368927E0,8.150617570E0
4.685926125E0,-5.721102905E-1,1.977388000E0,7.656128998E0,7.928031579E0
4.695847125E0,-2.662962341E-1,2.051783295E0,7.631879425E0,7.907358088E0
4.705768125E0,2.739303589E-2,2.035018158E0,7.833959198E0,8.094008030E0
4.715689125E0,2.335144043E-1,1.906136169E0,8.171357574E0,8.393984077E0
4.725610125E0,2.493814087E-1,1.681752777E0,8.493188324E0,8.661681788E0
4.735531125E0,1.344204712E-1,1.500180359E0,8.723559265E0,8.852632164E0
4.745452125E0,5.179229736E-2,1.330583038E0,8.784332886E0,8.884685583E0
4.755373125E0,4.700225830E-2,1.253643036E0,8.515042877E0,8.606961443E0
4.765293125E0,5.583389282E-2,1.343306580E0,8.037535858E0,8.149206873E0
4.775214125E0,1.062789917E-1,1.505419464E0,7.554789734E0,7.704052889E0
4.785135125E0,1.329235840E-1,1.672921143E0,7.100634155E0,7.296255151E0
4.795056125E0,8.666976929E-2,1.775008850E0,6.702462158E0,6.934058483E0
4.804977125E0,-6.256988525E-2,1.815275116E0,6.374643860E0,6.628365038E0
4.814898125E0,-2.543211365E-1,1.852996674E0,6.130800934E0,6.409757874E0
4.824819125E0,-4.382885742E-1,1.913770294E0,6.014193420E0,6.326542192E0
4.834740125E0,-6.074368286E-1,1.943857727E0,6.039191437E0,6.373334729E0
4.844661125E0,-7.535330200E-1,1.918560333E0,6.230343933E0,6.562459241E0
4.854581125E0,-7.849676514E-1,1.978735199E0,6.406527557E0,6.750937901E0
4.864502125E0,-6.577322388E-1,2.151026917E0,6.525679779E0,6.902465145E0
4.874423125E0,-6.004014587E-1,2.333497467E0,6.669081573E0,7.091004257E0
4.884344125E0,-5.679190063E-1,2.589165802E0,6.769373016E0,7.269850245E0
4.894265750E0,-4.444258118E-1,2.837200012E0,6.962471466E0,7.531482399E0
4.904186750E0,-3.118016052E-1,3.090024261E0,7.338938599E0,7.969033187E0
4.914107750E0,-2.357597351E-1,3.227737885E0,7.893235931E0,8.530946487E0
4.924028750E0,-1.883084106E-1,3.255280609E0,8.419691162E0,9.029037112E0
4.933949750E0,-1.945953369E-1,3.253484344E0,8.860075378E0,9.440548895E0
4.943869750E0,-3.068618774E-1,3.257525940E0,9.230255585E0,9.793020863E0
4.953790750E0,-5.140310669E-1,3.180585938E0,9.511670380E0,1.004252101E1
4.963711750E0,-6.631210327E-1,3.013683014E0,9.688602448E0,1.016813809E1
4.973632750E0,-6.050418091E-1,2.915487213E0,9.839788055E0,1.028044601E1
4.983553750E0,-4.144880676E-1,2.889740753E0,9.939630432E0,1.035947176E1
4.993474750E0,-8.098159790E-2,2.866239624E0,9.969119110E0,1.037329376E1
5.003395750E0,3.653901672E-1,2.899171143E0,9.986632690E0,1.040536092E1
5.013316750E0,6.664141846E-1,2.979404297E0,1.011012589E1,1.056104177E1
5.023237750E0,8.128097534E-1,3.074007568E0,1.040561142E1,1.088057587E1
5.033157750E0,8.078700256E-1,3.100053406E0,1.091051147E1,1.137111453E1
5.043078750E0,7.387138367E-1,2.930605774E0,1.139176071E1,1.178585425E1
5.052999750E0,8.366102600E-1,2.749632111E0,1.160252243E1,1.195319707E1
5.062920750E0,1.075513458E0,2.761607208E0,1.182974991E1,1.219533462E1
5.072841750E0,1.501976624E0,2.794688416E0,1.195788345E1,1.237162858E1
5.082762750E0,1.777104492E0,2.847977600E0,1.161464722E1,1.209004164E1
5.092683750E0,1.676962738E0,2.982996826E0,1.093311447E1,1.145615407E1
5.102604750E0,1.421294403E0,3.279679871E0,1.036519547E1,1.096419878E1
5.112525750E0,1.077758789E0,3.122506714E0,9.756411438E0,1.030044544E1
5.122445750E0,1.187929688E0,2.643951874E0,1.019754410E1,1.060148877E1
5.132366750E0,1.282233582E0,2.257754974E0,1.121602615E1,1.151263754E1
5.142287750E0,1.416055298E0,1.856289825E0,1.226145218E1,1.248175605E1
5.152208750E0,1.515298920E0,1.549577637E0,1.323308167E1,1.340939119E1
5.162129750E0,1.379980316E0,1.284628601E0,1.393167892E1,1.405867327E1
5.172050750E0,1.234782257E0,1.105301514E0,1.406220749E1,1.415952182E1
5.181971750E0,1.284478912E0,1.095721436E0,1.370070923E1,1.380434442E1
5.191892750E0,1.494492188E0,1.180744629E0,1.312755112E1,1.326500144E1
5.201813750E0,1.849254456E0,1.281934204E0,1.229647934E1,1.250066004E1
5.211733750E0,2.208657074E0,1.409169617E0,1.130344437E1,1.160309354E1
5.221654750E0,2.480042725E0,1.482816467E0,1.040606049E1,1.079978942E1
5.231575750E0,2.617456970E0,1.508413239E0,9.707463226E0,1.016667270E1
5.241496750E0,2.634072418E0,1.489103394E0,9.159602509E0,9.646454506E0
5.251417750E0,2.451452179E0,1.482517090E0,8.783285065E0,9.238699651E0
5.261338750E0,2.152374115E0,1.471739502E0,8.533155212E0,8.922638028E0
5.271259750E0,1.834285583E0,1.415905609E0,8.345445557E0,8.661169311E0
5.281180750E0,1.539548492E0,1.377585297E0,8.133336639E0,8.391609840E0
5.291101750E0,1.250200195E0,1.455573120E0,7.852520599E0,8.083549554E0
5.301021750E0,1.087787933E0,1.570384369E0,7.602091370E0,7.838442629E0
5.310942750E0,9.472302246E-1,1.646575928E0,7.360643463E0,7.601810941E0
5.320863750E0,7.905061340E-1,1.825154572E0,7.057673492E0,7.332587830E0
5.330784750E0,7.140151978E-1,2.046544189E0,6.653513947E0,6.997671660E0
5.340705750E0,6.432124329E-1,2.291285248E0,6.269861755E0,6.706331095E0
5.350626750E0,5.107379150E-1,2.491568756E0,6.144272919E0,6.649876524E0
5.360547750E0,3.091072083E-1,2.575244751E0,6.264323273E0,6.780057438E0
5.370468750E0,6.182144165E-2,2.609074402E0,6.537205811E0,7.038902680E0
5.380389750E0,-1.809736633E-1,2.658621368E0,6.846462708E0,7.346772805E0
5.390309750E0,-3.126997375E-1,2.706970825E0,7.271129608E0,7.764972502E0
5.400230750E0,-3.299139404E-1,2.777025146E0,7.843090210E0,8.326750622E0
5.410151750E0,-2.023791504E-1,2.868185577E0,8.381819916E0,8.861283819E0
5.420072750E0,5.313949585E-2,2.977608032E0,8.803193665E0,9.293287475E0
5.429993750E0,3.164419556E-1,3.059936829E0,9.000333710E0,9.511538035E0
5.439914750E0,4.507127380E-1,3.064427490E0,8.935069427E0,9.456707857E0
5.449835750E0,4.905299377E-1,2.996169434E0,8.679700470E0,9.195371180E0
5.459756750E0,5.005590820E-1,2.990630951E0,8.386460266E0,8.917799542E0
5.469677750E0,3.876937866E-1,3.056493988E0,8.215665436E0,8.774372942E0
5.479598750E0,3.367996216E-1,3.149300995E0,8.259673920E0,8.846114627E0
5.489518750E0,3.926335144E-1,3.245401154E0,8.565188599E0,9.167837556E0
5.499439750E0,3.219804382E-1,3.294499054E0,9.054071960E0,9.640208218E0
5.509360750E0,7.394622803E-2,3.302731934E0,9.602381744E0,1.015476447E1
5.519281750E0,-1.610650635E-1,3.371439056E0,1.011910721E1,1.066718679E1
5.529202750E0,-2.868035889E-1,3.419788513E0,1.044722488E1,1.099644113E1
5.539123750E0,-3.128494263E-1,3.486399994E0,1.043075912E1,1.100243589E1
5.549044750E0,-3.080593872E-1,3.598367157E0,1.001462448E1,1.064593116E1
5.558965750E0,-2.445913696E-1,3.750450897E0,9.560917969E0,1.027311342E1
5.568886750E0,-2.731819153E-1,3.763174438E0,9.317374420E0,1.005234183E1
5.578806750E0,-4.538562012E-1,3.620820465E0,9.277856598E0,9.969701567E0
5.588727750E0,-7.611671448E-1,3.576961670E0,9.651629333E0,1.032123922E1
5.598648750E0,-1.378483429E0,3.431464233E0,1.024679169E1,1.089366344E1
5.608569750E0,-2.250719604E0,3.319497070E0,1.066292633E1,1.139222531E1
5.618490750E0,-2.450853424E0,3.682941284E0,1.114312775E1,1.198916323E1
5.628411750E0,-1.519190826E0,4.207001495E0,1.219873260E1,1.299291651E1
5.638332750E0,4.894821167E-2,4.332590332E0,1.416160080E1,1.480961418E1
5.648253750E0,1.847458191E0,4.153562622E0,1.667158127E1,1.728024323E1
5.658173750E0,3.663781128E0,3.746708679E0,1.891137360E1,1.962399474E1
5.668094750E0,5.070256348E0,3.096909943E0,2.011756531E1,2.097652937E1
5.678015750E0,5.261109467E0,2.109413452E0,1.980651215E1,2.060162181E1
5.687936750E0,4.089346161E0,9.015751648E-1,1.801099594E1,1.849139163E1
5.697857750E0,2.346520386E0,-6.526428223E-2,1.536599625E1,1.554426769E1
5.707778750E0,1.024020538E0,-3.324586487E-1,1.269165756E1,1.273724140E1
5.717699750E0,1.767823792E-1,-1.736389160E-2,1.024903702E1,1.025057624E1
5.727620750E0,-2.056723022E-1,4.565505981E-1,8.511150970E0,8.525868307E0
5.737541750E0,-4.471202087E-1,8.595126343E-1,7.430847473E0,7.493742231E0
5.747462750E0,-6.018983459E-1,1.194066925E0,6.716383209E0,6.848202746E0
5.757382750E0,-5.948629761E-1,1.402134247E0,6.256389771E0,6.439119145E0
5.767303750E0,-5.209167480E-1,1.459614716E0,6.001020813E0,6.197909339E0
5.777224750E0,-3.799099731E-1,1.484163666E0,5.934858398E0,6.129405973E0
5.787145750E0,-8.292755127E-2,1.589245148E0,6.036646729E0,6.242890424E0
5.797066750E0,3.147953796E-1,1.733844452E0,6.243516541E0,6.487434894E0
5.806987750E0,6.918612671E-1,1.846859436E0,6.421047363E0,6.717098409E0
5.816908750E0,9.136999512E-1,1.914518738E0,6.485563202E0,6.823691057E0
5.826829750E0,1.065484314E0,1.958676910E0,6.361620941E0,6.741060233E0
5.836750750E0,1.218765564E0,2.110461273E0,6.154451752E0,6.619419359E0
5.846670750E0,1.409618683E0,2.275268555E0,6.148164825E0,6.705505391E0
5.856591750E0,1.569037170E0,2.381547546E0,6.677913208E0,7.261416609E0
5.866512750E0,1.545536041E0,2.331551514E0,7.525600433E0,8.028665892E0
5.876433750E0,1.494192810E0,2.165546722E0,8.398734741E0,8.801190261E0
5.886354750E0,1.321152649E0,1.907034302E0,9.075477448E0,9.367310983E0
5.896275875E0,9.939331055E-1,1.703757019E0,9.398505707E0,9.603259890E0
5.906196875E0,6.557862854E-1,1.592987366E0,9.337133331E0,9.494720809E0
5.916117875E0,4.882846069E-1,1.571132813E0,9.118288422E0,9.265530957E0
5.926038875E0,3.643423462E-1,1.698966980E0,8.837771759E0,9.006966404E0
5.935958875E0,3.242257690E-1,1.951491852E0,8.334967346E0,8.566511744E0
5.945879875E0,2.713856506E-1,2.172282715E0,7.914192352E0,8.211388613E0
5.955800875E0,1.755848694E-1,2.328557739E0,7.736062775E0,8.080821644E0
5.965721875E0,-2.799179077E-2,2.422113190E0,7.703280945E0,8.075144157E0
5.975642875E0,-2.107617188E-1,2.472558289E0,7.865094452E0,8.247282930E0
5.985563875E0,-2.730322266E-1,2.517464905E0,8.276289368E0,8.655006750E0
5.995484875E0,-1.670526123E-1,2.548300781E0,8.795709229E0,9.158943404E0
6.005405875E0,-1.616638184E-2,2.632725220E0,9.361532593E0,9.724700300E0
6.015326875E0,3.308120728E-2,2.470013580E0,9.734706573E0,1.004323521E1
6.025246875E0,2.406994629E-1,2.641107788E0,1.065963318E1,1.098458766E1
6.035167875E0,2.195933533E-1,2.756817169E0,1.085662354E1,1.120332704E1
6.045088875E0,4.179309082E-1,2.309247894E0,1.095422058E1,1.120277825E1
6.055009875E0,4.375401306E-1,2.382146301E0,1.096664474E1,1.123091089E1
6.064930875E0,6.084846497E-1,2.398013306E0,1.055125854E1,1.083742489E1
6.074851875E0,7.406597900E-1,2.394720154E0,1.041399399E1,1.071142065E1
6.084772875E0,9.156459045E-1,2.351011047E0,1.037537430E1,1.067773629E1
6.094693875E0,1.084195404E0,2.262694702E0,1.035935760E1,1.065887222E1
6.104614875E0,1.065334625E0,2.248923340E0,1.050710037E1,1.079776608E1
6.114534875E0,1.006806335E0,2.219284973E0,1.090497299E1,1.117395726E1
6.124455875E0,9.931846619E-1,2.231858826E0,1.156719589E1,1.182233608E1
6.134376875E0,9.954299927E-1,2.225871277E0,1.223765167E1,1.247820108E1
6.144297875E0,1.177451477E0,2.028731232E0,1.262235168E1,1.283845413E1
6.154218875E0,1.319356384E0,1.762584686E0,1.242895386E1,1.262245222E1
6.164139875E0,1.468895416E0,1.646126862E0,1.178274765E1,1.198751557E1
6.174060875E0,1.620380402E0,1.804497528E0,1.095871124E1,1.122386725E1
6.183981875E0,1.806742859E0,1.970951385E0,1.010713211E1,1.045481174E1
6.193902875E0,2.032024384E0,2.150577850E0,9.619745636E0,1.006447288E1
6.203822875E0,2.305805054E0,2.172881470E0,9.829758911E0,1.032774472E1
6.213743875E0,2.721939697E0,1.914668427E0,1.059556641E1,1.110589656E1
6.223664875E0,3.058140564E0,1.578168182E0,1.168754562E1,1.218365960E1
6.233585875E0,3.116818542E0,1.208736420E0,1.275572433E1,1.318651223E1
6.243506875E0,3.000510406E0,7.948471069E-1,1.350476669E1,1.385689605E1
6.253427875E0,2.694396973E0,4.963677979E-1,1.380968262E1,1.407883127E1
6.263348875E0,2.405048676E0,4.372407532E-1,1.343171860E1,1.365234423E1
6.273269875E0,2.283651123E0,5.571414185E-1,1.249346970E1,1.271268084E1
6.283190875E0,2.242486725E0,8.574169922E-1,1.121916962E1,1.147317208E1
6.293110875E0,2.317480774E0,1.199605408E0,9.918674011E0,1.025621102E1
6.303031875E0,2.421963501E0,1.465602264E0,8.720565491E0,9.168541851E0
6.312952875E0,2.644850006E0,1.694326630E0,7.874973907E0,8.478277439E0
6.322873875E0,2.896925812E0,2.073039093E0,7.440726929E0,8.249490134E0
6.332794875E0,2.955903168E0,2.454895020E0,7.215445404E0,8.174749261E0
6.342715875E0,2.792592773E0,2.657274170E0,7.192992096E0,8.160809746E0
6.352636875E0,2.466570740E0,2.632575531E0,7.525600433E0,8.345602856E0
6.362557875E0,1.986369324E0,2.478096771E0,8.041876831E0,8.646294563E0
6.372478875E0,1.545685730E0,2.299817505E0,8.391849060E0,8.837501659E0
6.382399875E0,1.176703033E0,2.243384857E0,8.572074280E0,8.938560460E0
6.392319875E0,9.509724426E-1,2.223925323E0,8.619226227E0,8.952164720E0
6.402240875E0,8.957373047E-1,2.222877502E0,8.460107117E0,8.793005296E0
6.412161875E0,8.566685486E-1,2.314936066E0,8.102800140E0,8.470429747E0
6.422082875E0,8.292755127E-1,2.427951050E0,7.540569305E0,7.965100729E0
6.432003875E0,8.693920898E-1,2.480491791E0,6.922354889E0,7.404571516E0
6.441924875E0,8.243357849E-1,2.548749847E0,6.449488220E0,6.983663335E0
6.451845875E0,7.464976501E-1,2.603984985E0,6.196065216E0,6.762338405E0
6.461766875E0,6.007008362E-1,2.581681366E0,6.256389771E0,6.794728334E0
6.471687875E0,4.070036316E-1,2.407892761E0,6.650669861E0,7.084843619E0
6.481607875E0,9.864486694E-2,2.178120575E0,7.258256378E0,7.578669125E0
6.491528875E0,-1.345701599E-1,2.028282166E0,7.767347717E0,8.028930703E0
6.501449875E0,-2.088157654E-1,1.952090607E0,8.065976715E0,8.301460241E0
6.511370875E0,-1.609153748E-1,1.947450256E0,8.235124969E0,8.463789903E0
6.521291875E0,-1.106199646E-1,2.060315552E0,8.353977814E0,8.605003327E0
6.531212875E0,-1.191522217E-1,2.177222443E0,8.343948669E0,8.624150637E0
6.541133875E0,-2.124082947E-1,2.253414001E0,8.349337463E0,8.650689454E0
6.551054875E0,-3.167413330E-1,2.314936066E0,8.614136810E0,8.925391143E0
6.560975875E0,-4.367916870E-1,2.387235718E0,8.860075378E0,9.186436581E0
6.570895875E0,-3.866459656E-1,2.534978485E0,9.020691376E0,9.378085301E0
6.580816875E0,-1.881587219E-1,2.601440277E0,9.115743713E0,9.481544108E0
6.590737875E0,-1.077758789E-2,2.660866699E0,9.184750214E0,9.562424600E0
6.600658875E0,7.903564453E-2,2.838397522E0,9.228908386E0,9.655852998E0
6.610579875E0,4.640350342E-3,2.924767914E0,9.276659088E0,9.726802801E0
6.620500875E0,-2.498304749E-1,2.865940247E0,9.178912354E0,9.619171521E0
6.630421875E0,-6.686595154E-1,2.745740204E0,9.089099121E0,9.518293841E0
6.640342875E0,-1.138233032E0,2.584525452E0,9.339678040E0,9.757301478E0
6.650263875E0,-1.499132538E0,2.453248444E0,9.845176849E0,1.025638014E1
6.660183875E0,-1.640738068E0,2.464924164E0,1.045351181E1,1.086479552E1
6.670104875E0,-1.614841919E0,2.574346619E0,1.109762238E1,1.150618083E1
6.680025875E0,-1.421743469E0,2.644550629E0,1.167482208E1,1.205472825E1
6.689946875E0,-1.296304321E0,2.779719543E0,1.196102692E1,1.234801241E1
6.699867875E0,-1.210682373E0,2.960842896E0,1.157557846E1,1.200942793E1
6.709788875E0,-8.042774963E-1,3.210224304E0,1.078372513E1,1.128012101E1
6.719709875E0,5.673202515E-2,3.616928558E0,1.026086243E1,1.087982943E1
6.729630875E0,1.032702484E0,3.893104248E0,1.106648712E1,1.177666643E1
6.739551875E0,1.858235779E0,3.677402802E0,1.313084427E1,1.376210023E1
6.749471875E0,2.280507660E0,2.960693207E0,1.525956757E1,1.571053219E1
6.759392875E0,2.231110382E0,1.933678894E0,1.685973999E1,1.711630217E1
6.769313875E0,1.528321838E0,6.987469482E-1,1.738185425E1,1.746289987E1
6.779234875E0,4.561015320E-1,-2.853067017E-1,1.649899017E1,1.650775894E1
6.789155875E0,-4.135899353E-1,-5.245092773E-1,1.454345673E1,1.455878773E1
6.799076875E0,-7.699987793E-1,-8.532257080E-2,1.210592560E1,1.213068888E1
6.808997875E0,-7.659571838E-1,4.079017639E-1,1.007569748E1,1.011299926E1
6.818918875E0,-7.366181946E-1,8.300239563E-1,8.744216309E0,8.814355619E0
6.828839875E0,-7.716453552E-1,1.212179260E0,7.883356476E0,8.013246810E0
6.838759875E0,-8.807684326E-1,1.551523590E0,7.396419067E0,7.608547398E0
6.848680875E0,-9.708810425E-1,1.656156006E0,7.186256104E0,7.438261860E0
6.858601875E0,-1.002914429E0,1.619182892E0,7.281308441E0,7.526290136E0
6.868522875E0,-9.377998352E-1,1.566342773E0,7.512427826E0,7.731071727E0
6.878443875E0,-7.665559387E-1,1.554517365E0,7.724985809E0,7.917040988E0
6.888364875E0,-5.685177612E-1,1.568288727E0,7.839497681E0,8.015015026E0
6.898285625E0,-3.698808289E-1,1.552870789E0,7.859256592E0,8.019734016E0
6.908206625E0,-1.252894592E-1,1.530417480E0,7.772586823E0,7.922813959E0
6.918127625E0,1.170565796E-1,1.592687988E0,7.682773590E0,7.846997343E0
6.928047625E0,3.207829285E-1,1.723066864E0,7.684270477E0,7.881616197E0
6.937968625E0,5.340893555E-1,1.890867920E0,7.652835846E0,7.901046096E0
6.947889625E0,7.247927856E-1,1.995949402E0,7.770491180E0,8.055412577E0
6.957810625E0,8.298742676E-1,1.982627106E0,8.302185516E0,8.575883971E0
6.967731625E0,7.324269104E-1,1.866169281E0,9.124725037E0,9.342357516E0
6.977652625E0,4.703219604E-1,1.705553284E0,9.858050079E0,1.001555121E1
6.987573625E0,1.995350647E-1,1.600621490E0,1.025173141E1,1.037785143E1
6.997494625E0,5.029541016E-2,1.616638184E0,1.037971527E1,1.050497681E1
7.007415625E0,1.077758789E-2,1.688638458E0,1.024843826E1,1.038663097E1
7.017335625E0,-1.930984497E-2,1.795366516E0,9.871372375E0,1.003332977E1
7.027256625E0,-1.377136230E-2,1.966011658E0,9.412277069E0,9.615422566E0
7.037177625E0,6.721023560E-2,2.155218201E0,9.081614685E0,9.334088493E0
7.047098625E0,1.576222229E-1,2.279459839E0,8.884175262E0,9.173295592E0
7.057019625E0,1.850152588E-1,2.381547546E0,8.747808838E0,9.068084628E0
7.066940625E0,2.462379456E-1,2.494263153E0,8.618926849E0,8.975961332E0
7.076861625E0,3.341052246E-1,2.626288605E0,8.494535522E0,8.897536281E0
7.086782625E0,4.020639038E-1,2.809507599E0,8.484207001E0,8.946326440E0
7.096703625E0,4.510121155E-1,2.979703674E0,8.661288757E0,9.170603516E0
7.106623625E0,5.292993164E-1,3.102747803E0,8.838220825E0,9.381969359E0
7.116544625E0,5.779481506E-1,3.181933136E0,8.972491608E0,9.537522120E0
7.126465625E0,5.647755432E-1,3.181783447E0,9.222471771E0,9.772241447E0
7.136386625E0,6.248007202E-1,3.105442200E0,9.575288086E0,1.008564768E1
7.146307625E0,7.604187012E-1,3.001707916E0,9.950707397E0,1.042137538E1
7.156228625E0,9.096583557E-1,2.885399780E0,1.023840912E1,1.067604943E1
7.166149625E0,1.134191437E0,2.816243591E0,1.040261765E1,1.083660796E1
7.176070625E0,1.501826935E0,2.788102112E0,1.049018555E1,1.095778218E1
7.185991625E0,1.733694763E0,2.787353668E0,1.056892181E1,1.106693934E1
7.195911625E0,1.776505737E0,2.752476196E0,1.064825684E1,1.114080210E1
7.205832625E0,1.806443481E0,2.704725494E0,1.091874435E1,1.139288183E1
7.215753625E0,1.704056396E0,2.593057709E0,1.148995651E1,1.190154852E1
7.225674625E0,1.538800049E0,2.451152802E0,1.216759735E1,1.250705725E1
7.235595625E0,1.484013977E0,2.295775909E0,1.254122040E1,1.283569607E1
7.245516625E0,1.459614716E0,2.272723846E0,1.222971817E1,1.252444631E1
7.255437625E0,1.323847046E0,2.383044434E0,1.145433060E1,1.177425841E1
7.265358625E0,1.282532959E0,2.509830780E0,1.063568298E1,1.100281300E1
7.275279625E0,1.202000427E0,2.707868958E0,9.871671753E0,1.030666108E1
7.285199625E0,1.123413849E0,2.915038147E0,9.186247101E0,9.702919245E0
7.295120625E0,1.160237274E0,2.977308655E0,8.791218567E0,9.353931860E0
7.305041625E0,1.450932770E0,2.876418457E0,9.177116089E0,9.726173387E0
7.314962625E0,1.928739166E0,2.682272186E0,1.032747391E1,1.084303169E1
7.324883625E0,2.127825165E0,2.350861359E0,1.162692169E1,1.205153505E1
7.334804625E0,2.055525513E0,1.843715973E0,1.304866516E1,1.333762109E1
7.344725625E0,1.856888580E0,1.260379028E0,1.416639084E1,1.434305476E1
7.354646625E0,1.599873047E0,8.674461365E-1,1.453746918E1,1.465094081E1
7.364567625E0,1.397942963E0,6.105802917E-1,1.395368317E1,1.403682039E1
7.374487625E0,1.326092377E0,6.185137939E-1,1.236383926E1,1.245012456E1
7.384408625E0,1.491797791E0,7.241940308E-1,1.046024780E1,1.059087823E1
7.394329625E0,1.770218811E0,8.931925964E-1,8.900491333E0,9.118673896E0
7.404250625E0,2.155068512E0,1.219064941E0,7.785310364E0,8.169546933E0
7.414171625E0,2.338137817E0,1.580114136E0,7.255711670E0,7.785178288E0
7.424092625E0,2.213297424E0,1.731748810E0,7.299720154E0,7.821991674E0
7.434013625E0,1.925446014E0,1.639839935E0,7.794890442E0,8.194921255E0
7.443934625E0,1.703757019E0,1.520538025E0,8.455017700E0,8.757976260E0
7.453854625E0,1.504521332E0,1.520687714E0,8.870403900E0,9.124699497E0
7.463775625E0,1.377285919E0,1.570084991E0,8.860973511E0,9.103786846E0
7.473696625E0,1.240171051E0,1.667083282E0,8.475974121E0,8.726931202E0
7.483617625E0,9.693841553E-1,1.729353790E0,8.097860413E0,8.337008662E0
7.493538625E0,6.976991272E-1,1.748813324E0,7.931556244E0,8.151976237E0
7.503459625E0,3.522175598E-1,1.758094025E0,7.876470795E0,8.077978954E0
7.513380625E0,4.475692749E-2,1.701661377E0,7.772736511E0,7.956952149E0
7.523301625E0,-2.221380615E-1,1.660946045E0,7.539072418E0,7.723062865E0
7.533222625E0,-4.556524658E-1,1.641636200E0,7.144942017E0,7.345255952E0
7.543142625E0,-6.566844177E-1,1.678459625E0,6.596183167E0,6.837988996E0
7.553063625E0,-7.526348877E-1,1.808239746E0,6.053860931E0,6.362815606E0
7.562984625E0,-7.981402588E-1,2.040706329E0,5.667214966E0,6.076087200E0
7.572905625E0,-7.658074951E-1,2.213297424E0,5.494623871E0,5.972942164E0
7.582826625E0,-7.396119690E-1,2.353855133E0,5.625751190E0,6.143023385E0
7.592747625E0,-6.737489319E-1,2.461631012E0,6.027515717E0,6.545571830E0
7.602668625E0,-6.331832886E-1,2.520907745E0,6.412215729E0,6.918988907E0
7.612589625E0,-5.710624695E-1,2.542911987E0,6.652316437E0,7.144636288E0
7.622510625E0,-5.436694336E-1,2.616558838E0,6.892417145E0,7.392385995E0
7.632430625E0,-6.090834045E-1,2.660267944E0,7.135062561E0,7.639183587E0
7.642351625E0,-7.613168335E-1,2.668201447E0,7.397167511E0,7.900442359E0
7.652272625E0,-9.355545044E-1,2.719095612E0,7.704029388E0,8.223187459E0
7.662193625E0,-1.020128632E0,2.787203979E0,8.054450684E0,8.583900294E0
7.672114625E0,-9.771679688E-1,2.875071259E0,8.408314819E0,8.939835014E0
7.682035625E0,-7.834707642E-1,3.029100952E0,8.678952026E0,9.225697117E0
7.691956625E0,-5.478607178E-1,3.221750336E0,8.801247711E0,9.388385797E0
7.701877625E0,-4.613406372E-1,3.347189484E0,8.853938141E0,9.476746975E0
7.711798625E0,-5.098397827E-1,3.367098083E0,8.742420044E0,9.382280870E0
7.721718625E0,-5.864804077E-1,3.456162872E0,8.502319336E0,9.196654563E0
7.731639625E0,-6.997947693E-1,3.544928284E0,8.387208710E0,9.132442127E0
7.741560625E0,-7.545808411E-1,3.752546539E0,8.499774628E0,9.321864969E0
7.751481625E0,-5.501060486E-1,3.946094055E0,8.815468140E0,9.674024678E0
7.761402625E0,-3.062631226E-1,3.952380981E0,9.759255524E0,1.053366892E1
7.771323625E0,3.442840576E-3,3.869303741E0,1.117845428E1,1.182917425E1
7.781244625E0,5.783972168E-1,3.832779694E0,1.262339951E1,1.320511108E1
7.791165625E0,9.636959839E-1,3.766766968E0,1.385713394E1,1.439226891E1
7.801086625E0,7.556286621E-1,3.454216919E0,1.453926544E1,1.496304878E1
7.811006625E0,5.179229736E-2,3.101849670E0,1.446097824E1,1.478999816E1
7.820927625E0,-4.724176025E-1,2.871179352E0,1.399888916E1,1.429810292E1
7.830848625E0,-3.989204407E-1,2.687660980E0,1.353874603E1,1.380870389E1
7.840769625E0,9.535171509E-2,2.296674042E0,1.333067871E1,1.352740916E1
7.850690625E0,5.584886169E-1,1.824855194E0,1.298609528E1,1.312557338E1
7.860611625E0,9.636959839E-1,1.500479736E0,1.253687943E1,1.266307605E1
7.870532625E0,1.571432190E0,1.256487122E0,1.246772324E1,1.262902537E1
7.880453625E0,2.102976837E0,9.729766846E-1,1.262399826E1,1.283489491E1
7.890374625E0,2.252515869E0,4.622387695E-1,1.275108398E1,1.295676021E1
7.900295125E0,1.710193634E0,3.457809448E-2,1.289568329E1,1.300863580E1
7.910216125E0,9.666897583E-1,-2.601589966E-1,1.289253983E1,1.293134776E1
7.920137125E0,3.715274048E-1,-4.143383789E-1,1.266396515E1,1.267618721E1
7.930058125E0,4.879852295E-2,-3.712280273E-1,1.233644623E1,1.234212693E1
7.939979125E0,8.891510010E-2,-1.814227295E-1,1.191731781E1,1.191903032E1
7.949900125E0,2.766247559E-1,1.212478638E-1,1.139655075E1,1.140055224E1
7.959821125E0,4.769082642E-1,4.531077576E-1,1.078911392E1,1.080915017E1
7.969742125E0,7.717950439E-1,8.360115051E-1,1.006491989E1,1.012902736E1
7.979663125E0,1.066681824E0,1.296753387E0,9.361532593E0,9.510923822E0
7.989583125E0,1.259780273E0,1.656754761E0,9.009315033E0,9.246601540E0
7.999504125E0,1.372944946E0,1.842668152E0,8.992849274E0,9.281796259E0
8.009425125E0,1.327738953E0,1.913021851E0,9.295968933E0,9.583192669E0
8.019346125E0,1.171014862E0,1.855092316E0,9.659413147E0,9.905397804E0
8.029267125E0,9.289682007E-1,1.741628265E0,9.876012726E0,1.007133945E1
8.039188125E0,6.679110718E-1,1.675615540E0,9.843230896E0,1.000714680E1
8.049109125E0,4.541555786E-1,1.696571960E0,9.635762329E0,9.794515270E0
8.059030125E0,2.814147949E-1,1.781445465E0,9.150920563E0,9.326954990E0
8.068951125E0,1.778302002E-1,1.890418854E0,8.421188049E0,8.632596086E0
8.078871125E0,7.634124756E-2,2.109712830E0,7.545958099E0,7.835700342E0
8.088792125E0,1.272354126E-2,2.388133850E0,6.630012817E0,7.047014626E0
8.098713125E0,-9.116043091E-2,2.612666931E0,5.942642212E0,6.492251934E0
8.108634125E0,-2.381547546E-1,2.770139465E0,5.526058502E0,6.186090277E0
8.118555125E0,-3.573069763E-1,2.844983826E0,5.399571533E0,6.113671073E0
8.128476125E0,-4.504133606E-1,2.863395538E0,5.743855591E0,6.433800063E0
8.138397125E0,-6.001020813E-1,2.748434601E0,6.378086700E0,6.970940053E0
8.148318125E0,-7.382647705E-1,2.599045258E0,6.987469482E0,7.491648743E0
8.158238125E0,-7.006929016E-1,2.529589691E0,7.270081787E0,7.729416779E0
8.168159125E0,-5.966592407E-1,2.601140900E0,7.395071869E0,7.861871544E0
8.178080125E0,-4.577481079E-1,2.714604950E0,7.479496307E0,7.970036285E0
8.188001125E0,-2.981799316E-1,2.898871765E0,7.662864990E0,8.198284494E0
8.197922125E0,-1.082249451E-1,3.085683289E0,7.950267334E0,8.528769236E0
8.207843125E0,1.160087585E-1,3.136876831E0,8.259673920E0,8.836043659E0
8.217764125E0,4.388873291E-1,3.169059906E0,8.934171295E0,9.489730213E0
8.227685125E0,7.168592834E-1,3.188369751E0,9.834848328E0,1.036358194E1
8.237606125E0,8.434959412E-1,3.112028503E0,1.052641022E1,1.100915614E1
8.247526125E0,8.821156311E-1,2.953208771E0,1.104044128E1,1.146258757E1
8.257447125E0,9.211843872E-1,2.768642578E0,1.144849274E1,1.181448045E1
8.267368125E0,9.427395630E-1,2.634820862E0,1.161599442E1,1.194832060E1
8.277289125E0,9.952803040E-1,2.719095612E0,1.172691376E1,1.207909641E1
8.287210125E0,1.348246307E0,3.121758270E0,1.188827820E1,1.236504352E1
8.297131125E0,1.635948029E0,1.679208069E0,1.079345490E1,1.104512265E1
8.307052125E0,1.599274292E0,2.403102722E0,1.157423126E1,1.192876399E1
8.316973125E0,1.945354614E0,2.313439178E0,1.207404190E1,1.244664185E1
8.326894125E0,1.932481384E0,2.302362213E0,1.233464996E1,1.269562703E1
8.336814125E0,1.788630524E0,2.373913422E0,1.272473877E1,1.306727366E1
8.346735125E0,1.687590637E0,2.255359955E0,1.277099258E1,1.307795329E1
8.356656125E0,1.693278809E0,2.159110107E0,1.219499039E1,1.249986960E1
8.366577125E0,1.767823792E0,2.055675201E0,1.142214752E1,1.173952535E1
8.376498125E0,1.745220795E0,2.020049286E0,1.062999481E1,1.096007228E1
8.386419125E0,1.474134521E0,1.991159363E0,9.825867004E0,1.013338298E1
8.396340125E0,1.272803192E0,1.898352356E0,9.283993835E0,9.561187749E0
8.406261125E0,1.324894867E0,1.825903015E0,9.842632141E0,1.009785500E1
8.416182125E0,2.701582031E0,1.694326630E0,1.145552811E1,1.189110644E1
8.426102125E0,1.361718292E0,1.432371368E0,1.433988007E1,1.447543176E1
8.436023125E0,9.936337280E-1,4.490661621E-2,1.581760712E1,1.584884915E1
8.445944125E0,1.667682037E0,-1.691482544E-2,1.616473526E1,1.625054201E1
8.455865125E0,1.238823853E0,-2.535726929E-1,1.531465302E1,1.536676871E1
8.465786125E0,1.992805939E0,-3.094065857E-1,1.295765442E1,1.311364999E1
8.475707125E0,2.550695801E-1,2.890489197E-1,1.143651764E1,1.144301295E1
8.485628125E0,2.002685394E0,2.743794250E-1,8.888965302E0,9.115905714E0
8.495549125E0,2.003284149E0,9.851014709E-1,7.225923615E0,7.562905815E0
8.505470125E0,2.596201172E0,1.496887207E0,5.963898010E0,6.674504574E0
8.515390125E0,3.332819366E0,1.862127686E0,5.129832458E0,6.394559054E0
8.525311125E0,3.342848511E0,2.013163605E0,5.257217560E0,6.547197900E0
8.535232125E0,3.039279785E0,1.901346130E0,6.085445251E0,7.062930173E0
8.545153125E0,2.364033966E0,1.606309662E0,7.120542755E0,7.672745040E0
8.555074125E0,1.731898499E0,1.285975800E0,8.108937378E0,8.390951768E0
8.564995125E0,1.279239807E0,1.034798126E0,8.900042267E0,9.050857086E0
8.574916125E0,1.028211823E0,9.479786682E-1,9.301806793E0,9.406353849E0
8.584837125E0,8.442443848E-1,8.270301819E-1,8.960965576E0,9.038563578E0
8.594758125E0,7.381150818E-1,1.284329224E0,9.028475189E0,9.149190110E0
8.604678125E0,7.602690125E-1,1.584006042E0,8.351732483E0,8.534548587E0
8.614599125E0,7.945477295E-1,1.443298645E0,7.505093079E0,7.683803693E0
8.624520125E0,6.520440674E-1,1.663640442E0,7.301965485E0,7.517417171E0
8.634441125E0,6.018983459E-1,1.832189941E0,6.944808197E0,7.207604491E0
8.644362125E0,3.511697388E-1,1.829196167E0,6.786587219E0,7.037545374E0
8.654283125E0,-8.607101440E-2,1.817370758E0,6.888225861E0,7.124457888E0
8.664204125E0,-4.168830872E-1,1.782642975E0,7.104226685E0,7.336323621E0
8.674125125E0,-6.173162842E-1,1.787882080E0,7.522906036E0,7.757043055E0
8.684045125E0,-8.207432556E-1,1.843266907E0,7.869884491E0,8.124428243E0
8.693966125E0,-6.752458191E-1,1.929786987E0,7.998167725E0,8.255345037E0
8.703887125E0,-4.538562012E-1,2.029629364E0,8.219108276E0,8.478155558E0
8.713808125E0,-1.035845947E-1,2.111808472E0,8.493038635E0,8.752266566E0
8.723729125E0,8.442443848E-2,2.176773376E0,8.729995880E0,8.997682918E0
8.733650125E0,2.653981018E-1,2.225122833E0,8.975186005E0,9.250706546E0
8.743571125E0,3.719764709E-1,2.268831940E0,9.226513367E0,9.508654677E0
8.753492125E0,2.405497742E-1,2.356699219E0,9.353449402E0,9.648777701E0
8.763413125E0,-4.685256958E-2,2.318079529E0,9.405690765E0,9.687244533E0
8.773333125E0,3.233276367E-2,2.327360229E0,9.391620026E0,9.675752051E0
8.783254125E0,-1.272354126E-1,2.352507935E0,9.572144623E0,9.857810868E0
8.793175125E0,-4.008663940E-1,2.250869293E0,9.834848328E0,1.009709602E1
8.803096125E0,-2.770738220E-1,2.281256104E0,9.911039886E0,1.017396732E1
8.813017125E0,-1.712438965E-1,2.431543579E0,9.904752960E0,1.020028724E1
8.822938125E0,-7.963439941E-2,2.568658447E0,9.934241638E0,1.026126234E1
8.832859125E0,1.826202393E-1,2.655777283E0,1.021535706E1,1.055651566E1
8.842780125E0,3.523672485E-1,2.785707092E0,1.067430267E1,1.103743921E1
8.852701125E0,1.146615601E-1,2.610571289E0,1.117022141E1,1.147179480E1
8.862621125E0,3.367996216E-2,2.402354279E0,1.169652695E1,1.194073629E1
8.872542125E0,-4.260140991E-1,2.278412018E0,1.231683701E1,1.253304126E1
8.882463125E0,-8.208929443E-1,2.209854584E0,1.279329620E1,1.300867980E1
8.892384125E0,-9.861492920E-1,2.386337585E0,1.294268555E1,1.319773491E1
8.902304417E0,-9.737251282E-1,2.881807251E0,1.268028122E1,1.304003395E1
8.912225417E0,-5.995033264E-1,3.516038361E0,1.210502747E1,1.261957289E1
8.922146417E0,1.294807434E-1,4.043242035E0,1.141556122E1,1.211113576E1
8.932067417E0,9.068142700E-1,4.349205780E0,1.107786346E1,1.193553359E1
8.941988417E0,1.540296936E0,4.390968933E0,1.150103348E1,1.240672777E1
8.951908417E0,2.083666992E0,3.921694794E0,1.265992355E1,1.341622237E1
8.961829417E0,2.575693817E0,2.922522583E0,1.412881897E1,1.465601796E1
8.971750417E0,2.328108673E0,1.737736359E0,1.505763748E1,1.533532733E1
8.981671417E0,1.346899109E0,7.949967957E-1,1.486663467E1,1.494867832E1
8.991592417E0,1.546284485E-1,3.803590393E-1,1.353590195E1,1.354212777E1
9.001513417E0,3.981719971E-1,-5.670208740E-1,1.172047714E1,1.174093855E1
9.011434417E0,1.553768921E-1,-1.076261902E-1,1.029588959E1,1.029762438E1
9.021355417E0,-1.411414948E0,1.757644958E0,9.411678314E0,9.677866327E0
9.031276417E0,-1.626966705E0,2.179318085E0,7.943681030E0,8.396339457E0
9.041196417E0,-1.321452026E0,2.022593994E0,6.916666718E0,7.326486225E0
9.051117417E0,-1.436862030E0,2.344275055E0,6.658004608E0,7.203417480E0
9.061038417E0,-1.736688538E0,2.589914246E0,6.583010559E0,7.284213815E0
9.070959417E0,-1.966460724E0,2.251767426E0,6.476731567E0,7.133405646E0
9.080880417E0,-1.328188019E0,1.723964996E0,6.486910400E0,6.842232477E0
9.090801417E0,-1.269210663E0,1.480421448E0,6.910828857E0,7.180675377E0
9.100722417E0,-1.275946655E0,1.293759613E0,7.297474823E0,7.520305353E0
9.110643417E0,-1.163231049E0,9.551637268E-1,7.668553162E0,7.814867357E0
9.120564417E0,-8.439450073E-1,1.030307465E0,8.051456909E0,8.160866070E0
9.130484417E0,-3.412902832E-2,1.669627991E0,8.388406219E0,8.553021765E0
9.140405417E0,4.577481079E-1,1.545536041E0,8.434360657E0,8.587004989E0
9.150326417E0,4.632865906E-1,1.346000977E0,8.126001892E0,8.249743017E0
9.160247417E0,1.939965820E-1,2.086211700E0,8.055648193E0,8.323663962E0
9.170168417E0,2.799179077E-1,2.054178314E0,8.054001617E0,8.316546437E0
9.180089417E0,2.255809021E-1,1.759291534E0,8.288414154E0,8.476072359E0
9.190010417E0,1.924996948E-1,1.727108459E0,8.713530121E0,8.885131790E0
9.199931417E0,-2.474354553E-1,1.193019104E0,8.867709503E0,8.951021770E0
9.209852417E0,-3.505709839E-1,1.154698792E0,8.695567474E0,8.778902153E0
9.219772417E0,-3.592529297E-3,1.539698181E0,8.364905090E0,8.505428888E0
9.229693417E0,2.499801636E-1,1.814975739E0,8.105644226E0,8.310120055E0
9.239614417E0,3.522175598E-1,2.102527771E0,7.999664612E0,8.278847392E0
9.249535417E0,2.633024597E-1,2.026934967E0,7.982151031E0,8.239692266E0
9.259456417E0,5.164260864E-2,2.032174072E0,8.013286285E0,8.267112888E0
9.269377417E0,-9.759704590E-2,2.238295441E0,8.057145081E0,8.362839142E0
9.279298417E0,-3.936813354E-2,2.401306458E0,8.023465118E0,8.375190449E0
9.289219417E0,3.487747192E-2,2.582429810E0,8.004005585E0,8.410366553E0
9.299139417E0,3.397933960E-2,2.753374329E0,8.361312561E0,8.803054727E0
9.309060417E0,1.681004333E-1,2.793490906E0,9.050329742E0,9.473136632E0
9.318981417E0,1.933978271E-1,2.551444244E0,9.806257782E0,1.013459235E1
9.328902417E0,1.344204712E-1,2.211201782E0,1.050695068E1,1.073794649E1
9.338823417E0,1.149609375E-1,2.023192749E0,1.103041214E1,1.121501301E1
9.348744417E0,1.830693054E-1,1.994751892E0,1.134056717E1,1.151611971E1
9.358665417E0,4.299060059E-1,2.079176331E0,1.146885040E1,1.166371823E1
9.368586417E0,8.075706482E-1,2.155966644E0,1.142259659E1,1.165229914E1
9.378507417E0,1.150657196E0,2.203417969E0,1.141331589E1,1.168087506E1
9.388427417E0,1.202599182E0,2.260599060E0,1.158081757E1,1.186051805E1
9.398348417E0,1.045276337E0,2.169588318E0,1.173574539E1,1.198029365E1
9.408269417E0,9.636959839E-1,1.954785004E0,1.179951279E1,1.199909981E1
9.418190417E0,8.834628296E-1,1.755549316E0,1.165805695E1,1.182255267E1
9.428111417E0,7.381150818E-1,1.684447174E0,1.127605133E1,1.142503872E1
9.438032417E0,6.496490479E-1,1.736089783E0,1.076636124E1,1.092476937E1
9.447953417E0,6.563850403E-1,1.973795471E0,1.017104919E1,1.038156788E1
9.457874417E0,6.334826660E-1,2.459834747E0,9.614656219E0,9.944531235E0
9.467795417E0,6.548881531E-1,3.086581421E0,9.528285828E0,1.003713576E1
9.477715417E0,9.735754395E-1,3.408112793E0,1.074675201E1,1.131617253E1
9.487636417E0,1.365909576E0,3.009641418E0,1.328202988E1,1.368707303E1
9.497557417E0,1.606309662E0,1.969604187E0,1.617925507E1,1.637766363E1
9.507478417E0,1.914818115E0,6.917115784E-1,1.807506271E1,1.818936188E1
9.517399417E0,2.140698395E0,-2.941383362E-1,1.833282669E1,1.845973026E1
9.527320417E0,2.050735474E0,-5.786965942E-1,1.707529175E1,1.720773065E1
9.537241417E0,1.787732391E0,-2.188449097E-1,1.492396545E1,1.503225283E1
9.547162417E0,1.623673553E0,4.170327759E-1,1.236413864E1,1.247726559E1
9.557083417E0,1.227148132E0,9.608518982E-1,9.996961212E0,1.011772516E1
9.567003417E0,1.353784790E0,1.327888641E0,9.140741730E0,9.335372562E0
9.576924417E0,1.845811615E0,1.577868805E0,8.090375977E0,8.446944650E0
9.586845417E0,2.014660492E0,1.732197876E0,7.164700928E0,7.641485835E0
9.596766417E0,1.901645508E0,1.879341888E0,6.752458191E0,7.262497724E0
9.606687417E0,1.601968689E0,1.723366241E0,7.007228394E0,7.391721359E0
9.616608417E0,8.897497559E-1,1.211131439E0,7.733518066E0,7.878184796E0
9.626529417E0,-1.679507446E-1,7.711962891E-1,8.355774078E0,8.392967986E0
9.636450417E0,-1.223405914E0,4.793032837E-1,8.702153778E0,8.800791672E0
9.646370417E0,-1.805545349E0,1.496887207E-1,8.556955719E0,8.746650324E0
9.656291417E0,-2.048639832E0,2.619552612E-2,8.002658386E0,8.260759808E0
9.666212417E0,-2.229463806E0,2.195933533E-1,7.150330811E0,7.493060843E0
9.676133417E0,-2.187401276E0,6.001020813E-1,6.084996185E0,6.493999186E0
9.686054417E0,-1.892963562E0,1.144370270E0,5.219795380E0,5.669140867E0
9.695975417E0,-1.507066040E0,1.556762695E0,4.553979950E0,5.043162849E0
9.705896417E0,-1.273551636E0,1.735640717E0,4.232598267E0,4.748607222E0
9.715817417E0,-1.513951721E0,1.839524689E0,4.541705475E0,5.128644023E0
9.725738417E0,-1.529369659E0,1.862876129E0,5.084925842E0,5.627232877E0
9.735658417E0,-1.578617249E0,1.851499786E0,5.440436554E0,5.959734371E0
9.745579417E0,-1.629661102E0,1.925446014E0,5.891149292E0,6.408492619E0
9.755500417E0,-1.523681488E0,1.982028351E0,6.394851837E0,6.866161350E0
9.765421417E0,-1.258732452E0,1.971550140E0,6.954537964E0,7.337371166E0
9.775342417E0,-8.922944641E-1,2.060764618E0,7.595954132E0,7.920950663E0
9.785263417E0,-4.388873291E-1,2.108515320E0,7.892038422E0,8.180631356E0
9.795184417E0,-1.059796143E-1,2.630779266E0,8.575367432E0,8.970460290E0
9.805105417E0,1.091230774E-1,2.691103821E0,8.516689453E0,8.932409913E0
9.815025417E0,2.829116821E-1,2.665806427E0,8.628955994E0,9.035786876E0
9.824946417E0,3.896397400E-1,2.912343750E0,9.140142975E0,9.600821780E0
9.834867417E0,4.505630493E-1,2.971620483E0,9.516011353E0,9.979379110E0
9.844788417E0,4.382885742E-1,2.919678497E0,9.991871796E0,1.041893091E1
9.854709417E0,3.613485718E-1,2.912044373E0,1.062176193E1,1.101963710E1
9.864630417E0,3.591032410E-1,2.980452118E0,1.116138977E1,1.155805657E1
9.874551417E0,4.391867065E-1,3.034190369E0,1.157587784E1,1.197497991E1
9.884472417E0,4.334985352E-1,3.115022278E0,1.187016586E1,1.227974439E1
9.894393417E0,4.236190796E-1,3.266507263E0,1.174278076E1,1.219600028E1
9.904314542E0,3.775149536E-1,3.509901123E0,1.149444717E1,1.202431866E1
9.914234542E0,2.694396973E-1,3.777694244E0,1.166149979E1,1.226108269E1
9.924155542E0,2.165995789E-1,3.920646973E0,1.235186417E1,1.296097745E1
9.934076542E0,1.681004333E-1,3.930227051E0,1.349877914E1,1.406029803E1
9.943997542E0,-1.534309387E-1,3.883673859E0,1.472817261E1,1.523238432E1
9.953918542E0,-6.363267517E-1,3.852239227E0,1.554726929E1,1.603004183E1
9.963839542E0,-1.024319916E0,4.059857483E0,1.562525711E1,1.617653652E1
9.973760542E0,-8.315208435E-1,4.584516449E0,1.505524246E1,1.575974440E1
9.983681542E0,3.418890381E-1,5.185816040E0,1.402718033E1,1.495898941E1
9.993601542E0,1.871258698E0,5.446274414E0,1.299881882E1,1.421734169E1
1.000352254E1,2.951562195E0,5.199886780E0,1.234482880E1,1.371660818E1
1.001344354E1,3.599864044E0,4.485871582E0,1.228300735E1,1.356297662E1
1.002336454E1,3.997437286E0,3.510200500E0,1.290002426E1,1.395391122E1
1.003328554E1,3.807931366E0,2.522853699E0,1.361853012E1,1.436417400E1
1.004320654E1,2.970123596E0,1.586550751E0,1.371328308E1,1.412065545E1
1.005312754E1,2.119442596E0,4.978646851E-1,1.298025742E1,1.316157243E1
1.006304854E1,5.658233643E-1,3.317102051E-1,1.124401794E1,1.126313133E1
1.007296954E1,-5.921685791E-1,4.074526978E-1,9.330247650E0,9.357895198E0
1.008288954E1,-1.105451202E0,5.915698242E-1,7.735314331E0,7.836266012E0
1.009281054E1,-1.343755646E0,8.057743835E-1,6.597530365E0,6.781029310E0
1.010273154E1,-1.395997009E0,9.578581238E-1,5.981860657E0,6.216828512E0
1.011265254E1,-1.378633118E0,1.081650696E0,5.771098938E0,6.031266903E0
1.012257354E1,-1.211879883E0,1.101259918E0,5.839656372E0,6.064900065E0
1.013249454E1,-1.002016296E0,1.084644470E0,6.097869415E0,6.274113618E0
1.014241554E1,-8.114625549E-1,9.743238831E-1,6.476282501E0,6.599243407E0
1.015233654E1,-6.623725891E-1,7.610174561E-1,6.954537964E0,7.027338280E0
1.016225754E1,-5.948629761E-1,5.421725464E-1,7.466922455E0,7.510176028E0
1.017217754E1,-6.738986206E-1,3.546125793E-1,7.900271301E0,7.936887051E0
1.018209854E1,-7.408094788E-1,1.336720276E-1,8.212222595E0,8.246651857E0
1.019201954E1,-7.680528259E-1,7.948471069E-2,8.188871155E0,8.225195059E0
1.020194054E1,-7.453001404E-1,2.112107849E-1,8.092022552E0,8.129016625E0
1.021186154E1,-7.301815796E-1,3.484753418E-1,8.051606598E0,8.092154782E0
1.022178254E1,-7.192543030E-1,4.647834778E-1,7.905211029E0,7.951459731E0
1.023170354E1,-6.209088135E-1,6.547384644E-1,7.765401764E0,7.817651487E0
1.024162454E1,-5.029541016E-1,8.747808838E-1,7.702682190E0,7.768495179E0
1.025154454E1,-6.276448059E-1,9.825567627E-1,7.631879425E0,7.720423522E0
1.026146554E1,-9.104067993E-1,1.026714935E0,7.563621368E0,7.687089976E0
1.027138654E1,-1.179547119E0,1.149609375E0,7.460635529E0,7.640288974E0
1.028130754E1,-1.306782532E0,1.333277435E0,7.209906921E0,7.447688710E0
1.029122854E1,-1.318458252E0,1.535057831E0,7.028633881E0,7.314125302E0
1.030114954E1,-1.230291595E0,1.806742859E0,6.918612671E0,7.255696966E0
1.031107054E1,-1.116079102E0,2.177372131E0,6.793622589E0,7.220795652E0
1.032099154E1,-1.058748322E0,2.509830780E0,6.645281067E0,7.181918895E0
1.033091254E1,-1.001567230E0,2.762355652E0,6.771318970E0,7.381362087E0
1.034083254E1,-8.773255920E-1,2.940485229E0,7.355703735E0,7.970102322E0
1.035075354E1,-7.041357422E-1,2.963986359E0,8.179740143E0,8.728640850E0
1.036067454E1,-6.180647278E-1,3.019670563E0,8.953930206E0,9.469597692E0
1.037059554E1,-6.001020813E-1,3.020419006E0,9.564211121E0,1.004774541E1
1.038051654E1,-5.664221191E-1,2.953358459E0,1.004052063E1,1.048118384E1
1.039043754E1,-6.020480347E-1,2.817141724E0,1.036295013E1,1.075590465E1
1.040035854E1,-7.198530579E-1,2.684367828E0,1.051024384E1,1.087148769E1
1.041027954E1,-7.360194397E-1,2.601440277E0,1.050006500E1,1.084253574E1
1.042020054E1,-5.385800171E-1,2.587219849E0,1.048584457E1,1.081372791E1
1.043012054E1,-3.059637451E-1,2.606230316E0,1.076231964E1,1.107761591E1
1.044004154E1,-4.535568237E-2,2.587519226E0,1.112396759E1,1.142103182E1
1.044996254E1,2.233355713E-1,2.547402649E0,1.150088379E1,1.178174295E1
1.045988354E1,4.607418823E-1,2.450254669E0,1.190983337E1,1.216799745E1
1.046980454E1,6.189628601E-1,2.329006805E0,1.230126938E1,1.253509537E1
1.047972554E1,7.119195557E-1,2.261347504E0,1.263612305E1,1.285659860E1
1.048964654E1,8.797206116E-1,2.311642914E0,1.289852737E1,1.313352998E1
1.049956754E1,1.099463654E0,2.410287781E0,1.271800278E1,1.299099312E1
1.050948854E1,1.345851288E0,2.558928680E0,1.199665283E1,1.234014225E1
1.051940854E1,1.384021912E0,2.742746429E0,1.115345627E1,1.156882714E1
1.052932954E1,1.228046265E0,2.975362701E0,1.043794418E1,1.092298309E1
1.053925054E1,8.768765259E-1,3.191812592E0,1.018541931E1,1.070977808E1
1.054917154E1,3.692820740E-1,3.224295044E0,1.082159637E1,1.129776066E1
1.055909254E1,-4.206253052E-2,2.750380554E0,1.232222580E1,1.262551429E1
1.056901354E1,-2.309696960E-1,2.019600220E0,1.407792480E1,1.422392698E1
1.057893454E1,-3.815565491E-1,1.344653778E0,1.546823364E1,1.553125659E1
1.058885554E1,-4.872367859E-1,7.598199463E-1,1.592747864E1,1.595303425E1
1.059877554E1,-2.865042114E-1,4.294569397E-1,1.526091476E1,1.526964431E1
1.060869654E1,1.263372803E-1,4.429289246E-1,1.357107880E1,1.357889270E1
1.061861754E1,5.414241028E-1,8.216413879E-1,1.153486313E1,1.157675697E1
1.062853854E1,9.357041931E-1,1.439855804E0,9.466913452E0,9.621391655E0
1.063845954E1,1.454525299E0,2.086511078E0,7.684569855E0,8.094552871E0
1.064838054E1,1.888173523E0,2.790646820E0,6.669830017E0,7.472585990E0
1.065830154E1,1.981279907E0,3.229983215E0,6.546636200E0,7.564172604E0
1.066822254E1,1.858235779E0,3.220552826E0,7.213649139E0,8.115524297E0
1.067814354E1,1.672472076E0,2.866239624E0,8.692274323E0,9.304199338E0
1.068806354E1,1.399290161E0,2.422711945E0,1.019859192E1,1.057538762E1
1.069798454E1,1.070274353E0,2.071392517E0,1.139056320E1,1.162674005E1
1.070790554E1,7.923023987E-1,1.718127136E0,1.205787552E1,1.220541134E1
1.071782654E1,5.508544922E-1,1.549427948E0,1.190219925E1,1.201526174E1
1.072774754E1,3.049159241E-1,1.593137054E0,1.090093140E1,1.102095117E1
1.073766854E1,9.759704590E-2,1.685644684E0,9.577683105E0,9.725375923E0
1.074758954E1,-1.568737793E-1,1.890418854E0,8.408464508E0,8.619777735E0
1.075751054E1,-6.622229004E-1,2.042951660E0,7.552245026E0,7.851661963E0
1.076743154E1,-1.184636536E0,2.148781586E0,7.137756958E0,7.547728163E0
1.077735154E1,-1.026565247E0,2.589315491E0,7.060218201E0,7.589800522E0
1.078727254E1,-3.396437073E-1,2.892435150E0,7.083869019E0,7.659160477E0
1.079719354E1,1.377136230E-2,2.793341217E0,7.079677734E0,7.610833176E0
1.080711454E1,1.160087585E-1,2.690205688E0,7.212301941E0,7.698568956E0
1.081703554E1,2.472857666E-1,2.392474823E0,7.224726105E0,7.614575058E0
1.082695654E1,2.011816406E-1,1.963766327E0,7.037315826E0,7.308944266E0
1.083687754E1,-8.232879639E-2,1.620679779E0,6.599176941E0,6.795772015E0
1.084679854E1,-1.913021851E-1,1.370100861E0,6.137237549E0,6.291220678E0
1.085671854E1,-4.745132446E-2,1.236129456E0,5.635630646E0,5.769800727E0
1.086663954E1,5.942642212E-2,1.231638794E0,4.988226929E0,5.138372652E0
1.087656054E1,1.511856079E-1,1.426832886E0,4.499343567E0,4.722584219E0
1.088648154E1,2.538720703E-1,1.860630798E0,4.483626251E0,4.860998082E0
1.089640254E1,4.869374084E-1,2.346520386E0,4.829407196E0,5.391330061E0
1.090632425E1,8.713380432E-1,2.794239349E0,5.369035034E0,6.115025816E0
1.091624525E1,1.279239807E0,3.197800140E0,6.005661163E0,6.923174578E0
1.092616625E1,1.553469543E0,3.365301819E0,6.654711456E0,7.617329487E0
1.093608725E1,1.552421722E0,3.404520264E0,7.188351746E0,8.103898583E0
1.094600725E1,1.428629150E0,3.412902832E0,7.673193512E0,8.518614069E0
1.095592825E1,1.421893158E0,3.556903381E0,8.308622131E0,9.149128021E0
1.096584925E1,1.576970673E0,3.785927124E0,9.178612976E0,1.005320928E1
1.097577025E1,1.844614105E0,4.068689117E0,1.026999344E1,1.119953560E1
1.098569125E1,2.159559174E0,4.137246552E0,1.146465912E1,1.237816277E1
1.099561225E1,2.651286621E0,3.952979736E0,1.257684631E1,1.344739502E1
1.100553325E1,3.253484344E0,3.664379883E0,1.350267105E1,1.436436444E1
1.101545425E1,3.625460815E0,3.419788513E0,1.442759766E1,1.526415716E1
1.102537425E1,3.469335480E0,3.276237030E0,1.532438278E1,1.605013163E1
1.103529525E1,2.594704285E0,3.146157532E0,1.647144745E1,1.696877658E1
1.104521625E1,1.304088135E0,3.193010101E0,1.778346909E1,1.811484839E1
1.105513725E1,8.949888611E-1,3.696263580E0,1.839375000E1,1.878279555E1
1.106505825E1,2.001936951E0,4.489015045E0,1.809197754E1,1.874776410E1
1.107497925E1,3.592229919E0,4.976551208E0,1.731374588E1,1.836943042E1
1.108490025E1,4.407285004E0,5.311704254E0,1.646201706E1,1.785038848E1
1.109482125E1,4.481829987E0,5.421725464E0,1.578228058E1,1.727895504E1
1.110474225E1,4.292473755E0,4.814438324E0,1.562241302E1,1.690159567E1
1.111466225E1,3.758833466E0,3.636837158E0,1.556777664E1,1.642288291E1
1.112458325E1,2.923720093E0,2.364782410E0,1.467548218E1,1.514959116E1
1.113450425E1,2.023043060E0,1.424737244E0,1.326780945E1,1.349656797E1
1.114442525E1,1.145268402E0,1.090482330E0,1.148920807E1,1.159752963E1
1.115434625E1,4.923262024E-1,1.131347351E0,9.433832245E0,9.514174832E0
1.116426725E1,1.097218323E-1,1.301393738E0,7.492668915E0,7.605639487E0
1.117418825E1,-5.194198608E-2,1.487905884E0,5.951473846E0,6.134867793E0
1.118410925E1,-3.263214111E-2,1.684447174E0,4.809199219E0,5.095765327E0
1.119402925E1,-2.095642090E-2,1.892664185E0,4.038901062E0,4.460419114E0
1.120395025E1,-2.366578674E-1,2.121538239E0,3.610342255E0,4.194222531E0
1.121387125E1,2.993774414E-3,2.036215668E0,3.272345123E0,3.854143979E0
1.122379225E1,3.026705933E-1,1.721120911E0,2.668800201E0,3.190040939E0
1.123371325E1,-1.591191101E-1,1.881736908E0,2.994223480E0,3.540003804E0
1.124363425E1,-1.646575928E-1,1.638642426E0,3.330873413E0,3.715774322E0
1.125355525E1,-2.284249878E-1,1.251996460E0,3.960015106E0,4.159494290E0
1.126347625E1,-3.125500488E-1,9.999206543E-1,5.028193817E0,5.136171912E0
1.127339725E1,-3.308120728E-1,8.029302979E-1,6.074517975E0,6.136277562E0
1.128331725E1,-2.481838989E-1,7.310797119E-1,6.999444580E0,7.041895854E0
1.129323825E1,-3.195854187E-1,7.674540710E-1,7.638765106E0,7.683869659E0
1.130315925E1,-5.602848816E-1,8.060737610E-1,7.818241882E0,7.879630714E0
1.131308025E1,-6.686595154E-1,1.002165985E0,7.630981293E0,7.725497893E0
1.132300125E1,-5.002597046E-1,1.383722534E0,7.262747040E0,7.410293003E0
1.133292225E1,-1.914518738E-1,1.709744568E0,7.032226410E0,7.239619368E0
1.134284325E1,1.110690308E-1,2.069147186E0,7.035220184E0,7.334032278E0
1.135276425E1,3.852987671E-1,2.456092529E0,7.118447113E0,7.540101787E0
1.136268425E1,5.484594727E-1,2.669698334E0,7.231611786E0,7.728150232E0
1.137260525E1,5.414241028E-1,2.775977325E0,7.328909454E0,7.855705185E0
1.138252625E1,6.236032104E-1,3.015030212E0,7.305558014E0,7.927828583E0
1.139244725E1,7.493417358E-1,3.335813141E0,7.323370972E0,8.082136149E0
1.140236825E1,9.208850098E-1,3.635789337E0,7.547754364E0,8.428261342E0
1.141228925E1,1.197958832E0,3.902983704E0,7.918533325E0,8.909071623E0
1.142221025E1,1.331331482E0,4.133803711E0,8.463849335E0,9.513018564E0
1.143213125E1,1.306333466E0,4.279151459E0,9.084159393E0,1.012618369E1
1.144205225E1,1.347198486E0,4.329446869E0,9.789642334E0,1.078870479E1
1.145197225E1,1.427880707E0,4.269272003E0,1.046309189E1,1.139042662E1
1.146189325E1,1.408271484E0,4.158502350E0,1.115630035E1,1.198913708E1
1.147181425E1,1.265767822E0,3.949985962E0,1.174248138E1,1.245353068E1
1.148173525E1,1.212628326E0,3.617677002E0,1.204545135E1,1.263530580E1
1.149165625E1,1.269360352E0,3.432212677E0,1.217867432E1,1.271658239E1
1.150157725E1,1.332079926E0,3.304228821E0,1.218301529E1,1.269323546E1
1.151149825E1,1.511107635E0,3.167113953E0,1.204185883E1,1.254274376E1
1.152141925E1,1.770368500E0,3.052003326E0,1.188423660E1,1.239693545E1
1.153133925E1,1.925895081E0,2.947969666E0,1.200368820E1,1.250952147E1
1.154126025E1,1.973645782E0,2.766097870E0,1.235755234E1,1.281622701E1
1.155118125E1,1.886526947E0,2.535876617E0,1.284329224E1,1.322648138E1
1.156110225E1,1.719773712E0,2.283202057E0,1.332109863E1,1.362432758E1
1.157102325E1,1.789229279E0,1.982477417E0,1.354982300E1,1.381047651E1
1.158094425E1,2.010918274E0,1.882485352E0,1.294343399E1,1.323329237E1
1.159086525E1,2.219434662E0,1.968556366E0,1.188902664E1,1.225357331E1
1.160078625E1,2.487527161E0,2.309247894E0,1.112875763E1,1.163484695E1
1.161070725E1,3.408412170E0,2.727777557E0,9.849966888E0,1.077403785E1
1.162062725E1,3.602857819E0,3.416645050E0,9.776918793E0,1.096549994E1
1.163054825E1,3.409310303E0,3.243006134E0,1.110286148E1,1.205877351E1
1.164046925E1,3.240311737E0,2.965333557E0,1.323412949E1,1.394399536E1
1.165039025E1,2.600991211E0,1.863025818E0,1.602223160E1,1.633854112E1
1.166031125E1,2.101479950E0,7.758366394E-1,1.790965668E1,1.804920892E1
1.167023225E1,1.803898773E0,3.442840576E-1,1.829285980E1,1.838481172E1
1.168015325E1,1.509910126E0,-6.152206421E-2,1.727841934E1,1.734437628E1
1.169007425E1,1.296454010E0,-3.144960022E-1,1.504671021E1,1.510573364E1
1.169999425E1,1.511706390E0,-7.035369873E-2,1.220142700E1,1.229491874E1
1.170991525E1,1.641336823E0,6.924600220E-1,9.500443726E0,9.666018748E0
1.171983625E1,1.353036346E0,1.436712341E0,7.512278137E0,7.767185624E0
1.172975725E1,2.054477692E0,1.235381012E0,5.571863251E0,6.065699046E0
1.173967825E1,1.619781647E0,1.569785614E0,5.126539307E0,5.600832502E0
1.174959925E1,1.462159424E0,1.877395935E0,5.534740448E0,6.024606004E0
1.175952025E1,1.341360626E0,1.667382660E0,5.895639954E0,6.271999978E0
1.176944125E1,1.073567505E0,1.690734100E0,6.523883514E0,6.824381664E0
1.177936225E1,8.940907288E-1,1.665586395E0,7.082970886E0,7.330897138E0
1.178928225E1,6.059399414E-1,1.648671570E0,7.439080353E0,7.643637724E0
1.179920325E1,3.439846802E-1,1.630858612E0,7.693401489E0,7.871877270E0
1.180912425E1,1.261875916E-1,1.684147797E0,7.785310364E0,7.966387799E0
1.181904525E1,5.987548828E-4,1.734293518E0,7.757617950E0,7.949113827E0
1.182896625E1,-8.607101440E-2,1.736239471E0,7.428153076E0,7.628852721E0
1.183888725E1,-1.437011719E-1,1.837878113E0,6.965914307E0,7.205720513E0
1.184880825E1,-4.580474854E-2,1.926194458E0,6.516099701E0,6.794989218E0
1.185872925E1,-6.227050781E-2,1.936522980E0,6.142027588E0,6.440380560E0
1.186864925E1,-2.469863892E-2,1.968556366E0,5.782325592E0,6.108282364E0
1.187857025E1,4.116439819E-2,2.021246796E0,5.500012665E0,5.859801398E0
1.188849125E1,9.894424438E-2,2.046693878E0,5.559588776E0,5.925181276E0
1.189841225E1,1.115180969E-1,1.964963837E0,5.984704742E0,6.300016668E0
1.190833225E1,9.490264893E-2,1.905387726E0,6.430777130E0,6.707786773E0
1.191825325E1,2.218386841E-1,1.888173523E0,6.794670410E0,7.055633043E0
1.192817425E1,4.300556946E-1,1.918710022E0,7.038064270E0,7.307581318E0
1.193809525E1,6.574328613E-1,2.024989014E0,7.057673492E0,7.371808028E0
1.194801625E1,8.481362915E-1,2.187850342E0,7.004384308E0,7.386976636E0
1.195793625E1,9.752220154E-1,2.314636688E0,7.022796021E0,7.458435823E0
1.196785725E1,1.088985443E0,2.466421051E0,7.047794037E0,7.545894439E0
1.197777825E1,1.155447235E0,2.717898102E0,7.258256378E0,7.836090483E0
1.198769925E1,1.202000427E0,2.973267059E0,7.801327057E0,8.434798509E0
1.199762025E1,1.203197937E0,3.166664886E0,8.653804321E0,9.293211555E0
1.200754125E1,1.106648712E0,3.248245239E0,9.744136963E0,1.033072958E1
1.201746225E1,9.689350891E-1,3.118914185E0,1.079360458E1,1.127689500E1
1.202738325E1,8.595126343E-1,3.004252625E0,1.168365372E1,1.209429866E1
1.203730325E1,8.205935669E-1,3.057092743E0,1.230546066E1,1.270604391E1
1.204722425E1,8.657995605E-1,3.235072632E0,1.239063354E1,1.283522900E1
1.205714525E1,9.592053223E-1,3.558849335E0,1.203033279E1,1.258230466E1
1.206706625E1,1.012195129E0,3.860771484E0,1.165371597E1,1.231824628E1
1.207698725E1,1.040486298E0,4.030368805E0,1.172287216E1,1.243994438E1
1.208690825E1,1.067130890E0,3.972738647E0,1.238584351E1,1.305107429E1
1.209682925E1,1.060245209E0,3.762126617E0,1.354967331E1,1.410217584E1
1.210675025E1,9.722282410E-1,3.748504944E0,1.460393097E1,1.510865040E1
1.211667025E1,1.064137115E0,4.237987061E0,1.503443573E1,1.565653793E1
1.212659125E1,1.904190216E0,4.737498322E0,1.500704269E1,1.585185040E1
1.213651225E1,3.092419281E0,4.649631042E0,1.497845215E1,1.598549826E1
1.214643325E1,3.901187439E0,4.312232666E0,1.476245132E1,1.586646095E1
1.215635425E1,4.130360870E0,4.145030365E0,1.417073181E1,1.533136647E1
1.216627525E1,4.235891418E0,3.880979462E0,1.397044830E1,1.510556862E1
1.217619625E1,4.106710052E0,3.070714417E0,1.428329773E1,1.517586731E1
1.218611725E1,3.525319061E0,1.956581268E0,1.429961380E1,1.485715449E1
1.219603725E1,2.585722961E0,1.200054474E0,1.309117676E1,1.339794771E1
1.220595825E1,1.710193634E0,1.089733887E0,1.134894974E1,1.152870081E1
1.221587925E1,1.026415558E0,1.374441833E0,9.811646576E0,9.960473271E0
1.222580025E1,5.667214966E-1,1.455872498E0,8.314310303E0,8.459816416E0
1.223572125E1,1.695973206E-1,1.476379852E0,7.123835907E0,7.277190306E0
1.224564225E1,-1.115180969E-1,1.463207245E0,6.404880981E0,6.570838007E0
1.225556325E1,-3.242257690E-1,1.343905334E0,5.926176453E0,6.085291385E0
1.226548425E1,-4.643344116E-1,1.359922028E0,5.780828705E0,5.956758756E0
1.227540525E1,-5.254074097E-1,1.396595764E0,5.809269562E0,5.997845073E0
1.228532525E1,-5.037025452E-1,1.342558136E0,5.811664581E0,5.985952206E0
1.229524625E1,-5.604345703E-1,1.281036072E0,5.789061584E0,5.955533087E0
1.230516725E1,-6.234535217E-1,1.201401672E0,5.644312592E0,5.804336732E0
1.231508825E1,-6.704557800E-1,1.057101746E0,5.510939941E0,5.651321446E0
1.232500925E1,-6.815327454E-1,9.830058289E-1,5.525609436E0,5.653595934E0
1.233493025E1,-5.095404053E-1,1.009949799E0,5.595663757E0,5.708860036E0
1.234485125E1,-1.721420288E-1,1.160087585E0,5.754782867E0,5.873070912E0
1.235477225E1,2.436932373E-1,1.424138489E0,6.005062408E0,6.176433547E0
1.236469225E1,7.676037598E-1,1.753154297E0,6.227649536E0,6.515088968E0
1.237461325E1,1.156345367E0,1.978884888E0,6.604266357E0,6.990669076E0
1.238453425E1,1.217717743E0,2.101479950E0,7.245383148E0,7.641638008E0
1.239445525E1,1.013392639E0,2.084714813E0,7.919281769E0,8.251546778E0
1.240437625E1,8.030799866E-1,1.997146912E0,8.467142487E0,8.736477273E0
1.241429725E1,5.439688110E-1,1.891167297E0,8.803642731E0,9.020894698E0
1.242421825E1,3.147953796E-1,1.792372742E0,8.836873627E0,9.022307447E0
1.243413925E1,1.420545959E-1,1.796863403E0,8.545429688E0,8.733456712E0
1.244405925E1,8.816665649E-2,1.909878387E0,8.158484344E0,8.379515237E0
1.245398025E1,8.741821289E-2,2.141746216E0,7.818092194E0,8.106619785E0
1.246390125E1,2.206411743E-1,2.421664124E0,7.475454712E0,7.861015380E0
1.247382225E1,4.376898193E-1,2.730621643E0,7.375462646E0,7.876884929E0
1.248374325E1,6.505471802E-1,3.054398346E0,7.707172852E0,8.315832746E0
1.249366425E1,8.140072632E-1,3.199147339E0,8.355624390E0,8.984075382E0
1.250358525E1,8.095166016E-1,3.270698547E0,9.038953400E0,9.646526042E0
1.251350625E1,7.655081177E-1,3.312461700E0,9.870923309E0,1.043999675E1
1.252342725E1,6.903643799E-1,3.285817108E0,1.063807800E1,1.115535300E1
1.253334725E1,6.087840271E-1,3.207080841E0,1.114821716E1,1.161631316E1
1.254326825E1,5.102888489E-1,3.036136322E0,1.140732834E1,1.181548384E1
1.255318925E1,4.058061218E-1,2.895578613E0,1.145103745E1,1.181843106E1
1.256311025E1,4.113446045E-1,2.914589081E0,1.138158188E1,1.175603845E1
1.257303125E1,7.457492065E-1,2.959944763E0,1.137185211E1,1.177439745E1
1.258295225E1,1.193767548E0,2.935545502E0,1.163186142E1,1.205581637E1
1.259287325E1,1.553319855E0,2.981799316E0,1.217792587E1,1.263351924E1
1.260279425E1,1.821262665E0,3.001109161E0,1.278311737E1,1.325638501E1
1.261271425E1,1.991458740E0,3.019670563E0,1.342632980E1,1.390505844E1
1.262263525E1,2.137105865E0,2.793490906E0,1.394814468E1,1.438476809E1
1.263255625E1,2.408641205E0,2.360890503E0,1.385458923E1,1.425920753E1
1.264247725E1,2.528092804E0,1.955533447E0,1.295765442E1,1.334601710E1
1.265239825E1,2.516866150E0,1.772763519E0,1.215936447E1,1.254302396E1
1.266231925E1,2.289488983E0,1.962568817E0,1.164473465E1,1.202885203E1
1.267224025E1,1.879790955E0,2.393223267E0,1.160012741E1,1.199266808E1
1.268216125E1,1.614392853E0,2.603984985E0,1.315075287E1,1.350293683E1
1.269208125E1,1.638193359E0,2.390379181E0,1.563019684E1,1.589656074E1
1.270200225E1,1.940115509E0,1.478774872E0,1.780188080E1,1.796824374E1
1.271192325E1,2.246079254E0,7.527845764E-1,1.858924347E1,1.873957122E1
1.272184425E1,2.178120575E0,3.498225403E-1,1.780113235E1,1.793730465E1
1.273176525E1,1.892664185E0,7.679031372E-2,1.569022202E1,1.580414950E1
1.274168625E1,1.482068024E0,1.781295776E-2,1.328637085E1,1.336878803E1
1.275160725E1,6.758445740E-1,4.429289246E-1,1.145792313E1,1.148638125E1
1.276152825E1,1.723815308E0,6.706054688E-2,8.354726257E0,8.530972229E0
1.277144925E1,1.213825836E0,5.830375671E-1,6.739285583E0,6.872501447E0
1.278136925E1,1.243464203E0,9.988728333E-1,6.094875641E0,6.300115812E0
1.279129025E1,1.541195068E0,8.111631775E-1,5.618117065E0,5.881879572E0
1.280121125E1,1.608704681E0,8.750802612E-1,6.140381012E0,6.407649740E0
1.281113225E1,1.664688263E0,8.562194824E-1,7.250771942E0,7.488524058E0
1.282105325E1,1.569186859E0,7.559280396E-1,8.031697998E0,8.218390799E0
1.283097425E1,1.311572571E0,6.746470642E-1,8.278385010E0,8.408747210E0
1.284089525E1,1.106049957E0,7.888595581E-1,8.048313446E0,8.162168538E0
1.285081625E1,9.252259827E-1,9.937834167E-1,7.303612061E0,7.428754790E0
1.286073625E1,7.198530579E-1,1.161734161E0,6.694528656E0,6.832607746E0
1.287065725E1,5.249583435E-1,1.337019653E0,6.329587555E0,6.490522431E0
1.288057825E1,3.514691162E-1,1.475182343E0,6.053711243E0,6.240762237E0
1.289049925E1,2.671943665E-1,1.565145264E0,5.883664856E0,6.094143472E0
1.290042100E1,1.525328064E-1,1.607207794E0,5.699847107E0,5.924072940E0
1.291034200E1,4.296066284E-2,1.672621765E0,5.660478973E0,5.902586839E0
1.292026300E1,-8.711883545E-2,1.747017059E0,5.755681000E0,6.015606542E0
1.293018400E1,-2.365081787E-1,1.818119202E0,5.893694000E0,6.172286652E0
1.294010400E1,-2.348616028E-1,1.905986481E0,6.192322998E0,6.483271439E0
1.295002500E1,-1.311273193E-1,2.057321777E0,6.500532074E0,6.819580963E0
1.295994600E1,6.376739502E-2,2.256108398E0,6.771468658E0,7.137708258E0
1.296986700E1,3.285667419E-1,2.466720428E0,6.996750183E0,7.426114657E0
1.297978800E1,6.069877625E-1,2.596350861E0,7.500602417E0,7.960433942E0
1.298970900E1,8.354127502E-1,2.600242767E0,8.258177032E0,8.698083974E0
1.299963000E1,1.091380463E0,2.644700317E0,9.044491882E0,9.486220770E0
1.300955100E1,1.185085602E0,2.685415649E0,9.599687347E0,1.003842031E1
1.301947100E1,1.035696259E0,2.662962341E0,9.816735992E0,1.022410586E1
1.302939200E1,7.092251587E-1,2.738106079E0,9.685758362E0,1.009029932E1
1.303931300E1,3.727249146E-1,2.916834412E0,9.355245667E0,9.806501330E0
1.304923400E1,2.285746765E-1,3.139720917E0,9.075028381E0,9.605531424E0
1.305915500E1,2.327659607E-1,3.432062988E0,9.060807953E0,9.691825272E0
1.306907600E1,2.450404358E-1,3.709436188E0,9.192384338E0,9.915638732E0
1.307899700E1,2.252815247E-1,3.896696777E0,9.319470062E0,1.010383688E1
1.308891800E1,2.634521484E-1,4.000880127E0,9.442514191E0,1.025853416E1
1.309883800E1,4.101470947E-1,3.994293823E0,9.655670929E0,1.045727426E1
1.310875900E1,4.718188477E-1,3.998485107E0,1.006057892E1,1.083631600E1
1.311868000E1,4.318519592E-1,3.914360046E0,1.051413574E1,1.122745568E1
1.312860100E1,2.113604736E-1,3.740571442E0,1.101379669E1,1.163358352E1
1.313852200E1,-2.133064270E-1,3.601061554E0,1.170236481E1,1.224575380E1
1.314844300E1,-8.190966797E-1,3.562142487E0,1.261831009E1,1.313702889E1
1.315836400E1,-1.581012268E0,3.572770386E0,1.362346985E1,1.417262215E1
1.316828500E1,-2.026785278E0,3.970643005E0,1.416908524E1,1.485384936E1
1.317820500E1,-1.465901642E0,4.617747345E0,1.410471909E1,1.491360314E1
1.318812600E1,1.751358032E-1,4.924609222E0,1.387434814E1,1.472345017E1
1.319804700E1,1.855092316E0,4.840783539E0,1.352572311E1,1.448515580E1
1.320796800E1,2.742147675E0,4.625980225E0,1.300495605E1,1.407295097E1
1.321788900E1,3.240012360E0,3.993994446E0,1.316781738E1,1.413651606E1
1.322781000E1,3.408262482E0,2.711760864E0,1.403855667E1,1.469867251E1
1.323773100E1,2.658920746E0,1.182391205E0,1.455483307E1,1.484287958E1
1.324765200E1,1.297950897E0,1.212478638E-2,1.388632324E1,1.394685616E1
1.325757200E1,5.254074097E-2,-5.986051941E-1,1.230785568E1,1.232251599E1
1.326749300E1,-9.642947388E-1,-6.328839111E-1,1.028975235E1,1.035419769E1
1.327741400E1,-1.512454834E0,-4.584965515E-1,8.338410187E0,8.486861797E0
1.328733500E1,-1.776805115E0,-2.139051819E-1,6.929240570E0,7.156616989E0
1.329725600E1,-1.804048462E0,-8.726852417E-2,5.901477814E0,6.171681054E0
1.330717700E1,-1.641187134E0,5.059478760E-2,5.332211609E0,5.579295268E0
1.331709800E1,-1.355431366E0,1.336720276E-1,5.309907990E0,5.481804927E0
1.332701900E1,-1.129102020E0,1.299298096E-1,5.548960876E0,5.664161009E0
1.333694000E1,-1.084494781E0,7.664062500E-2,5.903274078E0,6.002553420E0
1.334686000E1,-1.105301514E0,3.652404785E-2,6.369105377E0,6.464404748E0
1.335678100E1,-1.102457428E0,3.472778320E-2,6.919810181E0,7.007167141E0
1.336670200E1,-1.112336884E0,2.514770508E-2,7.407645721E0,7.490737005E0
1.337662300E1,-1.060394897E0,7.828720093E-2,7.647746429E0,7.721307640E0
1.338654400E1,-8.059240723E-1,2.368075562E-1,7.777227173E0,7.822458305E0
1.339646500E1,-4.635859680E-1,4.661306763E-1,7.866741028E0,7.894162663E0
1.340638600E1,-9.445358276E-2,6.908134460E-1,8.073311462E0,8.103363664E0
1.341630700E1,2.342628479E-1,9.692344666E-1,8.404422913E0,8.463369248E0
1.342622700E1,5.156776428E-1,1.191222839E0,8.930429077E0,9.024272757E0
1.343614800E1,5.695655823E-1,1.388362885E0,9.504784698E0,9.622519868E0
1.344606900E1,4.083508301E-1,1.432221680E0,9.879156189E0,9.990782569E0
1.345599000E1,2.157014465E-1,1.445094910E0,1.000788849E1,1.011398331E1
1.346591100E1,1.032852173E-2,1.439107361E0,9.782307587E0,9.887602257E0
1.347583200E1,-1.960922241E-1,1.535057831E0,9.393116913E0,9.519742646E0
1.348575300E1,-2.860551453E-1,1.690734100E0,9.044791260E0,9.205903447E0
1.349567400E1,-2.736309814E-1,1.894460449E0,8.657696228E0,8.866767071E0
1.350559400E1,-1.378633118E-1,2.139051819E0,8.162226562E0,8.438986398E0
1.351551500E1,1.709445190E-1,2.431244202E0,7.916437683E0,8.283124772E0
1.352543600E1,6.239025879E-1,2.740800476E0,7.987988892E0,8.468128968E0
1.353535700E1,1.178050232E0,3.048111420E0,8.374634857E0,8.989621492E0
1.354527800E1,1.502874756E0,3.213367767E0,8.807384949E0,9.494966802E0
1.355519900E1,1.656605072E0,3.463497620E0,9.189839630E0,9.959583754E0
1.356512000E1,1.684596863E0,3.501069489E0,9.696386261E0,1.044582504E1
1.357504100E1,1.558858337E0,3.417842560E0,1.013976425E1,1.081325604E1
1.358496100E1,1.225501556E0,3.288062439E0,1.049213150E1,1.106336441E1
1.359488200E1,1.167122955E0,3.108435974E0,1.129057114E1,1.176866801E1
1.360480300E1,1.466949463E0,3.020269318E0,1.222238342E1,1.267519720E1
1.361472400E1,1.579964447E0,3.058739319E0,1.269195694E1,1.315058724E1
1.362464500E1,1.438059540E0,3.081192627E0,1.244886246E1,1.290488046E1
1.363456600E1,1.068178711E0,3.062032471E0,1.205892334E1,1.248738086E1
1.364448700E1,7.569758606E-1,3.160827026E0,1.209993805E1,1.252886031E1
1.365440800E1,7.002438354E-1,3.316952362E0,1.257729538E1,1.302616112E1
1.366432800E1,8.101153564E-1,3.520978088E0,1.338187225E1,1.386102733E1
1.367424900E1,1.046623535E0,3.688030701E0,1.431712738E1,1.482150895E1
1.368417000E1,1.320703583E0,3.580105133E0,1.443897400E1,1.493470391E1
1.369409100E1,1.382075958E0,3.275488586E0,1.321721466E1,1.368699101E1
1.370401200E1,1.283880157E0,3.058140564E0,1.156240585E1,1.202870737E1
1.371393300E1,1.213077393E0,3.126997375E0,1.006132736E1,1.060565781E1
1.372385400E1,1.193617859E0,3.328927460E0,8.729846191E0,9.418954090E0
1.373377500E1,1.140777740E0,3.592080231E0,8.151598663E0,8.980700140E0
1.374369500E1,1.252295837E0,3.629352722E0,8.428672485E0,9.261909410E0
1.375361600E1,1.581311646E0,3.371738434E0,9.545350342E0,1.024611535E1
1.376353700E1,1.739981689E0,3.003204803E0,1.099972595E1,1.153432904E1
1.377345800E1,1.603465576E0,2.294728088E0,1.279209869E1,1.309483363E1
1.378337900E1,1.329235840E0,1.375789032E0,1.471679626E1,1.484061170E1
1.379330000E1,8.922944641E-1,5.519023132E-1,1.585907089E1,1.589373824E1
1.380322100E1,4.019142151E-1,-1.631607056E-2,1.582224747E1,1.582735973E1
1.381314100E1,-5.358856201E-2,-3.264710999E-1,1.504521332E1,1.504885042E1
1.382306200E1,-3.523672485E-1,-3.832031250E-1,1.375354935E1,1.376339809E1
1.383298300E1,-4.279600525E-1,-1.682501221E-1,1.214664093E1,1.215534219E1
1.384290400E1,-3.893403625E-1,1.483415222E-1,1.034139496E1,1.034978458E1
1.385282500E1,-3.412902832E-1,4.926255798E-1,8.625962219E0,8.646755647E0
1.386274600E1,-2.763253784E-1,7.929011536E-1,7.392676849E0,7.440209604E0
1.387266700E1,-2.034269714E-1,1.063089294E0,6.618187408E0,6.706112581E0
1.388258800E1,-1.224453735E-1,1.306183777E0,6.163433075E0,6.301509041E0
1.389250800E1,1.719923401E-1,1.538800049E0,5.871390381E0,6.072125819E0
1.390242912E1,5.587879944E-1,1.864822083E0,5.856421509E0,6.171505352E0
1.391235012E1,4.797523499E-1,1.991009674E0,5.688770142E0,6.046187854E0
1.392227112E1,1.321751404E-1,1.836830292E0,5.489684143E0,5.790340904E0
1.393219212E1,-2.475851440E-1,1.651365967E0,5.582640839E0,5.827022112E0
1.394211312E1,-5.824388123E-1,1.478176117E0,5.668262787E0,5.886717474E0
1.395203412E1,-5.454656982E-1,1.407373352E0,5.784720612E0,5.978396535E0
1.396195512E1,-4.412823486E-1,1.595831451E0,5.971232758E0,6.196533610E0
1.397187512E1,-4.403842163E-1,1.773362274E0,5.832471313E0,6.111994244E0
1.398179612E1,-5.752537537E-1,1.854044495E0,5.518424377E0,5.849906450E0
1.399171712E1,-6.991960144E-1,1.869312744E0,5.335804138E0,5.696842196E0
1.400163812E1,-6.418652344E-1,1.854044495E0,5.751340027E0,6.076790606E0
1.401155912E1,-3.387455750E-1,1.731299744E0,6.791227570E0,7.016617367E0
1.402148012E1,-3.832031250E-2,1.715881805E0,7.694299622E0,7.883398092E0
1.403140112E1,1.478924561E-1,1.948049011E0,8.021818542E0,8.256290926E0
1.404132212E1,3.320095825E-1,2.174378357E0,7.801476746E0,8.105627120E0
1.405124212E1,3.836521912E-1,2.400707703E0,7.597750397E0,7.977242479E0
1.406116312E1,7.529342651E-2,2.672841797E0,7.519313507E0,7.980590704E0
1.407108412E1,-3.909869385E-1,2.803819427E0,7.582631836E0,8.093860619E0
1.408100512E1,-8.198451233E-1,2.841241608E0,8.067174225E0,8.592095197E0
1.409092612E1,-1.034049683E0,2.785707092E0,8.972491608E0,9.451720923E0
1.410084712E1,-1.019529877E0,2.703677673E0,1.000848724E1,1.041725161E1
1.411076812E1,-7.547305298E-1,2.755020905E0,1.079779587E1,1.116925038E1
1.412068913E1,-3.044668579E-1,2.875819702E0,1.118908218E1,1.155675556E1
1.413060912E1,1.657054138E-1,3.173849945E0,1.126692032E1,1.170659110E1
1.414053013E1,5.324427795E-1,3.475023651E0,1.113953522E1,1.168111851E1
1.415045112E1,5.915698242E-1,3.593277740E0,1.113249985E1,1.171299076E1
1.416037212E1,4.146377563E-1,3.724704437E0,1.124297012E1,1.185114867E1
1.417029313E1,2.571652222E-1,3.802243195E0,1.161075531E1,1.222018110E1
1.418021412E1,2.781216431E-1,3.576662292E0,1.231983078E1,1.283152739E1
1.419013512E1,3.071612549E-1,3.115171967E0,1.308009979E1,1.344944813E1
1.420005613E1,-8.816665649E-2,2.712958374E0,1.393736710E1,1.419922949E1
1.420997612E1,-8.292755127E-1,2.523153076E0,1.510404099E1,1.533577691E1
1.421989713E1,-1.590143280E0,2.775528259E0,1.591999420E1,1.623817503E1
1.422981812E1,-1.630708923E0,3.492836609E0,1.602956635E1,1.648654349E1
1.423973912E1,-6.491999817E-1,4.527485046E0,1.564217194E1,1.629715080E1
1.424966013E1,5.474116516E-1,5.034780121E0,1.466799774E1,1.551769403E1
1.425958112E1,1.237626343E0,4.730912018E0,1.335492828E1,1.422207288E1
1.426950212E1,1.404978333E0,4.108805695E0,1.255334518E1,1.328317446E1
1.427942212E1,1.537901917E0,3.184627533E0,1.232851273E1,1.282572496E1
1.428934312E1,1.306183777E0,1.983674927E0,1.225262054E1,1.248069679E1
1.429926413E1,4.471202087E-1,8.009843445E-1,1.188244034E1,1.191779681E1
1.430918512E1,-5.158273315E-1,-8.876541138E-2,1.105735611E1,1.106973718E1
1.431910612E1,-1.475332031E0,-5.210664368E-1,9.966873779E0,1.008893888E1
1.432902713E1,-2.172133026E0,-5.625302124E-1,8.968899078E0,9.245309773E0
1.433894812E1,-2.509980469E0,-4.065545654E-1,8.058492279E0,8.450123454E0
1.434886912E1,-2.521805878E0,-7.409591675E-2,7.335196381E0,7.756938896E0
1.435878912E1,-2.229763184E0,4.321513367E-1,6.817572784E0,7.185951385E0
1.436871012E1,-1.727557526E0,8.928932190E-1,6.462361450E0,6.748616808E0
1.437863113E1,-1.221759338E0,1.251397705E0,6.211183777E0,6.452712298E0
1.438855212E1,-7.637118530E-1,1.550326080E0,6.064339142E0,6.305789084E0
1.439847312E1,-4.284091187E-1,1.788480835E0,6.063141632E0,6.335920179E0
1.440839412E1,-2.471360779E-1,1.904938660E0,6.221661987E0,6.511447260E0
1.441831512E1,-3.296145630E-1,1.870510254E0,6.294261017E0,6.574585623E0
1.442823612E1,-4.936734009E-1,1.764830017E0,6.235583038E0,6.499294904E0
1.443815612E1,-5.727090454E-1,1.533710632E0,6.103557587E0,6.319310023E0
1.444807712E1,-5.661227417E-1,1.515298920E0,6.039640503E0,6.252510150E0
1.445799812E1,-5.504054260E-1,1.717827759E0,6.032305756E0,6.296236262E0
1.446791912E1,-3.573069763E-1,2.008672943E0,6.302194519E0,6.624204935E0
1.447784012E1,-3.891906738E-3,2.175725555E0,6.757098541E0,7.098744786E0
1.448776112E1,2.734812927E-1,2.247576141E0,7.375013580E0,7.714740167E0
1.449768212E1,4.861889648E-1,2.208058319E0,8.168214111E0,8.475353858E0
1.450760312E1,4.677772522E-1,2.094893646E0,8.952583008E0,9.206309655E0
1.451752312E1,2.218386841E-1,2.022294617E0,9.300309906E0,9.520223331E0
1.452744412E1,-1.234931946E-1,1.999841309E0,9.185348969E0,9.401343069E0
1.453736512E1,-3.998185730E-1,1.976340179E0,9.033265228E0,9.255574325E0
1.454728612E1,-5.842350769E-1,2.014510803E0,9.053173828E0,9.292983416E0
1.455720712E1,-7.629634094E-1,2.163451080E0,9.032965851E0,9.319715972E0
1.456712812E1,-7.593708801E-1,2.282453613E0,8.779243469E0,9.102821240E0
1.457704912E1,-5.845344543E-1,2.427801361E0,8.362061005E0,8.726967642E0
1.458696912E1,-2.977308655E-1,2.662962341E0,7.977211304E0,8.415219087E0
1.459689012E1,-5.807922363E-2,2.984793091E0,7.862250366E0,8.409955042E0
1.460681112E1,2.537223816E-1,3.248694305E0,7.875123596E0,8.522673371E0
1.461673212E1,4.424798584E-1,3.441643066E0,8.174650726E0,8.880631167E0
1.462665312E1,3.927832031E-1,3.486100616E0,8.556356964E0,9.247617025E0
1.463657413E1,2.254312134E-1,3.321143646E0,8.865913239E0,9.470228714E0
1.464649512E1,-8.083190918E-2,3.119962006E0,9.115594025E0,9.635079197E0
1.465641612E1,-3.335064697E-1,2.915337524E0,9.367370453E0,9.816213560E0
1.466633612E1,-3.525169373E-1,2.746937714E0,9.582622833E0,9.974798011E0
1.467625712E1,-1.700463867E-1,2.664758606E0,9.863738251E0,1.021876639E1
1.468617813E1,1.890568542E-1,2.660866699E0,1.042851379E1,1.076428604E1
1.469609912E1,4.927752686E-1,2.696492615E0,1.120270386E1,1.153319009E1
1.470602012E1,6.506968689E-1,2.832409973E0,1.203257812E1,1.237856571E1
1.471594113E1,7.247927856E-1,2.938239899E0,1.285257294E1,1.320406034E1
1.472586212E1,8.149053955E-1,2.924468536E0,1.375923752E1,1.409018112E1
1.473578312E1,1.086141357E0,3.019371185E0,1.421938065E1,1.457693697E1
1.474570312E1,1.572929077E0,3.192261658E0,1.368184845E1,1.413710074E1
1.475562412E1,1.742077332E0,3.424279175E0,1.262714172E1,1.319868287E1
1.476554513E1,1.720971222E0,3.581901398E0,1.169922134E1,1.235570879E1
1.477546612E1,1.513802032E0,3.622616730E0,1.074824890E1,1.144289312E1
1.478538712E1,1.227597198E0,3.838767242E0,1.013961456E1,1.091122873E1
1.479530813E1,1.029259644E0,4.030518494E0,1.039258850E1,1.119421058E1
1.480522912E1,1.309925995E0,3.834875336E0,1.185953796E1,1.253278962E1
1.481514913E1,1.856439514E0,3.333118744E0,1.408840302E1,1.459586064E1
1.482507012E1,2.288141785E0,2.702929230E0,1.603779922E1,1.642414148E1
1.483499112E1,2.749482422E0,2.181413727E0,1.722063950E1,1.757465915E1
1.484491213E1,2.980751495E0,1.810036011E0,1.735715561E1,1.770400973E1
1.485483312E1,2.821033630E0,1.550775146E0,1.645677795E1,1.676868137E1
1.486475412E1,2.477947083E0,1.493893433E0,1.479223938E1,1.507256731E1
1.487467513E1,2.100731506E0,1.700912933E0,1.321347244E1,1.348710613E1
1.488459612E1,1.693428497E0,1.841919708E0,1.179157928E1,1.205411591E1
1.489451613E1,1.319805450E0,1.844913483E0,1.045411057E1,1.069738379E1
1.490443612E1,1.025816803E0,1.911225586E0,9.297316132E0,9.546997989E0
1.491435713E1,6.505471802E-1,1.924398193E0,8.482560425E0,8.722405139E0
1.492427812E1,3.550616455E-1,1.885778503E0,8.045169983E0,8.270851793E0
1.493419912E1,1.856140137E-1,1.654509430E0,8.052355042E0,8.222668407E0
1.494412013E1,2.948867798E-2,1.467548218E0,8.365503845E0,8.493304536E0
1.495404112E1,1.387614441E-1,1.308429108E0,8.569080505E0,8.669508762E0
1.496396212E1,3.709286499E-1,1.293759613E0,8.405321045E0,8.512392370E0
1.497388212E1,5.075944519E-1,1.436412964E0,7.825277252E0,7.972195332E0
1.498380312E1,6.370751953E-1,1.627565460E0,6.957082672E0,7.173272157E0
1.499372413E1,7.412585449E-1,1.845512238E0,6.113736420E0,6.429086456E0
1.500364512E1,6.831793213E-1,2.029030609E0,5.425617371E0,5.832754328E0
1.501356612E1,4.123924255E-1,2.061812439E0,4.882397003E0,5.315913707E0
1.502348712E1,1.194515991E-1,2.032473450E0,4.578678589E0,5.010939496E0
1.503340812E1,-6.077362061E-2,2.085762634E0,4.656965790E0,5.103080400E0
1.504332813E1,-1.872605896E-1,2.083217926E0,4.843927002E0,5.276219504E0
1.505324912E1,-2.785707092E-1,2.163301392E0,4.912185059E0,5.374666185E0
1.506317012E1,-3.751199341E-1,2.223925323E0,5.179080048E0,5.648843151E0
1.507309112E1,-5.287005615E-1,2.238145752E0,5.613177338E0,6.066018506E0
1.508301212E1,-6.213578796E-1,2.221979370E0,6.089187469E0,6.511642034E0
1.509293312E1,-7.072792053E-1,2.239343262E0,6.450536041E0,6.864715387E0
1.510285412E1,-7.581733704E-1,2.388133850E0,6.558012543E0,7.020365992E0
1.511277512E1,-7.183561707E-1,2.560874634E0,6.526577911E0,7.047718334E0
1.512269512E1,-6.173162842E-1,2.717149658E0,6.497687988E0,7.069931460E0
1.513261612E1,-5.584886169E-1,2.882406006E0,6.449338531E0,7.086193718E0
1.514253712E1,-4.267625427E-1,3.104095001E0,6.504723358E0,7.220038643E0
1.515245812E1,-3.124003601E-1,3.402873688E0,6.819518738E0,7.627776815E0
1.516237912E1,-3.013233948E-1,3.639681244E0,7.369624786E0,8.224928257E0
1.517230012E1,-1.736389160E-1,3.683989105E0,8.235574036E0,9.023669204E0
1.518222112E1,-8.113128662E-2,3.706592102E0,9.161847839E0,9.883565304E0
1.519214112E1,-1.014889526E-1,3.735931091E0,9.898316345E0,1.058036614E1
1.520206212E1,-1.838177490E-1,3.775149536E0,1.040142014E1,1.106684616E1
1.521198312E1,-3.484753418E-1,3.891008606E0,1.054721695E1,1.124745164E1
1.522190412E1,-4.092489624E-1,4.046684875E0,1.059841049E1,1.135206801E1
1.523182512E1,-3.900888062E-1,4.232149200E0,1.075603271E1,1.156527111E1
1.524174612E1,-4.305047607E-1,4.326602783E0,1.094344299E1,1.177555818E1
1.525166713E1,-4.448748779E-1,4.393363953E0,1.117965179E1,1.202015702E1
1.526158712E1,-4.522096252E-1,4.422553253E0,1.160342056E1,1.242589391E1
1.527150812E1,-5.355862427E-1,4.425996094E0,1.229198868E1,1.307552216E1
1.528142912E1,-7.632627869E-1,4.492607574E0,1.300525543E1,1.378052110E1
1.529135012E1,-1.143472137E0,4.572990417E0,1.354084167E1,1.433785769E1
1.530127113E1,-1.439406738E0,4.930147705E0,1.388018600E1,1.479992607E1
1.531119212E1,-1.123114471E0,5.090164948E0,1.386282211E1,1.481043559E1
1.532111312E1,-4.409829712E-1,4.691843262E0,1.402703064E1,1.479748113E1
1.533103413E1,5.034031677E-1,4.161047058E0,1.474104584E1,1.532534371E1
1.534095412E1,1.719624023E0,3.673959961E0,1.528935562E1,1.581832747E1
1.535087513E1,2.723735962E0,2.910846863E0,1.531974243E1,1.582991709E1
1.536079612E1,3.006497955E0,1.695673828E0,1.488280106E1,1.527783057E1
1.537071712E1,2.374212799E0,6.454577637E-1,1.369247635E1,1.391177238E1
1.538063813E1,1.339115295E0,7.499404907E-2,1.212433731E1,1.219829534E1
1.539055912E1,5.433700562E-2,-1.083746338E-1,1.095032867E1,1.095099976E1
1.540048012E1,-1.322499847E0,-2.170486450E-1,1.019230499E1,1.028003877E1
1.541040113E1,-2.068249054E0,-3.068618774E-1,9.347910919E0,9.578896435E0
1.542032112E1,-2.251318359E0,-9.430389404E-2,8.611741791E0,8.901652894E0
1.543024213E1,-2.171384583E0,2.802172852E-1,7.993826752E0,8.288226521E0
1.544016312E1,-1.805545349E0,6.490502930E-1,7.530240784E0,7.770829206E0
1.545008412E1,-1.334474945E0,9.690847778E-1,7.238796844E0,7.424293127E0
1.546000513E1,-1.006956024E0,1.262324982E0,7.138655090E0,7.319004119E0
1.546992612E1,-9.240284729E-1,1.240470428E0,7.180268555E0,7.344988225E0
1.547984712E1,-1.074914703E0,1.067130890E0,7.327861633E0,7.482764601E0
1.548976712E1,-1.264869690E0,9.618997192E-1,7.678582306E0,7.841286414E0
1.549968812E1,-1.380130005E0,9.321116638E-1,8.162376251E0,8.330544823E0
1.550960913E1,-1.398242340E0,9.843530273E-1,8.456364899E0,8.627522230E0
1.551953012E1,-1.401685181E0,1.139879608E0,8.405171356E0,8.597147922E0
1.552945112E1,-1.466350708E0,1.371448059E0,8.133785706E0,8.377918840E0
1.553937213E1,-1.535806274E0,1.496887207E0,7.751031647E0,8.042254896E0
1.554929312E1,-1.526076508E0,1.578168182E0,7.471562805E0,7.787411320E0
1.555921412E1,-1.364562378E0,1.759740601E0,7.259154510E0,7.593025857E0
1.556913412E1,-1.022523651E0,2.017803955E0,7.145989838E0,7.495482518E0
1.557905512E1,-7.875123596E-1,2.306104431E0,7.016808472E0,7.427913199E0
1.558897613E1,-7.421566772E-1,2.478396149E0,6.850204926E0,7.322468950E0
1.559889712E1,-7.708969116E-1,2.523302765E0,6.753206635E0,7.250319906E0
1.560881812E1,-9.722282410E-1,2.566113739E0,6.820416870E0,7.351751747E0
1.561873912E1,-1.206191711E0,2.636317749E0,6.824907532E0,7.415148855E0
1.562866012E1,-1.324296112E0,2.675236816E0,6.776707764E0,7.405026693E0
1.563858012E1,-1.220711517E0,2.818339233E0,6.871311035E0,7.526492409E0
1.564850112E1,-1.033450928E0,3.053649902E0,7.151977386E0,7.844971579E0
1.565842212E1,-8.569679260E-1,3.270848236E0,7.787406006E0,8.489790016E0
1.566834312E1,-6.538403320E-1,3.483406219E0,8.624764709E0,9.324601459E0
1.567826412E1,-5.454656982E-1,3.549119568E0,9.266180878E0,9.937599841E0
1.568818512E1,-5.966592407E-1,3.485950928E0,9.707014160E0,1.033121387E1
1.569810612E1,-6.752458191E-1,3.478915558E0,9.789043579E0,1.041077253E1
1.570802612E1,-7.798782349E-1,3.458258514E0,9.528585205E0,1.016669553E1
1.571794712E1,-7.388635254E-1,3.416195984E0,9.412576447E0,1.004056321E1
1.572786812E1,-6.444099426E-1,3.464545441E0,9.507778473E0,1.013983189E1
1.573778912E1,-3.870950317E-1,3.492387543E0,9.701924744E0,1.031862186E1
1.574771012E1,-1.338217163E-1,3.370091858E0,1.002749771E1,1.057951500E1
1.575763112E1,1.651066589E-1,3.284619598E0,1.058149567E1,1.108079585E1
1.576755212E1,5.881269836E-1,3.235372009E0,1.125554398E1,1.172607332E1
1.577747312E1,1.078357544E0,3.333567810E0,1.210457840E1,1.260144228E1
1.578739312E1,1.665586395E0,3.608845367E0,1.283715500E1,1.343839616E1
1.579731412E1,2.038910065E0,3.697012024E0,1.276066406E1,1.344096721E1
1.580723512E1,1.715133362E0,3.482508087E0,1.197135544E1,1.258502666E1
1.581715612E1,1.132694550E0,3.177292786E0,1.145373184E1,1.194010718E1
1.582707712E1,6.956034851E-1,3.190465393E0,1.153950348E1,1.199262582E1
1.583699812E1,4.096980286E-1,3.313359833E0,1.252191055E1,1.295933832E1
1.584691913E1,3.775149536E-1,3.107388153E0,1.410067749E1,1.444394283E1
1.585683912E1,4.120930481E-1,2.552192688E0,1.542227921E1,1.563746156E1
1.586676012E1,4.787045288E-1,1.852996674E0,1.625544662E1,1.636772127E1
1.587668112E1,5.289999390E-1,1.158141632E0,1.666529434E1,1.671386157E1
1.588660212E1,4.661306763E-1,5.915698242E-1,1.607192825E1,1.608956527E1
1.589652313E1,3.573069763E-1,3.990701294E-1,1.431128952E1,1.432131045E1
1.590644425E1,3.071612549E-1,6.620732117E-1,1.227222977E1,1.229391363E1
1.591636525E1,7.506889343E-1,1.120270386E0,1.078866486E1,1.087261831E1
1.592628625E1,1.285377045E0,1.625020752E0,9.863887939E0,1.007914539E1
1.593620625E1,1.592837677E0,1.843416595E0,9.261839905E0,9.576899030E0
1.594612725E1,1.660646667E0,1.937421112E0,9.010961609E0,9.365296420E0
1.595604825E1,1.731150055E0,1.974094849E0,9.026978302E0,9.401078037E0
1.596596925E1,1.718426514E0,1.957479401E0,9.159602509E0,9.522763958E0
1.597589025E1,1.677262115E0,1.887574768E0,9.408834229E0,9.741781575E0
1.598581125E1,1.511107635E0,1.823058929E0,9.759105835E0,1.004226752E1
1.599573225E1,1.159488831E0,1.629212036E0,9.829609222E0,1.003095029E1
1.600565225E1,8.556207275E-1,1.559307404E0,9.614955597E0,9.778082508E0
1.601557325E1,6.381230164E-1,1.681752777E0,9.196425934E0,9.370685319E0
1.602549425E1,3.978726196E-1,1.781595154E0,8.466394043E0,8.660959070E0
1.603541525E1,1.877096558E-1,1.879341888E0,7.663763123E0,7.893061893E0
1.604533625E1,-1.016386414E-1,2.038610687E0,7.064559174E0,7.353520263E0
1.605525725E1,-3.177891541E-1,2.131567383E0,6.645131378E0,6.985867196E0
1.606517825E1,-3.796105957E-1,2.191293182E0,6.319558411E0,6.699454345E0
1.607509825E1,-5.210664368E-1,2.224673767E0,6.178851013E0,6.587782893E0
1.608501925E1,-6.038442993E-1,2.237097931E0,5.979166260E0,6.412461637E0
1.609494025E1,-5.929170227E-1,2.305056610E0,5.668113098E0,6.147547695E0
1.610486125E1,-6.105802917E-1,2.400558014E0,5.458698578E0,5.994403826E0
1.611478225E1,-6.942562866E-1,2.445314941E0,5.151836700E0,5.744821872E0
1.612470325E1,-7.286846924E-1,2.583777008E0,4.962630157E0,5.642214378E0
1.613462425E1,-6.119274902E-1,2.610122223E0,5.007686462E0,5.680151140E0
1.614454525E1,-3.435356140E-1,2.712359619E0,5.334906006E0,5.994675430E0
1.615446525E1,-7.933502197E-2,2.910547485E0,5.840404816E0,6.525941244E0
1.616438625E1,5.628295898E-2,3.019071808E0,6.509363708E0,7.175637828E0
1.617430725E1,6.436614990E-2,3.048261108E0,7.033872986E0,7.666251233E0
1.618422825E1,-5.164260864E-2,3.135978699E0,7.449408875E0,8.082742229E0
1.619414925E1,-1.564247131E-1,3.274291077E0,7.973020020E0,8.620585768E0
1.620407025E1,-1.243913269E-1,3.424279175E0,8.566086731E0,9.225996041E0
1.621399125E1,-1.694476318E-1,3.637136536E0,9.145382080E0,9.843550582E0
1.622391125E1,-1.336720276E-1,3.852688293E0,9.508526917E0,1.026027092E1
1.623383225E1,-8.217910767E-2,4.020639038E0,9.691296844E0,1.049254622E1
1.624375325E1,-4.086502075E-2,4.095633087E0,9.893675995E0,1.070797390E1
1.625367425E1,1.384620667E-1,4.119134216E0,1.011761032E1,1.092485593E1
1.626359525E1,5.557942200E-1,4.108356628E0,1.021221359E1,1.102165178E1
1.627351625E1,1.211430817E0,4.152514801E0,1.002390518E1,1.091739982E1
1.628343725E1,1.930984497E0,4.282145233E0,9.852661285E0,1.091514559E1
1.629335725E1,2.197879486E0,4.256548462E0,1.008542725E1,1.116533572E1
1.630327825E1,1.528920593E0,3.999981995E0,1.067939209E1,1.150594931E1
1.631319925E1,4.207749939E-1,3.528612213E0,1.147004791E1,1.200792051E1
1.632312025E1,-7.879614258E-1,2.971021729E0,1.223331070E1,1.261355398E1
1.633304125E1,-1.611848145E0,2.698288879E0,1.266201920E1,1.304628481E1
1.634296225E1,-1.690285034E0,2.953508148E0,1.277458511E1,1.322007181E1
1.635288325E1,-1.011746063E0,3.681893463E0,1.268821472E1,1.325031178E1
1.636280325E1,-1.011895752E-1,4.642445984E0,1.271710464E1,1.353836381E1
1.637272425E1,5.032534790E-1,5.312901764E0,1.315808762E1,1.419913585E1
1.638264525E1,6.888674927E-1,5.084027710E0,1.381911301E1,1.474075169E1
1.639256625E1,5.710624695E-1,3.928131409E0,1.473430984E1,1.525962697E1
1.640248725E1,2.998265076E-1,2.654280396E0,1.541733948E1,1.564702710E1
1.641240825E1,-2.677931213E-1,1.630110168E0,1.539698181E1,1.548534860E1
1.642232925E1,-9.728269958E-1,9.238787842E-1,1.442430450E1,1.448656291E1
1.643224925E1,-1.627116394E0,5.183720398E-1,1.266785706E1,1.278244185E1
1.644217025E1,-2.120789795E0,2.790197754E-1,1.085243225E1,1.106123353E1
1.645209125E1,-2.471061401E0,1.884580994E-1,9.209748230E0,9.537354107E0
1.646201225E1,-2.584525452E0,2.853067017E-1,7.747439117E0,8.172146878E0
1.647193325E1,-2.494562531E0,4.837939453E-1,6.643484802E0,7.112860825E0
1.648185425E1,-2.524051208E0,6.987469482E-1,6.036197662E0,6.579875684E0
1.649177525E1,-2.491419067E0,8.951385498E-1,5.814808044E0,6.389087148E0
1.650169525E1,-2.366279297E0,9.973759460E-1,5.842949524E0,6.382326819E0
1.651161625E1,-2.303709412E0,9.812095642E-1,6.170019379E0,6.658752766E0
1.652153725E1,-2.285597076E0,8.259823608E-1,6.806046753E0,7.226926958E0
1.653145825E1,-2.207609253E0,5.921685791E-1,7.494764557E0,7.835540696E0
1.654137925E1,-2.124382324E0,4.578977966E-1,7.904761963E0,8.198044422E0
1.655130025E1,-1.939367065E0,5.063969421E-1,7.899822235E0,8.150139497E0
1.656122125E1,-1.707648926E0,6.872209167E-1,7.620802460E0,7.839959666E0
1.657114125E1,-1.536854095E0,8.298742676E-1,7.350015564E0,7.554689974E0
1.658106225E1,-1.423390045E0,1.011596375E0,7.011269989E0,7.225460076E0
1.659098325E1,-1.333876190E0,1.291963348E0,6.828200684E0,7.076207993E0
1.660090425E1,-1.238374786E0,1.496138763E0,7.021748199E0,7.285392995E0
1.661082525E1,-1.268162842E0,1.513352966E0,7.456743622E0,7.713721517E0
1.662074625E1,-1.175655212E0,1.540596313E0,7.636519775E0,7.878580866E0
1.663066725E1,-9.922865295E-1,1.728455658E0,7.561974792E0,7.820208071E0
1.664058825E1,-7.970924377E-1,1.949545898E0,7.363786926E0,7.659075888E0
1.665050825E1,-4.634362793E-1,2.251468048E0,6.902895355E0,7.275564984E0
1.666042925E1,-1.541793823E-1,2.627336426E0,6.456822968E0,6.972605740E0
1.667035025E1,1.007405090E-1,2.964734802E0,6.226302338E0,6.896857393E0
1.668027125E1,2.573149109E-1,3.237916718E0,6.272256775E0,7.063393001E0
