"Time (s)","Acceleration x (m/s^2)","Acceleration y (m/s^2)","Acceleration z (m/s^2)","Absolute acceleration (m/s^2)"
2.366250264E-4,-1.944007416E0,-6.973997498E-1,3.520529022E0,4.081624167E0
1.030262501E-2,-1.739981689E0,-5.920188904E-1,3.535647583E0,3.984824523E0
2.036962501E-2,-1.393601990E0,-2.764750671E-1,2.994073792E0,3.314067416E0
3.043562500E-2,-8.689430237E-1,1.713935852E-1,1.810185699E0,2.015244404E0
4.050262499E-2,-1.916015625E-2,9.110055542E-1,7.840695190E-1,1.202107833E0
5.056862504E-2,6.674620056E-1,1.790576477E0,1.391805725E0,2.364062780E0
6.063562504E-2,1.187779999E0,1.762734375E0,2.221829681E0,3.074830229E0
7.070162502E-2,1.222208405E0,1.906285858E0,2.846331024E0,3.637213144E0
8.076862502E-2,1.009500732E0,3.285966797E0,4.639751587E0,5.774423288E0
9.083462501E-2,1.129700775E0,4.568200378E0,8.004754028E0,9.285513750E0
1.009016250E-1,2.058519287E0,5.351820831E0,1.165581161E1,1.298989732E1
1.109676250E-1,3.093167725E0,6.385421448E0,1.515463577E1,1.673332839E1
1.210346250E-1,3.885320435E0,8.076305237E0,1.773931091E1,1.987474711E1
1.311006250E-1,4.153862000E0,1.018332367E1,1.901810165E1,2.196913382E1
1.411668333E-1,4.321513367E0,1.322230408E1,2.002969803E1,2.438634056E1
1.512328333E-1,6.017785950E0,1.724129654E1,2.170321793E1,2.836381008E1
1.612998333E-1,1.049826874E1,2.016786072E1,2.623489426E1,3.471636400E1
1.713668333E-1,1.362047607E1,2.035257660E1,2.806798233E1,3.724991778E1
1.814328334E-1,1.770128998E1,2.002730301E1,3.140364578E1,4.123854388E1
1.914998334E-1,2.041245209E1,1.933050201E1,3.611300262E1,4.576554891E1
2.015658334E-1,2.101764359E1,1.694386505E1,3.998051010E1,4.824186038E1
2.116328334E-1,1.878593445E1,1.249302063E1,4.077894974E1,4.660375134E1
2.216988333E-1,1.435589676E1,9.439071350E0,3.696233643E1,4.076030120E1
2.317658333E-1,9.709558868E0,9.161548462E0,2.960543518E1,3.247601108E1
2.418318333E-1,7.285499725E0,1.030786469E1,2.051214478E1,2.408482227E1
2.518988333E-1,6.023623810E0,1.293654831E1,1.263672180E1,1.906108769E1
2.619648334E-1,7.472161560E0,1.544443314E1,6.027815094E0,1.818511116E1
2.720318334E-1,9.823921051E0,1.618314697E1,1.820514221E0,1.901888385E1
2.820978333E-1,1.102562210E1,1.539892776E1,-4.992118835E-1,1.894572594E1
2.921648333E-1,1.051383636E1,1.338651260E1,-1.760938110E0,1.711257952E1
3.022308333E-1,8.098010101E0,1.046189438E1,-2.429148560E0,1.345101351E1
3.122978333E-1,5.172044678E0,7.004384308E0,-2.730322266E0,9.125026321E0
3.223638334E-1,1.854643250E0,3.361409912E0,-1.985920258E0,4.322343976E0
3.324308334E-1,-1.896705780E0,-1.534309387E-1,-3.957769775E-1,1.943623751E0
3.424978334E-1,-5.216951294E0,-2.373464355E0,1.162033539E0,5.848096767E0
3.525638334E-1,-7.062463531E0,-3.396736450E0,1.958227844E0,8.077800811E0
3.626308333E-1,-7.154821472E0,-4.128714294E0,2.084565125E0,8.519575329E0
3.726968333E-1,-6.391558685E0,-4.202510834E0,1.904788971E0,7.882977912E0
3.827638333E-1,-5.500910797E0,-3.858077087E0,1.333277435E0,6.849993221E0
3.928298333E-1,-4.716990967E0,-3.507057037E0,1.978884888E-1,5.881208439E0
4.028968334E-1,-4.221072235E0,-3.744613037E0,-1.254241791E0,5.780371967E0
4.129628334E-1,-4.538262634E0,-3.765569458E0,-2.712060242E0,6.490809798E0
4.230298334E-1,-4.719236298E0,-3.037483521E0,-4.282594299E0,7.059611271E0
4.330958333E-1,-4.026476898E0,-2.462529144E0,-5.763315125E0,7.449319917E0
4.431628333E-1,-2.887495422E0,-2.181862793E0,-6.642137604E0,7.564135576E0
4.532288333E-1,-1.935026093E0,-2.023641815E0,-6.647227020E0,7.212841273E0
4.632958333E-1,-1.518292694E0,-1.880240021E0,-6.071973267E0,6.535240974E0
4.733618334E-1,-1.320703583E0,-1.833088074E0,-5.348228302E0,5.805860471E0
4.834288334E-1,-1.058898010E0,-2.051034851E0,-4.611161041E0,5.156628269E0
4.934948334E-1,-8.170010376E-1,-2.337539063E0,-3.634142761E0,4.397564459E0
5.035618333E-1,-6.198609924E-1,-2.439177704E0,-2.537672882E0,3.574017232E0
5.136288333E-1,-4.658312988E-1,-2.610720978E0,-1.346899109E0,2.974390699E0
5.236948333E-1,-4.357438660E-1,-2.864892426E0,-2.896476746E-1,2.912280395E0
5.337618333E-1,-5.929170227E-1,-2.998115387E0,5.956114197E-1,3.113679404E0
5.438278333E-1,-8.425978088E-1,-3.063978424E0,1.419797516E0,3.480482702E0
5.538948334E-1,-1.048868866E0,-3.016976166E0,2.187550964E0,3.871388679E0
5.639608334E-1,-9.901908875E-1,-2.851570129E0,3.011587372E0,4.263987417E0
5.740278334E-1,-8.907975769E-1,-2.691852264E0,3.658092957E0,4.628307792E0
5.840938333E-1,-9.659413147E-1,-2.460134125E0,3.926035767E0,4.732764454E0
5.941608333E-1,-8.099656677E-1,-2.040107574E0,3.971241760E0,4.537493186E0
6.042268333E-1,-1.121168518E-1,-1.730251923E0,4.105512543E0,4.456632713E0
6.142938333E-1,1.230141907E0,-1.348545685E0,4.350702667E0,4.718096891E0
6.243598334E-1,2.714754639E0,-5.316943359E-1,4.479135590E0,5.264527258E0
6.344268334E-1,4.259093170E0,4.778063965E-1,4.431235199E0,6.164739976E0
6.444928334E-1,5.566025391E0,1.842967529E0,4.534819794E0,7.412270808E0
6.545598333E-1,6.668033752E0,3.094963989E0,5.091961212E0,8.942569273E0
6.646258333E-1,7.601791992E0,3.823199615E0,5.757327576E0,1.027379762E1
6.746928333E-1,7.413184204E0,4.418511658E0,6.811884613E0,1.099455853E1
6.847598333E-1,6.601122894E0,5.359155579E0,8.651708679E0,1.213043425E1
6.948258334E-1,5.515430603E0,7.045399017E0,1.158845169E1,1.464069106E1
7.048928334E-1,4.694238281E0,1.044273422E1,1.495674728E1,1.883589287E1
7.149588334E-1,6.659800873E0,1.451860840E1,1.894550262E1,2.478053686E1
7.250258334E-1,1.225920685E1,1.625649445E1,2.477857269E1,3.207085014E1
7.350918333E-1,1.967164261E1,1.688174423E1,3.312312012E1,4.206076435E1
7.451588333E-1,2.532942719E1,1.768407578E1,4.211671783E1,5.223144971E1
7.552248333E-1,2.796813995E1,1.747017059E1,4.856201477E1,5.870002548E1
7.652918333E-1,2.738106079E1,1.614362915E1,5.092515060E1,6.003091051E1
7.753578334E-1,2.234104156E1,1.413061523E1,4.885555435E1,5.554873190E1
7.854248334E-1,1.502156250E1,1.227582230E1,4.261832474E1,4.682589835E1
7.954908333E-1,1.042851379E1,1.158605667E1,3.447091736E1,3.783166336E1
8.055578333E-1,9.726324005E0,1.229393463E1,2.664968170E1,3.091840459E1
8.156238333E-1,1.095586716E1,1.343695770E1,2.010888336E1,2.655089542E1
8.256908333E-1,1.201072357E1,1.441861633E1,1.480960327E1,2.390561287E1
8.357568334E-1,1.200623291E1,1.475541595E1,1.074241104E1,2.184654031E1
8.458238334E-1,1.091111023E1,1.395772476E1,8.152496796E0,1.950214375E1
8.558898334E-1,9.363179169E0,1.192629913E1,7.024442596E0,1.671073095E1
8.659568334E-1,7.542964325E0,9.263486481E0,6.782545624E0,1.373722744E1
8.760238333E-1,5.609734497E0,6.566544800E0,6.633455658E0,1.088996629E1
8.860898333E-1,3.683090973E0,4.023483124E0,6.259533234E0,8.302730386E0
8.961568333E-1,1.694176941E0,1.795516205E0,5.632786560E0,6.149991738E0
9.062228333E-1,-1.646575928E-3,-2.472857666E-1,4.528981934E0,4.535728201E0
9.162898334E-1,-1.150507507E0,-2.073039093E0,2.931204529E0,3.770028991E0
9.263558334E-1,-1.606459351E0,-3.163371735E0,9.930349731E-1,3.684257162E0
9.364228334E-1,-2.374961243E0,-4.634961548E0,-5.999523926E-1,5.242447170E0
9.464888333E-1,-2.897524567E0,-5.564678192E0,-2.615061951E0,6.797046491E0
9.565558333E-1,-2.732417908E0,-6.083948364E0,-4.280798035E0,7.925008968E0
9.666218333E-1,-2.372117157E0,-6.335874481E0,-5.581593018E0,8.770657094E0
9.766888333E-1,-2.896327057E0,-6.769971771E0,-6.256389771E0,9.662486283E0
9.867548334E-1,-3.465742950E0,-6.578968964E0,-7.268435211E0,1.039828626E1
9.968218334E-1,-3.132236481E0,-6.078559570E0,-8.056995392E0,1.056763770E1
1.006887833E0,-2.289938049E0,-5.601501617E0,-8.568930817E0,1.049033898E1
1.016954833E0,-1.403631134E0,-5.016518097E0,-8.888516235E0,1.030249266E1
1.027020833E0,-6.976991272E-1,-4.224964142E0,-8.842711487E0,9.825001400E0
1.037087833E0,-3.620970154E-1,-3.425027618E0,-8.682394867E0,9.340551861E0
1.047154833E0,-9.430389404E-2,-2.723885651E0,-8.413104858E0,8.843572786E0
1.057220833E0,-2.321672058E-1,-2.373164978E0,-7.714058533E0,8.074188050E0
1.067287833E0,-4.652325439E-1,-2.039359131E0,-7.004084930E0,7.309762835E0
1.077353833E0,-6.876699829E-1,-1.775158539E0,-5.995781708E0,6.290745276E0
1.087420833E0,-1.044827271E0,-1.747166748E0,-4.701872406E0,5.123656877E0
1.097486833E0,-1.534010010E0,-1.674268341E0,-3.536096649E0,4.202420814E0
1.107553833E0,-2.130519562E0,-1.672023010E0,-2.528990936E0,3.705478337E0
1.117619833E0,-2.881058807E0,-1.429377594E0,-1.703607330E0,3.639491461E0
1.127686833E0,-3.381617889E0,-9.575587463E-1,-1.136885834E0,3.693882470E0
1.137753000E0,-3.234473877E0,-5.547463989E-1,-7.948471069E-1,3.376588034E0
1.147820000E0,-2.484982452E0,-1.954934692E-1,-5.804928589E-1,2.559360749E0
1.157886000E0,-1.714534607E0,-1.694476318E-1,-3.841012573E-1,1.765184181E0
1.167953000E0,-1.712289276E0,-5.358856201E-1,8.831634521E-3,1.794209007E0
1.178019000E0,-2.514471130E0,-7.602690125E-1,7.496411133E-1,2.731764235E0
1.188086000E0,-2.899769897E0,-6.454577637E-1,2.010918274E0,3.587349089E0
1.198152000E0,-1.652862854E0,-1.571731567E-2,4.074826355E0,4.397318782E0
1.208219000E0,2.094594269E0,1.287322998E0,6.630761261E0,7.071882391E0
1.218286000E0,8.002508698E0,3.839365997E0,9.442663879E0,1.295935098E1
1.228352000E0,1.349683319E1,6.890171814E0,1.235830078E1,1.955419576E1
1.238419000E0,1.549173477E1,8.902886353E0,1.511272293E1,2.340191501E1
1.248485000E0,1.428180084E1,1.054287598E1,1.789708282E1,2.520769015E1
1.258552000E0,1.321317307E1,1.299148407E1,2.175126801E1,2.857418871E1
1.268618000E0,1.608704681E1,1.594095062E1,2.721355911E1,3.540458701E1
1.278685000E0,2.374616959E1,1.869716904E1,3.349824005E1,4.511758844E1
1.288751000E0,3.341875534E1,2.019136185E1,3.953159363E1,5.556303804E1
1.298818000E0,4.116185349E1,1.872965149E1,4.418451782E1,6.322475498E1
1.308884000E0,4.270095291E1,1.562765213E1,4.569412857E1,6.446354223E1
1.318951000E0,3.895379517E1,1.418854477E1,4.353157562E1,6.011415005E1
1.329017000E0,3.406840439E1,1.355341553E1,3.766272995E1,5.256265288E1
1.339084000E0,3.079516113E1,1.317245773E1,3.068528961E1,4.542513171E1
1.349150000E0,2.801065155E1,1.253852600E1,2.543061676E1,3.985633580E1
1.359217000E0,2.560844696E1,1.030112869E1,2.100971008E1,3.468881269E1
1.369283000E0,2.174453201E1,8.362360382E0,1.804722061E1,2.946957610E1
1.379350000E0,1.633313507E1,7.880213013E0,1.559546906E1,2.391835516E1
1.389417000E0,1.167826492E1,6.932084656E0,1.254361542E1,1.848723768E1
1.399483000E0,7.730524292E0,6.117478638E0,9.529932404E0,1.371146098E1
1.409550000E0,4.683610382E0,5.740712128E0,7.145989838E0,1.029354908E1
1.419616000E0,3.114722900E0,4.409680023E0,4.522695007E0,7.042836558E0
1.429683000E0,1.780547333E0,3.628753967E0,2.442470856E0,4.722697115E0
1.439749000E0,8.509803772E-1,2.650538177E0,9.068142700E-1,2.927769177E0
1.449816000E0,5.810916138E-1,9.846524048E-1,-3.585044861E-1,1.198220885E0
1.459882000E0,4.174818420E-1,-5.553451538E-1,-1.370250549E0,1.536322198E0
1.469949000E0,2.547702026E-1,-1.780247955E0,-2.224673767E0,2.860657968E0
1.480015000E0,6.015989685E-1,-2.605332184E0,-2.788251801E0,3.863162592E0
1.490082000E0,1.368903351E0,-3.184477844E0,-2.968926086E0,4.563914727E0
1.500148000E0,1.948498077E0,-3.591032410E0,-2.806064758E0,4.956425925E0
1.510215000E0,2.257904663E0,-3.915108490E0,-2.338736572E0,5.088801107E0
1.520281000E0,2.397115173E0,-4.079915771E0,-1.666185150E0,5.016776536E0
1.530348000E0,2.194137268E0,-4.251908112E0,-1.080153809E0,4.905068113E0
1.540414000E0,1.782493286E0,-4.350103912E0,-7.601193237E-1,4.762191486E0
1.550481000E0,1.350192261E0,-4.467609558E0,-8.834628296E-1,4.750059039E0
1.560548000E0,5.912704468E-1,-4.670886841E0,-1.387315063E0,4.908301917E0
1.570614000E0,-4.215234375E-1,-4.671186218E0,-2.130818939E0,5.151509686E0
1.580681000E0,-1.207688599E0,-4.800517273E0,-3.044219513E0,5.811260645E0
1.590747000E0,-2.090552673E0,-5.085075531E0,-4.215084686E0,6.927867100E0
1.600814000E0,-3.185525665E0,-5.194647675E0,-5.542973328E0,8.237505177E0
1.610880000E0,-4.298610992E0,-5.191803589E0,-6.506968689E0,9.368752451E0
1.620947000E0,-5.083728333E0,-5.281018066E0,-6.906637573E0,1.007149880E1
1.631013000E0,-5.343737640E0,-5.495821381E0,-6.820865936E0,1.026078928E1
1.641080000E0,-4.843328247E0,-5.467679901E0,-6.319109344E0,9.658389872E0
1.651146000E0,-4.601580963E0,-5.762117615E0,-4.759352875E0,8.776558924E0
1.661213000E0,-4.756658478E0,-5.770200806E0,-3.546275482E0,8.276296696E0
1.671279000E0,-4.086202698E0,-5.516179047E0,-2.623893585E0,7.349156503E0
1.681346000E0,-3.630999298E0,-5.473368073E0,-1.825304260E0,6.817158470E0
1.691412000E0,-3.190764771E0,-5.335804138E0,-1.507814484E0,6.397287717E0
1.701479000E0,-3.013832703E0,-5.071004791E0,-1.334774323E0,6.048131914E0
1.711545000E0,-2.787054291E0,-4.648134155E0,-1.428629150E0,5.604801869E0
1.721612000E0,-2.527494049E0,-4.362827454E0,-1.543141022E0,5.272928387E0
1.731678000E0,-2.450554047E0,-3.885170746E0,-1.522933044E0,4.839327631E0
1.741745000E0,-2.228715363E0,-3.019520874E0,-1.275946655E0,3.963927136E0
1.751812000E0,-1.616039429E0,-2.156415710E0,-9.518705750E-1,2.857931025E0
1.761878000E0,-5.224136353E-1,-1.258882141E0,-6.137237549E-1,1.494776605E0
1.771945000E0,1.038390656E0,-5.523513794E-2,-1.058299255E-1,1.045230141E0
1.782011000E0,2.905009003E0,1.861379242E0,7.806266785E-1,3.537398479E0
1.792078000E0,5.272186432E0,5.496569824E0,2.126927032E0,7.907720797E0
1.802144000E0,7.253466339E0,1.043659698E1,3.711082764E0,1.324037257E1
1.812211000E0,7.369026031E0,1.508832367E1,5.648204498E0,1.771615844E1
1.822277000E0,7.152576141E0,2.007804749E1,8.202642517E0,2.283792198E1
1.832344000E0,8.322692871E0,2.579750381E1,1.112770981E1,2.930195122E1
1.842410000E0,1.174128387E1,3.165167999E1,1.395473099E1,3.652972913E1
1.852477000E0,1.718621109E1,3.630595139E1,1.699475922E1,4.361547659E1
1.862543000E0,2.363360367E1,3.683120911E1,2.145742905E1,4.873916749E1
1.872610000E0,2.913286789E1,3.330529129E1,2.916624847E1,5.299657036E1
1.882676000E0,3.143927170E1,2.917762482E1,3.909375412E1,5.803518938E1
1.892743000E0,3.098272110E1,2.465792358E1,4.651367432E1,6.108571110E1
1.902809000E0,2.771935730E1,1.804632248E1,4.903847397E1,5.915069275E1
1.912876000E0,2.087169708E1,1.183364182E1,4.668686417E1,5.249120025E1
1.922943000E0,1.324146423E1,8.905730438E0,3.982064255E1,4.289909070E1
1.933009000E0,1.029124924E1,6.886878662E0,3.075384705E1,3.315325047E1
1.943076000E0,1.052371582E1,6.774013367E0,2.244327896E1,2.569701582E1
1.953142000E0,1.075708054E1,8.483159180E0,1.542108170E1,2.062737337E1
1.963209000E0,1.043524979E1,1.044183609E1,9.015751648E0,1.729769224E1
1.973275000E0,9.679770813E0,1.165955383E1,3.111429749E0,1.547010516E1
1.983342000E0,8.963659973E0,1.128203888E1,-1.923949127E0,1.453730311E1
1.993408000E0,8.087531891E0,9.840985565E0,-5.315147095E0,1.380231711E1
2.003475000E0,6.672225037E0,7.909102936E0,-7.035818939E0,1.251300301E1
2.013541000E0,5.487887878E0,5.530100098E0,-6.752607880E0,1.031002588E1
2.023608000E0,4.715344391E0,2.896177368E0,-4.968617706E0,7.437034220E0
2.033674000E0,3.794459381E0,4.824467468E-1,-2.677631836E0,4.669088681E0
2.043741000E0,2.722987518E0,-1.288370819E0,-5.399272156E-1,3.060405494E0
2.053807000E0,1.719773712E0,-2.581381989E0,1.151705017E0,3.308712595E0
2.063874000E0,1.032702484E0,-3.448229370E0,2.256407776E0,4.248309812E0
2.073940000E0,8.545729065E-1,-3.841162262E0,2.837649078E0,4.851502310E0
2.084007000E0,1.047222290E0,-3.855382690E0,3.001408539E0,4.996909388E0
2.094073000E0,1.321452026E0,-3.661835175E0,2.555785217E0,4.656963644E0
2.104140000E0,1.192420349E0,-3.437302094E0,1.583556976E0,3.967942120E0
2.114207000E0,9.680369568E-1,-3.316353607E0,1.487905884E-1,3.457952492E0
2.124273000E0,8.258326721E-1,-3.392395477E0,-1.568887482E0,3.827761044E0
2.134340000E0,3.483256531E-1,-3.522474976E0,-3.514541473E0,4.988102092E0
2.144407083E0,-6.860234070E-1,-3.485202484E0,-5.524411926E0,6.567830053E0
2.154474083E0,-2.061513062E0,-3.215613098E0,-7.338788910E0,8.273320154E0
2.164540083E0,-3.597169647E0,-2.810854797E0,-8.879684601E0,9.984454556E0
2.174607083E0,-4.788242798E0,-2.314636688E0,-9.783804474E0,1.113587186E1
2.184673083E0,-4.987179108E0,-2.053579559E0,-9.887389069E0,1.126275308E1
2.194740083E0,-4.167333984E0,-1.866019592E0,-9.322314148E0,1.038047411E1
2.204806083E0,-2.982996826E0,-1.620081024E0,-8.195906525E0,8.871066247E0
2.214873083E0,-1.949396210E0,-1.461261292E0,-6.734944611E0,7.162046429E0
2.224939083E0,-6.617738342E-1,-1.360071716E0,-5.273234253E0,5.485867221E0
2.235006083E0,2.415975952E-1,-1.342408447E0,-3.675756226E0,3.920664952E0
2.245072083E0,8.771759033E-1,-1.378184052E0,-2.349364471E0,2.861527960E0
2.255139083E0,1.334624634E0,-1.412163391E0,-1.128952332E0,2.247211989E0
2.265205083E0,1.420096893E0,-1.536255341E0,-1.607656860E-1,2.098237657E0
2.275272083E0,1.022224274E0,-1.906734924E0,4.896318054E-1,2.218179398E0
2.285338083E0,1.495390320E-1,-2.315235443E0,9.822573853E-1,2.519425857E0
2.295405083E0,-9.400451660E-1,-2.286944275E0,1.584604797E0,2.936796110E0
2.305471083E0,-1.634750519E0,-1.949396210E0,2.341430969E0,3.457579186E0
2.315538083E0,-1.486408997E0,-1.407373352E0,3.233276367E0,3.826772468E0
2.325605083E0,-4.090992737E-1,-4.737648010E-1,4.240980835E0,4.286925908E0
2.335671083E0,8.030799866E-1,6.565347290E-1,5.288801880E0,5.389564049E0
2.345738083E0,2.532583466E0,2.331401825E0,6.228098602E0,7.116082186E0
2.355804083E0,5.281167755E0,4.712200928E0,7.173831940E0,1.007767012E1
2.365871083E0,8.404273224E0,7.643106079E0,8.394842834E0,1.412523505E1
2.375937083E0,1.162123352E1,1.084943848E1,9.963281250E0,1.876247204E1
2.386004083E0,1.426219162E1,1.330598007E1,1.188049438E1,2.283868127E1
2.396070083E0,1.484897141E1,1.422716446E1,1.411789169E1,2.494431852E1
2.406137083E0,1.366897522E1,1.560774353E1,1.650737274E1,2.651293828E1
2.416203083E0,1.179636932E1,1.915701279E1,1.880928589E1,2.932464328E1
2.426270083E0,1.160746216E1,2.286734711E1,2.042891785E1,3.278703137E1
2.436336083E0,1.589499619E1,2.425526093E1,2.146476379E1,3.607914454E1
2.446403083E0,2.295835785E1,2.483261032E1,2.383448593E1,4.137423655E1
2.456469083E0,2.895563644E1,2.487856476E1,2.726056137E1,4.690959467E1
2.466536083E0,3.009671356E1,2.395992508E1,3.023906754E1,4.893149683E1
2.476602083E0,2.680371140E1,2.273831543E1,3.200853790E1,4.753963012E1
2.486669083E0,2.187506058E1,2.046454376E1,3.203847565E1,4.386091368E1
2.496736083E0,1.794303726E1,1.700673431E1,3.024206131E1,3.906102751E1
2.506802083E0,1.535402115E1,1.455034241E1,2.704111771E1,3.433191629E1
2.516869083E0,1.374935806E1,1.396416138E1,2.304383011E1,3.024997118E1
2.526935083E0,1.323891953E1,1.402448593E1,1.833103043E1,2.660792875E1
2.537002083E0,1.320134766E1,1.416160080E1,1.287981628E1,2.325330481E1
2.547068083E0,1.290316772E1,1.407732605E1,6.840325470E0,2.028430178E1
2.557135083E0,1.160865967E1,1.350446732E1,8.107141113E-1,1.782663384E1
2.567201083E0,9.286688232E0,1.223271194E1,-4.506229248E0,1.600587148E1
2.577268083E0,6.836882629E0,9.903256073E0,-8.293802948E0,1.461521852E1
2.587334083E0,4.766687622E0,7.080126801E0,-1.006132736E1,1.319393098E1
2.597401083E0,3.299887848E0,4.015998688E0,-9.702523499E0,1.100710986E1
2.607467083E0,2.250420227E0,1.274898834E0,-7.497458954E0,7.931055983E0
2.617534083E0,1.200802917E0,-8.190966797E-1,-4.707261200E0,4.926576400E0
2.627600083E0,9.131011963E-3,-2.493365021E0,-2.227218475E0,3.343270052E0
2.637667083E0,-1.028810577E0,-3.917353821E0,-2.591111755E-1,4.058478873E0
2.647733083E0,-1.917961578E0,-4.927004242E0,1.194665680E0,5.420440342E0
2.657800083E0,-2.786605225E0,-5.404511261E0,2.041903839E0,6.414302919E0
2.667866083E0,-3.543730774E0,-5.426365814E0,2.236050110E0,6.855902117E0
2.677933083E0,-4.019291840E0,-5.288652191E0,1.782193909E0,6.877555090E0
2.688000083E0,-4.170327759E0,-5.191653900E0,7.226971436E-1,6.698297918E0
2.698066083E0,-3.992647247E0,-5.010979614E0,-6.539900208E-1,6.440407726E0
2.708133083E0,-3.576662292E0,-4.770729218E0,-2.021995239E0,6.296096820E0
2.718199083E0,-3.093916168E0,-4.711003418E0,-3.416046295E0,6.590541916E0
2.728266083E0,-2.826572113E0,-4.485871582E0,-4.833299103E0,7.174491897E0
2.738332083E0,-2.884351959E0,-3.948938141E0,-6.150559845E0,7.857670461E0
2.748399083E0,-3.039579163E0,-3.278482361E0,-7.202272797E0,8.477040846E0
2.758465083E0,-2.773881683E0,-2.802621918E0,-7.781119080E0,8.723240415E0
2.768532083E0,-2.904859314E0,-2.860252075E0,-7.568261719E0,8.596384997E0
2.778598083E0,-1.672472076E0,-2.326013031E0,-7.316784668E0,7.857661061E0
2.788665083E0,-4.927752686E-1,-2.160606995E0,-5.598507843E0,6.021157706E0
2.798731083E0,2.549198914E-1,-2.203417969E0,-3.814367981E0,4.412418610E0
2.808798083E0,3.614982605E-1,-2.098186798E0,-2.021695862E0,2.936038656E0
2.818864083E0,3.077600098E-1,-1.858984222E0,-2.341131592E-1,1.898775272E0
2.828931083E0,4.486170959E-1,-1.685644684E0,1.453627167E0,2.270613846E0
2.838997083E0,7.508386230E-1,-1.527274017E0,3.052751770E0,3.495084825E0
2.849064083E0,8.994795227E-1,-1.379082184E0,4.343218231E0,4.644833225E0
2.859130083E0,6.375242615E-1,-1.239721985E0,5.132526855E0,5.318475318E0
2.869197083E0,1.857637024E-1,-9.671388245E-1,5.474116516E0,5.561997599E0
2.879263083E0,-1.661544800E-2,-4.073030090E-1,5.656736755E0,5.671405693E0
2.889330083E0,9.849517822E-2,2.537223816E-1,5.797893219E0,5.804277916E0
2.899397083E0,3.546125793E-1,9.421408081E-1,5.747747498E0,5.835236129E0
2.909463083E0,1.122515717E0,2.081122284E0,5.668412476E0,6.141824769E0
2.919530083E0,2.523153076E0,3.702550507E0,5.932014313E0,7.433974409E0
2.929596083E0,4.304748230E0,5.415139160E0,6.673871613E0,9.612239684E0
2.939663083E0,6.067332916E0,7.216044159E0,7.821535034E0,1.224990744E1
2.949729083E0,7.853718109E0,9.183103638E0,8.949439545E0,1.503671336E1
2.959796083E0,9.022337952E0,1.115734818E1,9.966275024E0,1.747042181E1
2.969862083E0,9.762249298E0,1.291933411E1,1.081755478E1,1.947383364E1
2.979929083E0,1.044662613E1,1.451262085E1,1.164263901E1,2.133774132E1
2.989995083E0,1.125988495E1,1.658640839E1,1.302920563E1,2.390929007E1
3.000062083E0,1.261651382E1,1.933379517E1,1.542467422E1,2.776495330E1
3.010128083E0,1.467832626E1,2.099893250E1,1.865016678E1,3.168970099E1
3.020195083E0,1.785412216E1,2.099938156E1,2.247157013E1,3.556283409E1
3.030261083E0,2.147135010E1,2.072260712E1,2.707569580E1,4.029315852E1
3.040328083E0,2.475222748E1,2.057157120E1,3.141771652E1,4.497705213E1
3.050394083E0,2.700219864E1,1.965667374E1,3.395000061E1,4.762463748E1
3.060461083E0,2.724978378E1,1.816846848E1,3.404250824E1,4.723913981E1
3.070528083E0,2.422876602E1,1.541973450E1,3.230492157E1,4.322510003E1
3.080594083E0,1.924308380E1,1.237731125E1,2.969449997E1,3.748676348E1
3.090661083E0,1.424512711E1,1.044408142E1,2.646511551E1,3.181830954E1
3.100727083E0,1.099643280E1,9.660011902E0,2.270044418E1,2.701013755E1
3.110794083E0,9.546996918E0,9.653425598E0,1.835408249E1,2.282993911E1
3.120860083E0,9.299860840E0,1.029469208E1,1.331406326E1,1.922842628E1
3.130927083E0,9.528734894E0,1.092128906E1,7.549999695E0,1.634239391E1
3.140992583E0,9.039402466E0,1.136691238E1,1.712139587E0,1.462357398E1
3.151059583E0,7.244335327E0,1.140942398E1,-3.570525055E0,1.397869805E1
3.161125583E0,4.900209961E0,1.024754013E1,-7.572453003E0,1.365159994E1
3.171192583E0,2.637215881E0,8.067323914E0,-9.710007935E0,1.289654515E1
3.181258583E0,3.956272888E-1,5.199886780E0,-9.563013611E0,1.089250076E1
3.191325583E0,-1.407672729E0,2.737806702E0,-6.917864227E0,7.571920068E0
3.201391583E0,-2.717299347E0,1.020877075E0,-2.993475037E0,4.169748019E0
3.211458583E0,-3.602408752E0,-3.679348755E-1,4.995112610E-1,3.655439289E0
3.221524583E0,-4.109703827E0,-1.365610199E0,3.120111694E0,5.337570023E0
3.231591583E0,-4.044289856E0,-1.976639557E0,4.810247040E0,6.588008877E0
3.241657583E0,-3.420237579E0,-2.457140350E0,5.521268463E0,6.944059997E0
3.251724583E0,-2.482737122E0,-2.798580322E0,5.495971069E0,6.648438420E0
3.261791583E0,-1.490899658E0,-2.797682190E0,4.954397278E0,5.881824531E0
3.271857583E0,-7.309300232E-1,-2.602488098E0,3.963158569E0,4.797273063E0
3.281924583E0,-3.514691162E-1,-2.523751831E0,2.591710510E0,3.634531223E0
3.291990583E0,-2.005828857E-1,-2.457888794E0,1.041683807E0,2.677042393E0
3.302057583E0,-9.984237671E-2,-2.356100464E0,-5.125341797E-1,2.413269397E0
3.312123583E0,-1.203497314E-1,-2.354004822E0,-2.020049286E0,3.104258668E0
3.322190583E0,-2.917433167E-1,-2.317929840E0,-3.565884705E0,4.263032563E0
3.332256583E0,-5.722599792E-1,-2.241438904E0,-5.022655334E0,5.529791719E0
3.342323583E0,-8.810678101E-1,-2.177970886E0,-6.205046539E0,6.634940860E0
3.352389583E0,-1.041384430E0,-2.124082947E0,-6.768474884E0,7.169969467E0
3.362456583E0,-1.151106262E0,-1.988914032E0,-6.549330597E0,6.940789287E0
3.372522583E0,-1.151106262E0,-1.889071655E0,-5.763464813E0,6.173424009E0
3.382589583E0,-7.536827087E-1,-1.926493835E0,-4.447850647E0,4.905383930E0
3.392655583E0,1.356179810E-1,-1.910926208E0,-2.800825653E0,3.393325147E0
3.402722583E0,9.755213928E-1,-1.730551300E0,-1.103804626E0,2.272627212E0
3.412788583E0,1.520687714E0,-1.493144989E0,4.411326599E-1,2.176366491E0
3.422855583E0,1.875749359E0,-1.213376770E0,1.818418579E0,2.880514706E0
3.432921583E0,2.084565125E0,-7.066804504E-1,3.191812592E0,3.877173795E0
3.442988583E0,2.096689911E0,-1.167572021E-1,4.511767731E0,4.976523775E0
3.453055583E0,2.081122284E0,4.704716492E-1,5.736969910E0,6.120885334E0
3.463121583E0,2.050585785E0,9.409432983E-1,6.604416046E0,6.979153793E0
3.473188583E0,2.103874969E0,1.376687164E0,6.940916290E0,7.382267699E0
3.483254583E0,2.834355927E0,2.103575592E0,7.057972870E0,7.891361405E0
3.493321583E0,4.256997528E0,3.302282867E0,7.223378906E0,9.011343014E0
3.503387583E0,5.760770416E0,4.802313538E0,7.223079529E0,1.041256784E1
3.513454583E0,7.528594208E0,6.798712006E0,6.810238037E0,1.221808323E1
3.523520583E0,1.008512787E1,9.365574188E0,6.059249725E0,1.503789517E1
3.533587583E0,1.376747040E1,1.223480759E1,5.209466858E0,1.914085429E1
3.543653583E0,1.832474350E1,1.530612076E1,4.284091187E0,2.425751418E1
3.553720583E0,2.251677612E1,1.708307556E1,4.043990479E0,2.855154176E1
3.563786583E0,2.274699738E1,1.632759659E1,4.219874725E0,2.831649065E1
3.573853583E0,1.849658615E1,1.616114273E1,4.848866730E0,2.503632845E1
3.583919583E0,1.415800827E1,1.849583771E1,6.604266357E0,2.421077332E1
3.593986583E0,1.354024292E1,2.008283752E1,8.971892853E0,2.582931286E1
3.604052583E0,1.681168991E1,1.956341766E1,1.061592407E1,2.789369234E1
3.614119583E0,2.048879333E1,1.886332352E1,1.180550034E1,3.024872666E1
3.624185583E0,2.211411346E1,1.827429840E1,1.263417709E1,3.134655367E1
3.634252583E0,2.229912872E1,1.755070313E1,1.335163513E1,3.136151276E1
3.644319583E0,2.276241531E1,1.726868958E1,1.388692200E1,3.176762177E1
3.654385583E0,2.412667831E1,1.708292587E1,1.372915009E1,3.259467019E1
3.664452583E0,2.490116776E1,1.623284363E1,1.300121384E1,3.244387352E1
3.674518583E0,2.332599335E1,1.447534836E1,1.209739334E1,2.999974336E1
3.684585583E0,1.995051270E1,1.251382736E1,1.183259399E1,2.635581744E1
3.694651583E0,1.598495911E1,1.094583801E1,1.227552292E1,2.293509866E1
3.704718583E0,1.227417572E1,1.021146515E1,1.267893402E1,2.038834908E1
3.714784583E0,9.374256134E0,9.886640625E0,1.237656281E1,1.840656534E1
3.724851583E0,7.696395264E0,9.916278992E0,1.090227859E1,1.662608696E1
3.734917583E0,7.116351471E0,9.989476776E0,8.714128876E0,1.504553577E1
3.744984583E0,7.105274506E0,9.725276184E0,6.432274017E0,1.365430598E1
3.755050583E0,7.448211365E0,8.792565765E0,4.594545593E0,1.240543891E1
3.765117583E0,7.707621918E0,7.222181396E0,2.961591339E0,1.096988437E1
3.775183583E0,7.079827423E0,5.208868103E0,1.411714325E0,8.902202008E0
3.785250583E0,5.484594727E0,3.110980682E0,3.341052246E-1,6.314317574E0
3.795316583E0,3.923491058E0,1.445693665E0,-1.803749084E-1,4.185253560E0
3.805383583E0,2.745590515E0,2.893482971E-1,-3.335064697E-1,2.780866102E0
3.815449583E0,1.428479462E0,-7.207511902E-1,-7.114704895E-1,1.751064279E0
3.825516583E0,-2.929408264E-1,-1.801803131E0,-1.747765503E0,2.527250107E0
3.835583583E0,-2.257904663E0,-2.939437408E0,-3.514242096E0,5.107672978E0
3.845649583E0,-4.659510498E0,-3.890709229E0,-4.987927551E0,7.856721812E0
3.855716583E0,-6.283932495E0,-4.661905518E0,-5.797743530E0,9.738326381E0
3.865782583E0,-6.882088623E0,-5.172493744E0,-6.056255951E0,1.052597128E1
3.875849583E0,-6.762936401E0,-5.580096130E0,-6.167175293E0,1.071955375E1
3.885915583E0,-6.584657135E0,-5.783074036E0,-5.796246643E0,1.050705144E1
3.895982583E0,-6.747967529E0,-5.572462006E0,-5.084776154E0,1.012138069E1
3.906048583E0,-6.891069946E0,-5.241649933E0,-4.483027496E0,9.749834591E0
3.916115583E0,-6.762187958E0,-5.059628448E0,-4.101321259E0,9.388709287E0
3.926181583E0,-6.259982300E0,-4.902155914E0,-3.917503510E0,8.863709424E0
3.936248583E0,-5.032684479E0,-4.718936920E0,-3.675157471E0,7.816844706E0
3.946314583E0,-3.378624115E0,-4.580025787E0,-3.263363800E0,6.560585371E0
3.956381583E0,-2.056124268E0,-4.538412323E0,-2.868634644E0,5.749251963E0
3.966447583E0,-1.166374512E0,-4.485572205E0,-2.616858215E0,5.322474464E0
3.976514583E0,-6.521937561E-1,-4.760999451E0,-2.518213348E0,5.425299156E0
3.986580583E0,-5.242098999E-1,-5.378615112E0,-2.300565948E0,5.873406186E0
3.996647583E0,-5.324427795E-1,-6.092480621E0,-1.813778229E0,6.378997327E0
4.006713583E0,-6.478527832E-1,-6.611750793E0,-9.907896423E-1,6.716891089E0
4.016780583E0,-1.311722260E0,-6.902745667E0,-2.435435486E-1,7.030492620E0
4.026846583E0,-2.392025757E0,-7.235054626E0,1.323248291E-1,7.621372090E0
4.036913583E0,-2.723885651E0,-7.383096771E0,1.493893433E-1,7.870958528E0
4.046979583E0,-2.479743347E0,-7.323071594E0,-1.122665405E-1,7.732341716E0
4.057046583E0,-2.869083710E0,-6.846013641E0,-3.493734741E-1,7.431124137E0
4.067113583E0,-1.729503479E0,-4.491859131E0,-6.240522766E-1,4.853598869E0
4.077179583E0,4.043691101E0,3.376977539E-1,-8.146060181E-1,4.138726913E0
4.087246583E0,1.164892593E1,5.168152771E0,1.716630249E0,1.285900843E1
4.097312583E0,1.709729599E1,1.044108765E1,6.934629364E0,2.119959730E1
4.107379583E0,2.016950729E1,1.442759766E1,1.503997421E1,2.900285198E1
4.117445583E0,1.981968475E1,1.521017029E1,2.368988663E1,3.442934667E1
4.127512583E0,1.679642166E1,1.493309647E1,2.925336731E1,3.689006166E1
4.137578583E0,1.485001923E1,1.571087906E1,3.067316483E1,3.752596211E1
4.147645250E0,1.589110428E1,1.718636078E1,2.866539001E1,3.700814473E1
4.157711250E0,1.852817047E1,1.817400696E1,2.531715271E1,3.625666630E1
4.167778250E0,2.136372391E1,1.848700607E1,2.232622238E1,3.600886417E1
4.177844250E0,2.313648743E1,1.827893875E1,1.950758377E1,3.535480840E1
4.187911250E0,2.278636551E1,1.756237885E1,1.667996384E1,3.325472594E1
4.197977250E0,2.122316620E1,1.728126343E1,1.446606766E1,3.095693723E1
4.208044250E0,2.004346939E1,1.687890015E1,1.343351486E1,2.944651519E1
4.218110250E0,1.947989136E1,1.587478821E1,1.356254654E1,2.855552025E1
4.228177250E0,1.871034164E1,1.516122208E1,1.491558289E1,2.832691568E1
4.238243250E0,1.749247421E1,1.513846939E1,1.687665482E1,2.863531713E1
4.248310250E0,1.638582550E1,1.510823227E1,1.903187302E1,2.930812430E1
4.258377250E0,1.571596848E1,1.492441452E1,2.145503403E1,3.049669325E1
4.268443250E0,1.567615128E1,1.427252014E1,2.372162064E1,3.181449097E1
4.278510250E0,1.588167389E1,1.334220474E1,2.551324493E1,3.288111403E1
4.288576250E0,1.528815811E1,1.201491486E1,2.610062347E1,3.254732713E1
4.298643250E0,1.349803070E1,1.039004379E1,2.525293625E1,3.046080485E1
4.308709250E0,1.103071152E1,8.609795837E0,2.342478790E1,2.728600134E1
4.318776250E0,9.109157410E0,6.816824341E0,2.097363510E1,2.386083008E1
4.328842250E0,7.960296478E0,4.920268250E0,1.804931625E1,2.033108893E1
4.338909250E0,6.712790680E0,3.564387817E0,1.485465958E1,1.668614187E1
4.348975250E0,5.711373138E0,3.634292450E0,1.108280319E1,1.298677756E1
4.359042250E0,5.043312378E0,4.174668732E0,7.444918213E0,9.914114482E0
4.369108250E0,4.807253265E0,3.598217468E0,4.225113831E0,7.342236702E0
4.379175250E0,4.389472046E0,2.192191315E0,1.628912659E0,5.169770213E0
4.389241250E0,3.379971313E0,1.668580170E0,5.336402893E-1,3.806985398E0
4.399308250E0,1.997446289E0,3.251239014E-1,3.073109436E-1,2.046933620E0
4.409374250E0,6.408174133E-1,-1.345551910E0,1.618135071E-1,1.499113242E0
4.419441250E0,9.774673462E-2,-2.648442535E0,-1.031504974E0,2.843906609E0
4.429507250E0,2.275268555E-2,-3.801195374E0,-3.365152130E0,5.076795526E0
4.439574250E0,-3.719764709E-1,-4.466861115E0,-5.923182678E0,7.428008330E0
4.449640250E0,-1.236279144E0,-4.886588287E0,-8.550219727E0,9.925391105E0
4.459707250E0,-2.497855682E0,-5.266198883E0,-1.041773621E1,1.193739341E1
4.469774250E0,-2.920127563E0,-5.397326202E0,-1.133517838E1,1.288970690E1
4.479840250E0,-2.757565613E0,-5.447022858E0,-1.126287872E1,1.281119289E1
4.489907250E0,-2.481689301E0,-5.746400299E0,-1.150537445E1,1.309784484E1
4.499973250E0,-3.902384949E0,-7.243437195E0,-1.080587906E1,1.358171613E1
4.510040250E0,-6.100264435E0,-6.965165863E0,-8.552015991E0,1.260411596E1
4.520106250E0,-6.653064880E0,-5.892646179E0,-7.439379730E0,1.159012175E1
4.530173250E0,-4.845423889E0,-5.481750641E0,-5.899382172E0,9.398427143E0
4.540239250E0,-2.337089996E0,-5.175637207E0,-2.585273895E0,6.239619481E0
4.550306250E0,-4.584965515E-1,-4.578079834E0,5.436694336E-1,4.632991529E0
4.560372250E0,8.415499878E-1,-3.826043701E0,3.090173950E0,4.989588343E0
4.570439250E0,1.644180908E0,-3.207679596E0,4.601281586E0,5.845026217E0
4.580505250E0,1.656904449E0,-2.648143158E0,4.794679413E0,5.722494667E0
4.590572250E0,1.019380188E0,-2.000589752E0,3.965852966E0,4.557355053E0
4.600638250E0,-5.718109131E-2,-1.736987915E0,2.760709076E0,3.262194246E0
4.610705250E0,-1.153351593E0,-1.645378418E0,1.573078766E0,2.551875161E0
4.620771250E0,-1.797611847E0,-1.335672455E0,6.149212646E-1,2.322403372E0
4.630838250E0,-1.610950012E0,-8.217910767E-1,-3.397933960E-2,1.808771713E0
4.640904250E0,-7.722441101E-1,-3.534150696E-1,-3.513194275E-1,9.190693756E-1
4.650971250E0,3.152444458E-1,5.897735596E-2,-3.582051086E-1,4.807996350E-1
4.661037250E0,1.894011383E0,9.419911194E-1,-9.340576172E-2,2.117392506E0
4.671104250E0,3.072211304E0,2.204016724E0,4.287084961E-1,3.805254655E0
4.681171250E0,3.561094666E0,3.432661743E0,1.041234741E0,5.054575318E0
4.691237250E0,4.049528961E0,4.805756378E0,1.560055847E0,6.475164355E0
4.701304250E0,3.812122650E0,6.330635376E0,2.163600769E0,7.700025432E0
4.711370250E0,3.254981232E0,8.841214600E0,2.988984375E0,9.884128996E0
4.721437250E0,3.791764984E0,1.348410965E1,4.164040833E0,1.461293710E1
4.731503250E0,6.396049347E0,1.970726852E1,6.734196167E0,2.178612581E1
4.741570250E0,1.071007828E1,2.583597382E1,1.101544327E1,3.005899716E1
4.751636250E0,1.683489166E1,3.029041077E1,1.665691177E1,3.844964592E1
4.761703250E0,2.345068405E1,3.146696411E1,2.257111313E1,4.527206159E1
4.771769250E0,2.539888275E1,2.931803284E1,2.567790253E1,4.651886685E1
4.781836250E0,2.275657745E1,2.858725250E1,2.804567871E1,4.606140377E1
4.791902250E0,1.980426682E1,2.861614243E1,2.917433167E1,4.541182907E1
4.801969250E0,1.861663651E1,2.789030182E1,2.811962494E1,4.376255702E1
4.812035250E0,1.848041977E1,2.731834122E1,2.612262772E1,4.207385602E1
4.822102250E0,1.788600586E1,2.553255478E1,2.333587280E1,3.894076936E1
4.832168250E0,1.776580582E1,2.322809692E1,1.962464035E1,3.521782009E1
4.842235250E0,1.662158524E1,2.081376755E1,1.515254013E1,3.064456702E1
4.852301250E0,1.401041519E1,1.924308380E1,1.042537033E1,2.598608002E1
4.862368250E0,1.108160568E1,1.862427063E1,5.943240967E0,2.247192814E1
4.872435250E0,9.088200989E0,1.825169540E1,2.199675751E0,2.050751949E1
4.882501250E0,8.479117584E0,1.731479370E1,-4.450245667E-1,1.928459392E1
4.892568250E0,8.100854187E0,1.548065781E1,-1.805545349E0,1.756515297E1
4.902634250E0,7.197931824E0,1.300076477E1,-2.029479675E0,1.499829640E1
4.912701250E0,5.802683258E0,1.043704605E1,-1.524130554E0,1.203852305E1
4.922767250E0,4.019591217E0,8.037086792E0,-4.269122314E-1,8.996339906E0
4.932834250E0,2.296973419E0,5.653144226E0,1.065035248E0,6.194225263E0
4.942900250E0,9.807604980E-1,3.139870605E0,2.471061401E0,4.114222043E0
4.952967250E0,-3.297642517E-1,9.404942322E-1,3.407963104E0,3.550702238E0
4.963033250E0,-1.518292694E0,-9.089099121E-1,3.813769226E0,4.204303229E0
4.973100250E0,-2.219584351E0,-2.505190430E0,3.692820740E0,4.983920023E0
4.983166250E0,-2.553539886E0,-3.678001556E0,3.244203644E0,5.529296400E0
4.993233250E0,-2.559377747E0,-4.310286713E0,2.546803894E0,5.622739196E0
5.003299250E0,-2.150428162E0,-4.529431000E0,1.668131104E0,5.284197937E0
5.013366250E0,-1.651665344E0,-4.692292328E0,5.718109131E-1,5.007252083E0
5.023432250E0,-1.272354126E0,-5.104385376E0,-6.662644958E-1,5.302597804E0
5.033499250E0,-1.342109070E0,-5.503754883E0,-1.961071930E0,5.994862607E0
5.043565250E0,-1.761237488E0,-5.307662659E0,-3.203488312E0,6.444810141E0
5.053632250E0,-2.351310425E0,-4.897665253E0,-4.419858856E0,7.003637480E0
5.063698250E0,-3.147055664E0,-4.743186493E0,-5.577551422E0,7.969369945E0
5.073765250E0,-3.680246887E0,-4.406087494E0,-6.291865997E0,8.517358856E0
5.083832250E0,-3.442840576E0,-3.972588959E0,-6.586303711E0,8.426981123E0
5.093898250E0,-2.772684174E0,-3.938010864E0,-6.567293243E0,8.144019133E0
5.103965250E0,-2.437381439E0,-4.243525543E0,-6.046975250E0,7.779090371E0
5.114031250E0,-2.402204590E0,-4.426145782E0,-4.885989532E0,7.016711986E0
5.124098250E0,-2.542612610E0,-4.692891083E0,-3.096460876E0,6.170589563E0
5.134164250E0,-2.804418182E0,-5.279970245E0,-1.078058167E0,6.074953213E0
5.144231833E0,-3.118914185E0,-5.670807495E0,6.839277649E-1,6.507952099E0
5.154297833E0,-3.408112793E0,-5.752088470E0,2.105671234E0,7.009679445E0
5.164364833E0,-3.429518280E0,-5.734425201E0,2.975362701E0,7.314233468E0
5.174430833E0,-3.242407379E0,-5.596262512E0,3.214864655E0,7.222652869E0
5.184497833E0,-2.926863556E0,-5.213358765E0,2.897374878E0,6.643825785E0
5.194563833E0,-2.443967743E0,-4.592749329E0,2.091600494E0,5.607237943E0
5.204630833E0,-2.127076721E0,-4.082759857E0,1.316362610E0,4.788130528E0
5.214696833E0,-1.938768311E0,-3.601959686E0,9.837542725E-1,4.207221008E0
5.224763833E0,-1.722318420E0,-3.120411072E0,1.106798401E0,3.732070297E0
5.234829833E0,-1.562151489E0,-2.840193787E0,1.733994141E0,3.676105779E0
5.244896833E0,-1.084045715E0,-2.232756958E0,2.246977386E0,3.348024212E0
5.254962833E0,2.109114075E-1,-9.442364502E-1,2.581531677E0,2.756877200E0
5.265029833E0,2.347568207E0,1.133143616E0,3.186573486E0,4.116957800E0
5.275096833E0,5.088668060E0,4.130211182E0,3.770209808E0,7.560930434E0
5.285162833E0,7.199129333E0,8.001311188E0,3.858226776E0,1.143391262E1
5.295229833E0,8.163424072E0,1.219005066E1,3.334465942E0,1.504518165E1
5.305295833E0,9.042994995E0,1.675016785E1,3.259322205E0,1.931235518E1
5.315362833E0,1.141810593E1,2.167552551E1,4.523443451E0,2.491311080E1
5.325428833E0,1.503623199E1,2.599763763E1,7.766000519E0,3.102057703E1
5.335495833E0,1.836845261E1,2.915427338E1,1.255109985E1,3.667290300E1
5.345561833E0,2.008119095E1,3.082105728E1,1.781475403E1,4.087245115E1
5.355628833E0,2.005933640E1,3.094440079E1,2.205214233E1,4.296777744E1
5.365694833E0,1.840617416E1,3.050446564E1,2.465358261E1,4.332561375E1
5.375761833E0,1.611863113E1,3.017604858E1,2.551983124E1,4.268097895E1
5.385827833E0,1.531330582E1,2.965617966E1,2.473022324E1,4.153998397E1
5.395894833E0,1.644585068E1,2.848007538E1,2.338167755E1,4.035199553E1
5.405960833E0,1.764830017E1,2.681778214E1,2.191173431E1,3.886875401E1
5.416027833E0,1.796923279E1,2.504097702E1,1.955099350E1,3.649911237E1
5.426093833E0,1.657697800E1,2.319262070E1,1.630140106E1,3.283945083E1
5.436160833E0,1.400831955E1,2.220302856E1,1.304327637E1,2.931440861E1
5.446226833E0,1.205263641E1,2.180725159E1,9.674980774E0,2.672877699E1
5.456293833E0,1.078701828E1,2.162852325E1,5.796396332E0,2.485459700E1
5.466359833E0,1.012269974E1,2.115131561E1,2.694247284E0,2.360309663E1
5.476426833E0,9.814041595E0,1.984213806E1,1.317410431E0,2.217569448E1
5.486493833E0,9.528734894E0,1.761237488E1,1.372346191E0,2.007176802E1
5.496559833E0,8.803942108E0,1.483085907E1,1.784888306E0,1.733925038E1
5.506626833E0,7.252717896E0,1.164787811E1,2.133812714E0,1.388625717E1
5.516692833E0,5.350922699E0,8.323890381E0,2.548001404E0,1.021821100E1
5.526759833E0,3.647914124E0,5.196893005E0,2.638862457E0,6.875941349E0
5.536825833E0,2.288441162E0,2.461181946E0,2.433190155E0,4.149071445E0
5.546892833E0,1.024170227E0,1.821711731E-1,2.222877502E0,2.454240286E0
5.556958833E0,-4.939727783E-3,-1.799408112E0,2.128723297E0,2.787356602E0
5.567025833E0,-7.313790894E-1,-3.431015167E0,2.101779327E0,4.089530143E0
5.577091833E0,-1.452279968E0,-4.702022095E0,1.787433014E0,5.235746906E0
5.587158833E0,-2.182760925E0,-5.676944733E0,1.027014313E0,6.168217340E0
5.597224833E0,-2.556833038E0,-6.352190552E0,-2.592608643E-1,6.852367196E0
5.607291833E0,-2.658471680E0,-6.832841034E0,-2.110311584E0,7.629456288E0
5.617357833E0,-2.540516968E0,-7.150181122E0,-3.906426544E0,8.534605139E0
5.627424833E0,-2.492616577E0,-7.233707428E0,-5.431305542E0,9.382896165E0
5.637490833E0,-2.693648529E0,-6.936275940E0,-6.800807648E0,1.008060767E1
5.647557833E0,-2.870580597E0,-6.497089233E0,-8.002209320E0,1.069989512E1
5.657623833E0,-2.895728302E0,-6.088139648E0,-8.639733582E0,1.095881760E1
5.667690833E0,-2.874472504E0,-5.542224884E0,-8.539142761E0,1.057808149E1
5.677756833E0,-2.516117706E0,-4.970863037E0,-7.998766479E0,9.747850678E0
5.687823833E0,-1.981728973E0,-4.513264618E0,-7.368127899E0,8.864881047E0
5.697889833E0,-1.304686890E0,-4.032464447E0,-6.343957672E0,7.629467632E0
5.707956833E0,-5.815406799E-1,-3.446882172E0,-4.890180817E0,6.011077664E0
5.718023833E0,-6.481521606E-2,-2.780168610E0,-3.380270691E0,4.377187277E0
5.728089833E0,3.062631226E-1,-1.872755585E0,-2.459834747E0,3.106734228E0
5.738156833E0,6.147715759E-1,-1.215622101E0,-1.913021851E0,2.348474778E0
5.748222833E0,9.678872681E-1,-5.013075256E-1,-4.339476013E-1,1.173211626E0
5.758289833E0,1.901046753E0,4.011657715E-1,1.786834259E0,2.639638120E0
5.768355833E0,3.018023987E0,1.358125763E0,3.819906464E0,5.054172510E0
5.778422833E0,4.347259827E0,2.917133789E0,5.607339478E0,7.671414052E0
5.788488833E0,5.995182953E0,4.796924744E0,7.270081787E0,1.057387322E1
5.798555833E0,7.463778992E0,6.459816742E0,9.044940948E0,1.338836009E1
5.808621833E0,8.631800079E0,7.438331909E0,1.073687256E1,1.565621878E1
5.818688833E0,8.563542023E0,7.815846863E0,1.233899094E1,1.693140312E1
5.828754833E0,7.285649414E0,7.993078308E0,1.329041245E1,1.713490739E1
5.838821833E0,5.755381622E0,8.375982056E0,1.310060715E1,1.658033174E1
5.848887833E0,4.392166443E0,8.524622955E0,1.164802780E1,1.508763978E1
5.858954833E0,3.790717163E0,9.042396240E0,9.774673462E0,1.384480797E1
5.869020833E0,4.508474579E0,1.048779053E1,7.468119965E0,1.364158748E1
5.879087833E0,6.841373291E0,1.190713898E1,5.321583710E0,1.472764748E1
5.889153833E0,9.633816376E0,1.329101120E1,4.237537994E0,1.695341042E1
5.899220833E0,1.177900543E1,1.518098099E1,4.120331726E0,1.965157211E1
5.909286833E0,1.211550568E1,1.658431274E1,4.478836212E0,2.102105803E1
5.919353833E0,1.162003601E1,1.749277359E1,5.684728546E0,2.175634398E1
5.929420833E0,1.109941864E1,1.814391953E1,7.765401764E0,2.264288794E1
5.939486833E0,1.098864899E1,1.824600723E1,1.008662476E1,2.356707842E1
5.949553833E0,1.030636780E1,1.791190201E1,1.184232376E1,2.381802013E1
5.959619833E0,8.089178467E0,1.811547867E1,1.284254379E1,2.363337273E1
5.969686833E0,6.937323761E0,1.863714386E1,1.389290955E1,2.425865882E1
5.979752833E0,7.386090546E0,1.946462311E1,1.537797134E1,2.588257887E1
5.989819833E0,8.946745148E0,2.094055389E1,1.787882080E1,2.895174052E1
5.999885833E0,1.204380478E1,2.178734299E1,2.142120438E1,3.284219154E1
6.009952833E0,1.388976608E1,2.147569107E1,2.364258499E1,3.482962437E1
6.020018833E0,1.201835770E1,2.099983063E1,2.210483276E1,3.277281556E1
6.030085833E0,8.814420319E0,2.140982803E1,1.737242386E1,2.894608527E1
6.040151833E0,7.579488373E0,2.254237289E1,1.185175415E1,2.657200211E1
6.050218833E0,8.194259949E0,2.341685440E1,6.201603699E0,2.557254103E1
6.060284833E0,9.163494415E0,2.370201141E1,1.243913269E0,2.544213621E1
6.070351833E0,9.104217682E0,2.291105621E1,-2.416574707E0,2.477182088E1
6.080417833E0,7.303612061E0,2.046888474E1,-4.719835052E0,2.223948818E1
6.090484833E0,5.192552032E0,1.673609711E1,-5.141059113E0,1.826170944E1
6.100550833E0,3.682043152E0,1.277398636E1,-3.904630280E0,1.385562366E1
6.110617833E0,2.702031097E0,8.716224518E0,-1.781295776E0,9.297664037E0
6.120684833E0,1.594933319E0,4.922513580E0,7.746391296E-1,5.232114106E0
6.130750833E0,3.844006348E-1,2.120191040E0,3.363655243E0,3.994640220E0
6.140817833E0,7.050338745E-2,-2.537223816E-1,5.145849152E0,5.152582776E0
6.150883833E0,1.392105103E-1,-2.363884277E0,5.842799835E0,6.304414196E0
6.160950833E0,1.181044006E-1,-3.988306274E0,5.325176239E0,6.654174447E0
6.171016833E0,-1.883084106E-1,-5.203479309E0,3.967050476E0,6.545925943E0
6.181083833E0,-7.791297913E-1,-6.259982300E0,1.693129120E0,6.531547125E0
6.191149833E0,-1.321751404E0,-7.392527161E0,-1.144519958E0,7.596473559E0
6.201216833E0,-1.704804840E0,-8.487949219E0,-4.125121765E0,9.590008919E0
6.211282833E0,-2.321372681E0,-9.244326324E0,-7.259453888E0,1.198106886E1
6.221349833E0,-3.271446991E0,-9.342222748E0,-1.013557297E1,1.416719205E1
6.231415833E0,-4.351600800E0,-8.868907013E0,-1.232342331E1,1.579432503E1
6.241482833E0,-5.236111450E0,-8.224796448E0,-1.332154770E1,1.650841521E1
6.251548833E0,-5.369933167E0,-7.726333008E0,-1.294792465E1,1.600566015E1
6.261615833E0,-4.616699524E0,-7.583529968E0,-1.106244553E1,1.418455295E1
6.271681833E0,-3.432961121E0,-7.879614258E0,-8.489446106E0,1.208073831E1
6.281748833E0,-2.678380280E0,-8.239915009E0,-5.420378265E0,1.022009886E1
6.291814833E0,-2.390229492E0,-8.363557892E0,-2.261347504E0,8.987546393E0
6.301881833E0,-2.163600769E0,-8.677604828E0,1.731898499E-1,8.944942066E0
6.311947833E0,-2.242935791E0,-9.527687073E0,1.660646667E0,9.928007316E0
6.322014833E0,-3.340154114E0,-1.023631348E1,2.524500275E0,1.105946856E1
6.332080833E0,-5.197641449E0,-1.027253815E1,3.245850220E0,1.196144056E1
6.342147833E0,-6.405030670E0,-9.905800781E0,3.458408203E0,1.229267645E1
6.352214833E0,-6.258186035E0,-9.262588348E0,2.993475037E0,1.157243830E1
6.362280833E0,-5.326523438E0,-8.688981171E0,2.119292908E0,1.040969011E1
6.372347833E0,-4.027225342E0,-8.190068665E0,1.889820099E0,9.320256900E0
6.382413833E0,-2.520907745E0,-7.460186462E0,3.501219177E0,8.617882202E0
6.392480833E0,-1.056502991E0,-5.936055908E0,4.769831085E0,7.687928648E0
6.402546833E0,1.749561768E0,-4.251459045E0,4.293521576E0,6.290484712E0
6.412613833E0,6.458319855E0,-2.119741974E0,3.201692047E0,7.513589911E0
6.422679833E0,1.221504868E1,1.792073364E0,2.465822296E0,1.258964736E1
6.432746833E0,1.695539108E1,7.844138031E0,2.291135559E0,1.882193110E1
6.442812833E0,1.865540588E1,1.446711548E1,2.502645721E0,2.373994176E1
6.452879833E0,1.800201462E1,1.910282547E1,3.230432281E0,2.644666641E1
6.462945833E0,1.817730011E1,2.247246826E1,4.266876984E0,2.921698664E1
6.473012833E0,2.097168915E1,2.689068054E1,5.397924957E0,3.452619353E1
6.483078833E0,2.542657516E1,3.233994873E1,6.909631348E0,4.171481768E1
6.493145833E0,3.077480347E1,3.648018906E1,9.292226715E0,4.862343262E1
6.503211833E0,3.447900055E1,3.821972168E1,1.285601578E1,5.305493140E1
6.513278833E0,3.679318817E1,3.686069778E1,1.536509811E1,5.430042336E1
6.523344833E0,3.686069778E1,3.243215698E1,1.593406494E1,5.161831335E1
6.533411833E0,3.227019379E1,2.794508789E1,1.393167892E1,4.490417600E1
6.543477833E0,2.637126068E1,2.529978882E1,1.147109573E1,3.830285553E1
6.553544833E0,2.288575882E1,2.419014633E1,1.096140564E1,3.505814527E1
6.563611833E0,2.117272110E1,2.296195038E1,1.099074463E1,3.311090079E1
6.573677833E0,2.046978287E1,2.098890335E1,1.131826355E1,3.142688601E1
6.583744833E0,2.060450272E1,1.953871902E1,1.164608185E1,3.069101327E1
6.593810833E0,1.969110214E1,1.844958389E1,1.154174881E1,2.934857092E1
6.603877833E0,1.747690659E1,1.808883408E1,1.068283493E1,2.732711372E1
6.613943833E0,1.569381454E1,1.811143707E1,8.120313721E0,2.530334884E1
6.624010833E0,1.508009079E1,1.762090714E1,4.427792358E0,2.361166770E1
6.634076833E0,1.466350708E1,1.661335236E1,7.521858215E-1,2.217177710E1
6.644143833E0,1.368110001E1,1.507530075E1,-2.000440063E0,2.045578037E1
6.654209833E0,1.205039108E1,1.284344193E1,-3.293750610E0,1.791688362E1
6.664276833E0,1.038076309E1,9.634714508E0,-2.819836121E0,1.444089477E1
6.674342833E0,8.626411285E0,6.043382721E0,-1.265019379E0,1.060837973E1
6.684409833E0,6.327940979E0,2.657723236E0,8.725355530E-1,6.918644963E0
6.694475833E0,4.227508850E0,-5.306465149E-1,3.048560486E0,5.239001607E0
6.704542833E0,2.540217590E0,-3.335364075E0,4.745132446E0,6.331953952E0
6.714608833E0,1.035097504E0,-5.582191772E0,5.443130951E0,7.865110703E0
6.724675833E0,-2.143542480E-1,-7.313790894E0,5.059478760E0,8.895831063E0
6.734741833E0,-1.845063171E0,-8.269852753E0,3.771407318E0,9.274601653E0
6.744808833E0,-3.463048553E0,-8.661588135E0,1.620979156E0,9.468019208E0
6.754874833E0,-4.509672089E0,-9.286239166E0,-9.048683167E-1,1.036292270E1
6.764941833E0,-5.413193207E0,-9.918524323E0,-3.285218353E0,1.176743154E1
6.775008833E0,-6.233038330E0,-9.977202301E0,-5.439089355E0,1.296067227E1
6.785074833E0,-6.862778778E0,-9.684560852E0,-7.129374390E0,1.384617025E1
6.795141833E0,-7.243886261E0,-9.288933563E0,-8.296796722E0,1.440815778E1
6.805207833E0,-7.280859375E0,-8.661139069E0,-9.034163361E0,1.447903142E1
6.815274833E0,-7.003486176E0,-8.065078583E0,-9.298214264E0,1.416160654E1
6.825340833E0,-6.610852661E0,-7.635172577E0,-9.048533478E0,1.356005868E1
6.835407833E0,-6.079158325E0,-7.375911713E0,-8.451425171E0,1.275879410E1
6.845473833E0,-5.543871460E0,-7.254663849E0,-7.622748413E0,1.189415620E1
6.855540833E0,-5.006488953E0,-7.317533112E0,-6.605613556E0,1.105646204E1
6.865606833E0,-4.569996643E0,-7.483687592E0,-5.441933441E0,1.032013027E1
6.875673833E0,-4.185296631E0,-7.723339233E0,-4.270319824E0,9.767410517E0
6.885739833E0,-3.805087280E0,-7.899522858E0,-3.402125244E0,9.405084091E0
6.895806833E0,-3.495980072E0,-8.008645935E0,-2.873424683E0,9.198742076E0
6.905872833E0,-3.303929443E0,-8.119415588E0,-2.441423035E0,9.099527773E0
6.915939833E0,-2.956352234E0,-8.184530182E0,-1.939067688E0,8.915522213E0
6.926005833E0,-2.661764832E0,-8.255482635E0,-1.387464752E0,8.784249769E0
6.936072833E0,-2.306403809E0,-8.244705048E0,-8.824150085E-1,8.606585624E0
6.946138833E0,-1.181493073E0,-8.057294769E0,-1.880090332E-1,8.145629029E0
6.956205833E0,7.402107239E-1,-7.370522919E0,5.957611084E-1,7.431517430E0
6.966271833E0,3.402723999E0,-5.633834381E0,1.172362061E0,6.685286325E0
6.976338833E0,6.677314453E0,-2.943179626E0,1.929337921E0,7.547925505E0
6.986405833E0,1.098191299E1,8.418493652E-1,2.904410248E0,1.139064187E1
6.996471833E0,1.570279587E1,5.418432312E0,3.930975494E0,1.707014280E1
7.006538833E0,1.916614380E1,1.029768585E1,5.077291718E0,2.234194023E1
7.016604833E0,2.150488037E1,1.398841095E1,6.931934967E0,2.657418377E1
7.026671833E0,2.295237030E1,1.602238129E1,9.098080444E0,2.943302690E1
7.036737833E0,2.408850769E1,1.705807755E1,1.022778122E1,3.123846541E1
7.046804833E0,2.432815933E1,1.829420700E1,1.045575714E1,3.218478218E1
7.056870833E0,2.430286194E1,1.943303879E1,1.004336472E1,3.269772576E1
7.066937833E0,2.586980347E1,1.982402573E1,9.046737213E0,3.382428390E1
7.077003833E0,2.776231796E1,1.987686584E1,7.452552338E0,3.494819925E1
7.087070833E0,3.020972855E1,1.978420853E1,6.374793549E0,3.666988681E1
7.097136833E0,3.258723450E1,1.920132065E1,7.307653656E0,3.852298494E1
7.107203833E0,3.315859634E1,1.816083435E1,9.616153107E0,3.900998355E1
7.117269833E0,3.291505280E1,1.692949493E1,1.262878830E1,3.910875597E1
7.127336833E0,3.276296906E1,1.660242508E1,1.563498688E1,3.991873588E1
7.137402833E0,3.274186295E1,1.647099838E1,1.762958908E1,4.067094526E1
7.147469208E0,3.196976852E1,1.627161301E1,1.847548004E1,4.035064872E1
7.157535208E0,3.071567642E1,1.631098114E1,1.741508514E1,3.889455070E1
7.167602208E0,2.947805008E1,1.637549698E1,1.422716446E1,3.659951566E1
7.177668208E0,2.853396332E1,1.631083145E1,9.491911469E0,3.421003754E1
7.187735208E0,2.742117737E1,1.577524521E1,3.967948608E0,3.188297266E1
7.197802208E0,2.539484116E1,1.467937408E1,-1.008003845E0,2.934958352E1
7.207868208E0,2.228790207E1,1.309162582E1,-4.541256409E0,2.624431853E1
7.217935208E0,1.853116425E1,1.083716400E1,-6.183790741E0,2.234026499E1
7.228001208E0,1.453432571E1,8.117918701E0,-5.790259094E0,1.762595610E1
7.238068208E0,1.107936035E1,5.045707397E0,-4.144431610E0,1.286031502E1
7.248134208E0,7.907905426E0,1.993554382E0,-1.859582977E0,8.364644413E0
7.258201208E0,4.802313538E0,-4.474195862E-1,7.077282715E-1,4.874759369E0
7.268267208E0,1.997745667E0,-2.034569092E0,3.023113403E0,4.155679702E0
7.278334208E0,-2.209405518E-1,-3.007096710E0,4.467459869E0,5.389772076E0
7.288400208E0,-1.858385468E0,-3.650758209E0,4.910388794E0,6.394806499E0
7.298467208E0,-2.954406281E0,-4.289330292E0,4.356540527E0,6.790163193E0
7.308533208E0,-3.694916382E0,-5.030139771E0,2.988535309E0,6.919975179E0
7.318600208E0,-4.096980286E0,-5.768703918E0,1.183888092E0,7.173895969E0
7.328666208E0,-4.334985352E0,-6.478078766E0,-5.468128967E-1,7.813872717E0
7.338733208E0,-4.695735168E0,-7.053781586E0,-1.823807373E0,8.667873832E0
7.348799208E0,-5.219196625E0,-7.334148560E0,-2.908751221E0,9.459946203E0
7.358866208E0,-5.713468781E0,-7.415579224E0,-4.068539429E0,1.020723047E1
7.368932208E0,-6.088738403E0,-7.334447937E0,-5.480253754E0,1.099545557E1
7.378999208E0,-6.516249390E0,-6.969656525E0,-6.879244537E0,1.176272178E1
7.389065208E0,-7.137008514E0,-6.370302887E0,-7.974816284E0,1.245453107E1
7.399132208E0,-7.389533386E0,-5.588778076E0,-8.690028992E0,1.270260792E1
7.409199208E0,-6.910978546E0,-4.705165558E0,-8.983718262E0,1.227222071E1
7.419265208E0,-5.616320801E0,-3.907923431E0,-8.823850708E0,1.116580791E1
7.429332208E0,-3.863914948E0,-3.129991150E0,-8.360264740E0,9.727317711E0
7.439398208E0,-2.404150543E0,-2.394869843E0,-7.606432343E0,8.329054831E0
7.449465208E0,-1.494641876E0,-1.840722198E0,-6.540648651E0,6.957175959E0
7.459531208E0,-7.702981567E-1,-1.390308838E0,-5.285209351E0,5.519035767E0
7.469598208E0,1.070274353E-1,-1.084345093E0,-3.981719971E0,4.128117377E0
7.479664208E0,1.189576263E0,-9.451345825E-1,-2.496658173E0,2.922614086E0
7.489731208E0,2.331102448E0,-9.065148926E-1,-1.000070343E0,2.693686797E0
7.499797208E0,3.043920135E0,-9.425898743E-1,3.520678711E-1,3.205912857E0
7.509864208E0,3.274740143E0,-1.141526184E0,1.602268066E0,3.820244493E0
7.519930208E0,3.160078583E0,-1.378782806E0,2.687810669E0,4.371666143E0
7.529997208E0,2.764750671E0,-1.425785065E0,3.538791046E0,4.711661214E0
7.540063208E0,1.978735199E0,-1.517544250E0,4.216581573E0,4.898764508E0
7.550130208E0,1.386865997E0,-1.866618347E0,4.835095367E0,5.365240774E0
7.560196208E0,1.043629761E0,-2.221679993E0,5.585933990E0,6.101449304E0
7.570263208E0,1.019978943E0,-2.171983337E0,6.303242340E0,6.744533539E0
7.580329208E0,2.324965210E0,-1.733844452E0,6.829547882E0,7.419865503E0
7.590396208E0,5.285209351E0,-7.976911926E-1,7.293582916E0,9.042460997E0
7.600463208E0,9.653724976E0,9.608518982E-1,7.649542694E0,1.235447877E1
7.610529208E0,1.409364212E1,3.391497345E0,7.306456146E0,1.623321607E1
7.620596208E0,1.834076019E1,6.519692230E0,6.092330933E0,2.039623415E1
7.630662208E0,2.164349213E1,1.074076447E1,4.605023804E0,2.459697170E1
7.640729208E0,2.366563705E1,1.599154541E1,3.524720306E0,2.877873442E1
7.650795208E0,2.551084991E1,2.031515442E1,3.083737335E0,3.275695954E1
7.660862208E0,3.099739059E1,2.313094894E1,3.167862396E0,3.880611260E1
7.670928208E0,3.839740219E1,2.548585190E1,5.047204285E0,4.636122748E1
7.680995208E0,3.977723282E1,2.650418427E1,8.725654907E0,4.858844603E1
7.691061208E0,3.441822693E1,2.571996506E1,1.476050537E1,4.543130491E1
7.701128208E0,2.908032715E1,2.521461594E1,2.178434921E1,4.422669052E1
7.711194208E0,2.700159988E1,2.636392593E1,2.771980637E1,4.682446638E1
7.721261208E0,2.744617538E1,2.802876389E1,3.174448700E1,5.046401295E1
7.731327208E0,2.835628281E1,2.891102921E1,3.320350296E1,5.236791950E1
7.741394208E0,2.983505768E1,2.867646698E1,2.966620880E1,5.091713238E1
7.751460208E0,3.098047577E1,2.724723907E1,2.197684891E1,4.674594960E1
7.761527208E0,3.160063614E1,2.404779236E1,1.283251465E1,4.173212137E1
7.771593208E0,2.942371307E1,1.920760757E1,3.966302032E0,3.536125891E1
7.781660208E0,2.381876862E1,1.395518005E1,-3.622766418E0,2.784250752E1
7.791726208E0,1.635903122E1,9.001830597E0,-7.950566711E0,2.029439252E1
7.801793208E0,9.094188538E0,4.886288910E0,-9.953102417E0,1.434030447E1
7.811859208E0,4.036805420E0,1.326391754E0,-1.099313965E1,1.178576397E1
7.821926208E0,1.315314789E0,-1.548230438E0,-1.110570557E1,1.128998524E1
7.831993208E0,3.600013733E-1,-3.630250854E0,-9.684411163E0,1.034872658E1
7.842059208E0,3.685336304E-1,-5.348677368E0,-6.944059753E0,8.772920408E0
7.852126208E0,9.370513916E-2,-6.822213135E0,-3.691922607E0,7.757684271E0
7.862192208E0,-7.042854309E-1,-8.131540375E0,-1.063987427E0,8.231041008E0
7.872259208E0,-2.304457855E0,-9.342821503E0,5.559439087E-1,9.638875104E0
7.882325208E0,-3.795956268E0,-1.056787399E1,1.290616150E0,1.130287285E1
7.892392208E0,-4.720733185E0,-1.141062149E1,1.009949799E0,1.238981853E1
7.902458208E0,-5.268593903E0,-1.163500488E1,-2.151026917E-1,1.277410230E1
7.912525208E0,-5.426365814E0,-1.177256882E1,-2.015259247E0,1.311869248E1
7.922591208E0,-5.088518372E0,-1.168036057E1,-3.853586426E0,1.331067130E1
7.932658208E0,-4.152664490E0,-1.090661957E1,-5.342540131E0,1.283517463E1
7.942724208E0,-3.188669128E0,-9.774673462E0,-6.168372803E0,1.199002398E1
7.952791208E0,-2.786156158E0,-8.966054993E0,-6.335575104E0,1.132661998E1
7.962857208E0,-2.890638885E0,-8.278534698E0,-6.093079376E0,1.067780624E1
7.972924208E0,-3.239114227E0,-7.637417908E0,-5.611530762E0,1.001555244E1
7.982990208E0,-3.503913574E0,-7.161108398E0,-5.153632965E0,9.493093098E0
7.993057208E0,-3.764072571E0,-6.826105042E0,-4.410428467E0,8.956329137E0
8.003123208E0,-3.442541199E0,-6.498436432E0,-3.091371460E0,7.977301766E0
8.013190208E0,-2.973416748E0,-5.919739838E0,-1.640139313E0,6.824557412E0
8.023256208E0,-2.657872925E0,-5.385800171E0,-3.549119568E-1,6.016402119E0
8.033323208E0,-1.944755859E0,-4.868176575E0,7.276368713E-1,5.292511118E0
8.043390208E0,-7.506889343E-1,-4.098327484E0,1.542841644E0,4.442992503E0
8.053456208E0,7.354206848E-1,-3.099604340E0,1.970502319E0,3.745833690E0
8.063523208E0,1.582359467E0,-1.876946869E0,2.101629639E0,3.231661828E0
8.073589208E0,1.808688812E0,-8.098159790E-1,2.307451630E0,3.041626236E0
8.083656208E0,1.658551025E0,-7.214996338E-2,2.518662415E0,3.016563853E0
8.093722208E0,1.372346191E0,4.487667847E-1,2.561473389E0,2.940386304E0
8.103789208E0,1.151405640E0,9.246272278E-1,2.449356537E0,2.860073059E0
8.113855208E0,1.801354065E0,1.728605347E0,2.354004822E0,3.431368767E0
8.123922208E0,3.348836060E0,3.088078308E0,2.364932098E0,5.132624516E0
8.133988208E0,4.968168640E0,4.697082367E0,2.994971924E0,7.464257446E0
8.144055458E0,5.735173645E0,6.264472961E0,3.518433380E0,9.193215524E0
8.154121458E0,6.020480347E0,7.389683075E0,3.528761902E0,1.016394412E1
8.164188458E0,5.764961700E0,8.191565552E0,3.412603455E0,1.058217331E1
8.174254458E0,6.006559296E0,9.411678314E0,2.982547760E0,1.155655807E1
8.184321458E0,7.276069336E0,1.150193161E1,2.248773651E0,1.379465834E1
8.194387458E0,1.039243881E1,1.448133591E1,1.041683807E0,1.785488671E1
8.204454458E0,1.519834488E1,1.909414352E1,-1.065035248E0,2.442765449E1
8.214520458E0,2.154185349E1,2.417457870E1,-2.033521271E0,3.244375003E1
8.224587458E0,2.826646957E1,2.714365448E1,-3.411405945E-1,3.919040262E1
8.234654458E0,3.344989059E1,2.683454727E1,3.957919464E0,4.306568512E1
8.244720458E0,3.712908966E1,2.497541336E1,9.505982208E0,4.574608474E1
8.254787458E0,3.852059601E1,2.190350143E1,1.496737518E1,4.677202168E1
8.264853458E0,3.600372986E1,1.865600464E1,1.970202942E1,4.508309036E1
8.274920458E0,2.983101608E1,1.694446381E1,2.341101654E1,4.153408323E1
8.284986458E0,2.527314423E1,1.673624680E1,2.533376816E1,3.950485521E1
8.295053458E0,2.463472183E1,1.761551834E1,2.435061264E1,3.886036981E1
8.305119458E0,2.628518967E1,1.890882889E1,2.066078568E1,3.840993453E1
8.315186458E0,2.775932419E1,2.014450928E1,1.580398544E1,3.776436534E1
8.325252458E0,2.756218414E1,2.095731903E1,1.038854691E1,3.614975965E1
8.335319458E0,2.485461456E1,2.060345490E1,3.924389191E0,3.252160896E1
8.345385458E0,2.067380859E1,1.929218170E1,-2.467917938E0,2.838459539E1
8.355452458E0,1.687276291E1,1.769829620E1,-6.701264648E0,2.535402857E1
8.365518458E0,1.411699356E1,1.572345291E1,-7.668403473E0,2.247934364E1
8.375585458E0,1.211984665E1,1.330059128E1,-6.233188019E0,1.904334645E1
8.385651458E0,1.045186523E1,1.052386551E1,-3.812721405E0,1.531437484E1
8.395718458E0,8.692573700E0,7.481591949E0,-9.216334534E-1,1.150584477E1
8.405784458E0,6.885381775E0,4.636458435E0,1.870210876E0,8.508990406E0
8.415851458E0,5.223537598E0,2.244282990E0,3.854783936E0,6.868879848E0
8.425918458E0,3.518732758E0,1.384620667E-1,4.977299652E0,6.097061898E0
8.435984458E0,1.787732391E0,-1.817520447E0,5.134472809E0,5.732554291E0
8.446051458E0,1.326242065E-1,-3.405418396E0,4.604874115E0,5.728815693E0
8.456117458E0,-1.013392639E0,-4.670737152E0,3.477268982E0,5.910511802E0
8.466184458E0,-1.780547333E0,-5.886359253E0,1.591490479E0,6.352355154E0
8.476250458E0,-2.293979645E0,-6.983427887E0,-4.153862000E-1,7.362279087E0
8.486317458E0,-2.428699493E0,-7.816295929E0,-2.023492126E0,8.431345306E0
8.496383458E0,-2.591560822E0,-8.279732208E0,-3.379073181E0,9.310654569E0
8.506450458E0,-3.095113678E0,-8.474477234E0,-4.351900177E0,1.001676236E1
8.516516458E0,-3.704945526E0,-8.434360657E0,-4.919370117E0,1.044343159E1
8.526583458E0,-4.537813568E0,-8.093818817E0,-5.192701721E0,1.063324062E1
8.536649458E0,-5.432053986E0,-7.517068176E0,-5.056934052E0,1.056343251E1
8.546716458E0,-5.991740112E0,-6.746919708E0,-4.478387146E0,1.007362033E1
8.556782458E0,-6.066285095E0,-5.863606567E0,-3.712729340E0,9.217703401E0
8.566849458E0,-5.746250610E0,-5.038672028E0,-3.266956329E0,8.311474931E0
8.576915458E0,-4.604574738E0,-4.231999512E0,-3.148552551E0,7.001807734E0
8.586982458E0,-2.966381378E0,-3.233426056E0,-3.247496796E0,5.459001555E0
8.597048458E0,-1.278491364E0,-2.180066528E0,-3.649261322E0,4.438956908E0
8.607115458E0,3.817062378E-2,-1.311422882E0,-4.244573364E0,4.442712011E0
8.617181458E0,8.140072632E-1,-6.140231323E-1,-4.664899292E0,4.775030642E0
8.627248458E0,1.190025330E0,-8.173004150E-2,-4.444707184E0,4.601984576E0
8.637314458E0,1.070424042E0,1.492396545E-1,-3.910767517E0,4.057361541E0
8.647381458E0,7.999365234E-1,1.290316772E-1,-3.263663177E0,3.362743664E0
8.657448458E0,3.454815674E-1,6.466552734E-2,-2.373763733E0,2.399644433E0
8.667514458E0,-3.665876770E-1,-1.781295776E-2,-1.243763580E0,1.296785129E0
8.677581458E0,-7.219487000E-1,-8.981323242E-3,-9.565109253E-2,7.283129280E-1
8.687647458E0,-2.656974792E-1,2.646496582E-1,1.050665131E0,1.115585859E0
8.697714458E0,3.680845642E-1,8.113128662E-1,2.140548706E0,2.318547730E0
8.707780458E0,4.578977966E-1,1.623673553E0,3.062930603E0,3.496788538E0
8.717847458E0,4.471202087E-1,2.643502808E0,3.816164246E0,4.663811009E0
8.727913458E0,8.107141113E-1,4.059558105E0,4.920567627E0,6.430338650E0
8.737980458E0,1.488205261E0,6.068530426E0,6.360124054E0,8.915884388E0
8.748046458E0,2.530487823E0,8.923693085E0,7.176975403E0,1.172794282E1
8.758113458E0,4.349954224E0,1.230845444E1,7.800578613E0,1.520753692E1
8.768179458E0,7.157515869E0,1.634585861E1,8.845705261E0,1.991641606E1
8.778246458E0,1.151106262E1,2.095148117E1,1.062415695E1,2.615992807E1
8.788312458E0,1.674462936E1,2.581801117E1,1.238314911E1,3.317069030E1
8.798379458E0,2.176997910E1,3.009821045E1,1.254107071E1,3.920602908E1
8.808445458E0,2.771247162E1,3.113869675E1,1.148426834E1,4.323757553E1
8.818512458E0,3.392964294E1,2.994702484E1,1.073342972E1,4.651076736E1
8.828578458E0,3.654216019E1,2.865835464E1,1.089165070E1,4.769967313E1
8.838645458E0,3.431763611E1,2.631258270E1,1.270797363E1,4.507266079E1
8.848711458E0,2.920382034E1,2.189137665E1,1.607971207E1,3.988298678E1
8.858778458E0,2.268248154E1,1.740804977E1,2.032937485E1,3.508302506E1
8.868845458E0,1.767419632E1,1.550415894E1,2.477677643E1,3.415618260E1
8.878911458E0,1.635933060E1,1.616727997E1,2.684532486E1,3.535081479E1
8.888978458E0,1.817445602E1,1.737706421E1,2.500325546E1,3.546034399E1
8.899044458E0,2.064057770E1,1.761626678E1,2.000769379E1,3.371459793E1
8.909111458E0,2.185185883E1,1.697305435E1,1.325388840E1,3.067986092E1
8.919177458E0,2.116224289E1,1.568797668E1,6.020330658E0,2.702216716E1
8.929244458E0,1.713037720E1,1.376717102E1,-2.028431854E0,2.207032751E1
8.939310458E0,1.134909943E1,1.134565659E1,-9.969568176E0,1.889228072E1
8.949377458E0,5.841003571E0,8.618028717E0,-1.509805344E1,1.833954632E1
8.959443458E0,1.533560944E0,6.079457703E0,-1.614332977E1,1.731816131E1
8.969510458E0,-1.637295227E0,3.798650665E0,-1.373962830E1,1.434879327E1
8.979576458E0,-3.810775452E0,1.286125488E0,-9.740095367E0,1.053781695E1
8.989643458E0,-5.432652740E0,-1.431622925E0,-5.728138275E0,8.023392555E0
8.999709458E0,-6.695576477E0,-3.713028717E0,-2.352358246E0,8.009426692E0
9.009776458E0,-7.768395538E0,-5.410648499E0,2.137554932E-1,9.469359948E0
9.019842458E0,-8.105344849E0,-6.883884888E0,1.737137604E0,1.077506999E1
9.029909458E0,-8.213420105E0,-7.769443359E0,1.724264374E0,1.143667817E1
9.039976458E0,-8.054600372E0,-7.933502197E0,2.230361938E-1,1.130781983E1
9.050042458E0,-7.695347443E0,-7.795339508E0,-2.152673492E0,1.116331911E1
9.060109458E0,-7.399412842E0,-7.374863892E0,-4.552483063E0,1.139583388E1
9.070175458E0,-7.007827148E0,-6.623875580E0,-6.318809967E0,1.152877827E1
9.080242458E0,-6.339916077E0,-5.679639130E0,-7.148684235E0,1.111559818E1
9.090308458E0,-5.553601227E0,-4.805606689E0,-7.255561981E0,1.032373585E1
9.100375458E0,-4.613705750E0,-4.088148651E0,-6.743327179E0,9.136284889E0
9.110441458E0,-3.657045135E0,-3.481759644E0,-5.851182404E0,7.728710427E0
9.120508458E0,-3.006947021E0,-2.919977875E0,-4.709955597E0,6.304893568E0
9.130574458E0,-2.432890778E0,-2.323168945E0,-3.440595245E0,4.811836149E0
9.140641458E0,-1.894759827E0,-1.829944611E0,-2.247426453E0,3.462620068E0
9.150707333E0,-1.487157440E0,-1.461710358E0,-1.318607941E0,2.467176792E0
9.160774333E0,-1.142424316E0,-1.093476105E0,-6.894662476E-1,1.725162896E0
9.170840333E0,-4.914280701E-1,-5.822891235E-1,-3.348536682E-1,8.322794906E-1
9.180907333E0,4.171824646E-1,2.035766602E-2,-1.194515991E-1,4.344241336E-1
9.190973333E0,1.228944397E0,4.477189636E-1,2.188449097E-1,1.326140903E0
9.201040333E0,1.878443756E0,5.743556213E-1,6.102809143E-1,2.056909847E0
9.211106333E0,2.304757233E0,5.599855042E-1,9.321116638E-1,2.548395931E0
9.221173333E0,2.053429871E0,4.839436340E-1,1.180594940E0,2.417556636E0
9.231239333E0,1.708097992E0,3.701802063E-1,1.492396545E0,2.298234014E0
9.241306333E0,2.068548431E0,3.520678711E-1,2.096091156E0,2.965879723E0
9.251372333E0,2.747386780E0,7.137158203E-1,3.029550018E0,4.151589780E0
9.261439333E0,3.159330139E0,1.662143555E0,3.810476074E0,5.221476423E0
9.271506333E0,4.317022705E0,3.301983490E0,4.543801117E0,7.084201338E0
9.281572333E0,6.334078217E0,5.556145935E0,6.244115295E0,1.048714834E1
9.291639333E0,9.357790375E0,8.404871979E0,8.126151581E0,1.497479393E1
9.301705333E0,1.289553360E1,1.183618652E1,9.052275696E0,1.970618668E1
9.311772333E0,1.593780716E1,1.486962845E1,9.138346710E0,2.363533219E1
9.321838333E0,1.855990448E1,1.783960236E1,9.001980286E0,2.727191074E1
9.331905333E0,2.092798004E1,2.067365891E1,9.023236084E0,3.077010417E1
9.341971333E0,2.303125626E1,2.270373734E1,8.517288208E0,3.344312563E1
9.352038333E0,2.488081009E1,2.404000854E1,7.091054077E0,3.531656509E1
9.362104333E0,2.833891891E1,2.303200470E1,6.845714264E0,3.715415683E1
9.372171333E0,3.185974731E1,2.051663544E1,7.384443970E0,3.860706984E1
9.382237333E0,3.166290665E1,2.073727661E1,5.922134857E0,3.830986792E1
9.392304333E0,3.043051941E1,2.238864258E1,4.991370392E0,3.810750066E1
9.402370333E0,3.040746735E1,2.217368958E1,7.254514160E0,3.832642112E1
9.412437333E0,2.921295135E1,1.990964767E1,1.144430145E1,3.715861452E1
9.422503333E0,2.624836624E1,1.725940887E1,1.599663483E1,3.525274813E1
9.432570333E0,2.256991562E1,1.534758453E1,1.942750031E1,3.350189861E1
9.442636333E0,1.917168228E1,1.432955154E1,2.029779053E1,3.138295316E1
9.452703333E0,1.704310867E1,1.423479858E1,1.868863678E1,2.902347651E1
9.462770333E0,1.592822708E1,1.445469131E1,1.466305801E1,2.603174580E1
9.472836333E0,1.518247787E1,1.426323944E1,9.056916046E0,2.271509106E1
9.482903333E0,1.402433624E1,1.310839096E1,2.811303864E0,1.940142649E1
9.492969333E0,1.189546326E1,1.162781982E1,-3.376977539E0,1.697386866E1
9.503036333E0,9.231303406E0,1.011132339E1,-8.311615906E0,1.601682810E1
9.513102333E0,6.672075348E0,8.508905640E0,-1.073732162E1,1.523837722E1
9.523169333E0,4.401596832E0,6.942562866E0,-1.064301773E1,1.344793888E1
9.533235333E0,2.671644287E0,5.265899506E0,-9.005123749E0,1.076845553E1
9.543302333E0,1.467099152E0,3.207829285E0,-7.081773376E0,7.911640967E0
9.553368333E0,3.680845642E-1,9.707313538E-1,-5.445825348E0,5.543899289E0
9.563435333E0,-5.053491211E-1,-1.062939606E0,-3.772305450E0,3.951646081E0
9.573501333E0,-1.185983734E0,-2.602188721E0,-2.110311584E0,3.554062259E0
9.583568333E0,-1.913620605E0,-3.647614746E0,-5.664221191E-1,4.157868586E0
9.593634333E0,-2.424807587E0,-4.373006287E0,5.745053101E-1,5.033183105E0
9.603701333E0,-2.841990051E0,-5.041216736E0,1.060843964E0,5.883550250E0
9.613767333E0,-3.789669342E0,-5.714366913E0,9.618997192E-1,6.923931976E0
9.623834333E0,-4.765340424E0,-6.094276886E0,4.173321533E-1,7.747441271E0
9.633900333E0,-5.287454681E0,-6.209686890E0,-7.738906860E-1,8.192453544E0
9.643967333E0,-5.899980927E0,-6.198759613E0,-2.603984985E0,8.945117857E0
9.654034333E0,-6.307433624E0,-6.117029572E0,-4.383185120E0,9.819067242E0
9.664100333E0,-6.368656311E0,-5.870941315E0,-5.724695435E0,1.038267176E1
9.674167333E0,-6.202052765E0,-5.384752350E0,-6.558461609E0,1.051068195E1
9.684233333E0,-5.563929749E0,-4.782105560E0,-6.569239197E0,9.847880557E0
9.694300333E0,-4.652175751E0,-4.308490448E0,-5.821843414E0,8.608117674E0
9.704366333E0,-3.788621521E0,-4.017944641E0,-4.838089142E0,7.341977847E0
9.714433333E0,-2.800376587E0,-3.755540314E0,-3.515738983E0,5.857184705E0
9.724499333E0,-1.681303711E0,-3.535048828E0,-1.898801422E0,4.350723989E0
9.734566333E0,-4.725672913E-1,-3.237916718E0,-3.414399719E-1,3.289985679E0
9.744632333E0,7.247927856E-1,-2.605930939E0,9.270222473E-1,2.859295523E0
9.754699333E0,1.673519897E0,-1.801204376E0,1.955383759E0,3.141421923E0
9.764765333E0,2.052232361E0,-1.234183502E0,2.722239075E0,3.625665754E0
9.774832333E0,2.042352905E0,-6.469546509E-1,3.131937103E0,3.794573195E0
9.784898333E0,2.199825439E0,1.761836243E-1,3.472478943E0,4.114411579E0
9.794965333E0,2.140848083E0,7.961943054E-1,3.760330353E0,4.399686381E0
9.805031333E0,2.192939758E0,1.328038330E0,3.988156586E0,4.741103621E0
9.815098333E0,2.433489532E0,2.048340454E0,3.884272614E0,5.020472454E0
9.825164333E0,3.258274384E0,3.010539551E0,3.694467316E0,5.773109136E0
9.835231333E0,4.358935547E0,4.308490448E0,3.576063538E0,7.095888913E0
9.845298333E0,5.902375946E0,6.171216888E0,3.642375641E0,9.283795560E0
9.855364333E0,7.882608032E0,8.446485443E0,3.731590118E0,1.214097980E1
9.865431333E0,1.051967422E1,1.098640366E1,3.476370850E0,1.560287683E1
9.875497333E0,1.370175705E1,1.423973831E1,3.242856445E0,2.002559391E1
9.885564333E0,1.625799133E1,1.784094955E1,3.136876831E0,2.434053737E1
9.895630333E0,1.936912170E1,2.102617584E1,3.770509186E0,2.883538947E1
9.905697333E0,2.367222336E1,2.308918579E1,5.341492310E0,3.349651026E1
9.915763333E0,2.810630264E1,2.399195847E1,7.528145142E0,3.771274703E1
9.925830333E0,3.143702637E1,2.362806519E1,9.782008209E0,4.052480445E1
9.935896333E0,3.072091553E1,2.209210922E1,1.195878159E1,3.968435961E1
9.945963333E0,2.599988297E1,2.015513718E1,1.399155441E1,3.574894493E1
9.956029333E0,2.091555588E1,1.853775055E1,1.594199844E1,3.217539413E1
9.966096333E0,1.783675827E1,1.780098267E1,1.724863129E1,3.053752136E1
9.976162333E0,1.664299072E1,1.735999969E1,1.810664703E1,3.010331205E1
9.986229333E0,1.713950821E1,1.666125275E1,1.960428268E1,3.091420360E1
9.996295333E0,1.762914001E1,1.566492462E1,2.094504456E1,3.154158101E1
1.000636233E1,1.711046860E1,1.487426880E1,2.082095261E1,3.078187901E1
1.001642933E1,1.619362518E1,1.403316788E1,1.934053116E1,2.886554075E1
1.002649533E1,1.459524902E1,1.369097946E1,1.669463333E1,2.606098607E1
1.003656233E1,1.321317307E1,1.302860687E1,1.353694977E1,2.296914340E1
1.004662833E1,1.224453735E1,1.157647659E1,1.086874832E1,2.005176290E1
1.005669533E1,1.081800385E1,9.499395905E0,8.964558105E0,1.695968843E1
1.006676133E1,9.226962433E0,6.903793488E0,7.776927795E0,1.390251079E1
1.007682833E1,7.972121887E0,4.296665039E0,6.730753326E0,1.128357648E1
1.008689433E1,6.704408112E0,1.764979706E0,5.337151337E0,8.749252875E0
1.009696133E1,5.798342285E0,-4.164340210E-1,2.908601532E0,6.500319486E0
1.010702733E1,4.867877197E0,-1.983076172E0,-2.436932373E-1,5.261958372E0
1.011709433E1,3.847598877E0,-3.225342865E0,-3.290158081E0,6.002665567E0
1.012716033E1,3.127446442E0,-4.036206665E0,-5.825286255E0,7.746344005E0
1.013722733E1,2.714904327E0,-4.467908936E0,-7.717950439E0,9.321999504E0
1.014729308E1,2.520758057E0,-4.935835876E0,-9.127569122E0,1.067844629E1
1.015736008E1,2.366279297E0,-5.661826172E0,-9.555080109E0,1.135584031E1
1.016742608E1,1.937271423E0,-5.802982635E0,-9.261390839E0,1.109959406E1
1.017749308E1,1.230441284E0,-5.650150452E0,-8.241262207E0,1.006760094E1
1.018755908E1,3.968247986E-1,-5.315596161E0,-7.085216217E0,8.866415358E0
1.019762608E1,-3.396437073E-1,-4.824467468E0,-7.252568207E0,8.717258158E0
1.020769208E1,-1.103954315E0,-4.622238007E0,-8.688232727E0,9.902988803E0
1.021775908E1,-1.490899658E0,-4.235442352E0,-1.011731094E1,1.106895363E1
1.022782608E1,-2.524200897E0,-3.784280548E0,-1.031355286E1,1.127216669E1
1.023789208E1,-4.784350891E0,-3.841910706E0,-9.790241089E0,1.155418158E1
1.024795908E1,-6.408922577E0,-3.968996429E0,-8.547974396E0,1.139715261E1
1.025802508E1,-6.640491028E0,-3.890709229E0,-6.038293304E0,9.782368089E0
1.026809208E1,-6.252797241E0,-3.613336029E0,-2.548749847E0,7.658315506E0
1.027815808E1,-4.841232605E0,-3.224444733E0,1.043031006E0,5.909525417E0
1.028822508E1,-3.204536133E0,-2.251468048E0,4.096680908E0,5.667535149E0
1.029829108E1,-2.144141235E0,-9.756710815E-1,6.355034637E0,6.777591087E0
1.030835808E1,-1.581760712E0,1.721420288E-1,7.555837555E0,7.721546541E0
1.031842408E1,-1.859732666E0,1.023272095E0,7.503446503E0,7.797910027E0
1.032849108E1,-2.732866974E0,1.492396545E0,6.136189728E0,6.881034350E0
1.033855708E1,-3.300636292E0,1.919159088E0,4.207450562E0,5.681550120E0
1.034862408E1,-3.298989716E0,2.339035950E0,2.866688690E0,4.957048150E0
1.035869008E1,-2.579436035E0,2.810256042E0,1.918859711E0,4.270017784E0
1.036875708E1,-1.127006378E0,3.549718323E0,1.143172760E0,3.895829502E0
1.037882308E1,2.924917603E-1,4.440515900E0,1.136436768E0,4.592953452E0
1.038889008E1,2.093845825E0,5.483846283E0,1.672771454E0,6.103681244E0
1.039895708E1,4.089196472E0,6.847660217E0,2.504142609E0,8.359587815E0
1.040902308E1,4.524640961E0,8.326584778E0,3.624562683E0,1.014602605E1
1.041909008E1,3.752546539E0,9.775272217E0,3.861070862E0,1.115999196E1
1.042915608E1,4.070485382E0,1.244392273E1,3.372636566E0,1.352016056E1
1.043922308E1,7.324269104E0,1.749037857E1,3.281027069E0,1.924378858E1
1.044928908E1,1.407073975E1,2.376637756E1,4.735402679E0,2.802232071E1
1.045935608E1,2.396621201E1,3.031810318E1,6.927893372E0,3.926273558E1
1.046942208E1,3.595762573E1,3.497162613E1,9.547895050E0,5.106004095E1
1.047948908E1,4.555566650E1,3.541994385E1,1.326361816E1,5.920992096E1
1.048955508E1,4.789904343E1,3.278272797E1,1.714878891E1,6.052360345E1
1.049962208E1,4.342200348E1,2.772549454E1,2.124487106E1,5.572717452E1
1.050968808E1,3.503883636E1,2.166130508E1,2.618519760E1,4.881185066E1
1.051975508E1,2.549393509E1,1.535506897E1,2.995944901E1,4.222898831E1
1.052982108E1,1.840692261E1,1.092024124E1,3.072839996E1,3.744731009E1
1.053988808E1,1.643671967E1,9.159901886E0,2.853141861E1,3.417764480E1
1.054995408E1,1.791519516E1,8.675060120E0,2.349618942E1,3.079418457E1
1.056002108E1,2.013717453E1,8.978329468E0,1.607806549E1,2.728773329E1
1.057008708E1,2.066856949E1,1.008213409E1,7.050937500E0,2.405316844E1
1.058015408E1,1.824406128E1,1.122216339E1,-3.186872864E0,2.165499669E1
1.059022108E1,1.523202484E1,1.148007706E1,-1.177601166E1,2.241609245E1
1.060028708E1,1.352811813E1,1.027987289E1,-1.392808640E1,2.196991938E1
1.061035408E1,1.166075134E1,8.521180115E0,-1.143382324E1,1.842053057E1
1.062042008E1,8.626261597E0,6.151607666E0,-7.472311249E0,1.296495667E1
1.063048708E1,4.948409729E0,2.520159302E0,-3.403622131E0,6.513263803E0
1.064055308E1,1.325493622E0,-1.230890350E0,-1.636097717E-1,1.816257843E0
1.065062008E1,-8.728349304E-1,-3.867058411E0,1.733994141E0,4.326975531E0
1.066068608E1,-1.625469818E0,-6.105353851E0,1.750908966E0,6.556155885E0
1.067075308E1,-1.557960205E0,-8.160430298E0,-4.546046448E-1,8.320248075E0
1.068081908E1,-2.103126526E0,-9.284592590E0,-4.495900726E0,1.052805415E1
1.069088608E1,-3.350931702E0,-9.577832794E0,-8.851393433E0,1.346516951E1
1.070095208E1,-4.416116638E0,-9.898316345E0,-1.165820663E1,1.591830816E1
1.071101908E1,-5.508694611E0,-9.969867554E0,-1.250978577E1,1.691859082E1
1.072108508E1,-6.500831451E0,-9.673034821E0,-1.130928223E1,1.623971295E1
1.073115208E1,-6.975344696E0,-1.019335281E1,-8.550219727E0,1.502218801E1
1.074121808E1,-7.020550690E0,-9.799521790E0,-5.492827606E0,1.324726064E1
1.075128508E1,-6.279292145E0,-8.958420868E0,-2.230062561E0,1.116494484E1
1.076135208E1,-5.401367798E0,-8.201445007E0,-4.355941772E-2,9.820405884E0
1.077141808E1,-4.504582672E0,-7.334897003E0,1.313518524E0,8.707313593E0
1.078148508E1,-4.224515076E0,-6.339766388E0,1.902543640E0,7.852314167E0
1.079155108E1,-3.619622955E0,-5.001698914E0,1.866318970E0,6.449946423E0
1.080161808E1,-2.098336487E0,-3.626808014E0,1.197809143E0,4.357923717E0
1.081168408E1,-6.167175293E-2,-2.196232910E0,4.632865906E-1,2.245412404E0
1.082175108E1,1.638792114E0,-8.764274597E-1,-1.583706665E-1,1.865166468E0
1.083181708E1,2.614163818E0,1.553768921E-1,-6.348298645E-1,2.694624910E0
1.084188408E1,3.446582794E0,9.683363342E-1,-6.821315002E-1,3.644435704E0
1.085195008E1,3.553460541E0,1.188827820E0,6.478527832E-1,3.802644689E0
1.086201708E1,2.940934296E0,1.115929413E0,2.334245911E0,3.917026545E0
1.087208308E1,2.149380341E0,9.812095642E-1,3.294349365E0,4.054053009E0
1.088215008E1,1.937271423E0,6.834786987E-1,3.567980347E0,4.117116400E0
1.089221608E1,1.797462158E0,1.017134857E0,3.677253113E0,4.217537668E0
1.090228308E1,2.906056824E0,2.296973419E0,3.876937866E0,5.362079855E0
1.091234908E1,4.617298279E0,3.646716614E0,3.821103973E0,7.015612663E0
1.092241608E1,6.199208679E0,5.464835815E0,4.363575897E0,9.345341799E0
1.093248208E1,7.185208282E0,7.200626221E0,5.513185272E0,1.157028296E1
1.094254908E1,7.737709351E0,8.371341705E0,5.885461121E0,1.282926968E1
1.095261608E1,8.471633148E0,9.592352600E0,5.191803589E0,1.381074296E1
1.096268208E1,1.047581543E1,1.154204819E1,3.725303192E0,1.602621194E1
1.097274908E1,1.325403809E1,1.463686249E1,2.263143768E0,1.987533871E1
1.098281508E1,1.653401733E1,1.845631989E1,1.525627441E0,2.482613566E1
1.099288208E1,1.996832565E1,2.230047592E1,1.460213470E0,2.996960926E1
1.100294808E1,2.420436676E1,2.487976227E1,2.429148560E0,3.479590067E1
1.101301508E1,3.004926224E1,2.486284744E1,4.458628235E0,3.925555642E1
1.102308108E1,3.380465286E1,2.490446091E1,6.741381226E0,4.252567400E1
1.103314808E1,3.687895981E1,2.636497375E1,8.184530182E0,4.606686501E1
1.104321408E1,3.932322693E1,2.622127258E1,9.688452759E0,4.824663127E1
1.105328108E1,3.790971634E1,2.388672729E1,1.221220459E1,4.644200980E1
1.106334708E1,3.199566467E1,1.939187439E1,1.550131485E1,4.049763095E1
1.107341408E1,2.594794098E1,1.477981522E1,1.855002502E1,3.515454462E1
1.108348008E1,2.136596924E1,1.104732697E1,2.018118301E1,3.139790156E1
1.109354708E1,1.838671463E1,8.236771545E0,1.938139618E1,2.795629085E1
1.110361308E1,1.685629715E1,6.189628601E0,1.634256546E1,2.428015036E1
1.111368008E1,1.543230835E1,5.021457825E0,1.136586456E1,1.981297698E1
1.112374708E1,1.377645172E1,4.860991516E0,5.040617981E0,1.545405093E1
1.113381308E1,1.199455719E1,4.994663544E0,-1.590742035E0,1.308993989E1
1.114388008E1,1.028511200E1,5.110372925E0,-7.247478790E0,1.358033096E1
1.115394650E1,8.339757385E0,4.728666687E0,-1.059017761E1,1.428508676E1
1.116401350E1,6.094426575E0,3.326083374E0,-1.112112350E1,1.311046353E1
1.117407950E1,3.996688843E0,1.108594666E0,-8.911867676E0,9.829745129E0
1.118414650E1,1.769769745E0,-1.397044830E0,-5.571114807E0,6.010086472E0
1.119421250E1,-3.623963928E-1,-3.471580811E0,-2.254461823E0,4.155213903E0
1.120427950E1,-2.313289490E0,-4.599485321E0,5.275030518E-1,5.175406549E0
1.121434550E1,-3.711980896E0,-5.121898956E0,2.415975952E0,6.771232598E0
1.122441250E1,-4.747826843E0,-5.285209351E0,3.410507812E0,7.880790643E0
1.123447850E1,-5.148244171E0,-5.232518921E0,2.856659546E0,7.876812557E0
1.124454550E1,-5.047803040E0,-5.220094757E0,7.414082336E-1,7.299273318E0
1.125461150E1,-4.729265442E0,-4.976850586E0,-1.796713715E0,7.096701596E0
1.126467850E1,-4.308041382E0,-4.570445709E0,-4.059558105E0,7.478516333E0
1.127474450E1,-3.803291016E0,-4.217779083E0,-5.843248901E0,8.148511562E0
1.128481150E1,-3.437002716E0,-4.047133942E0,-6.964716797E0,8.757828548E0
1.129487750E1,-3.469036102E0,-3.911216583E0,-7.243586884E0,8.933161679E0
1.130494450E1,-3.667972412E0,-3.786675568E0,-6.560706940E0,8.416401192E0
1.131501050E1,-3.643124084E0,-3.888314209E0,-5.496120758E0,7.654977718E0
1.132507750E1,-3.537892914E0,-4.240382080E0,-4.356540527E0,7.033986908E0
1.133514450E1,-3.804638214E0,-4.571493530E0,-3.080743561E0,6.698119581E0
1.134521050E1,-3.650159454E0,-4.727618866E0,-1.504671021E0,6.159389504E0
1.135527750E1,-3.341201935E0,-4.694837036E0,-3.981719971E-2,5.762526406E0
1.136534350E1,-2.858904877E0,-4.540957031E0,1.024020538E0,5.462805682E0
1.137541050E1,-2.111958160E0,-4.232298889E0,1.593885498E0,4.991311665E0
1.138547650E1,-1.085841980E0,-3.587589569E0,1.737586670E0,4.131471791E0
1.139554350E1,3.844006348E-1,-2.652633820E0,1.684447174E0,3.165689863E0
1.140560950E1,1.930535431E0,-1.398691406E0,1.540596313E0,2.838440012E0
1.141567650E1,3.240012360E0,-1.754351807E-1,1.177301788E0,3.451738271E0
1.142574250E1,4.795876923E0,8.041278076E-1,6.460565186E-1,4.905552570E0
1.143580950E1,5.938001862E0,1.695524139E0,1.431024170E-1,6.176985229E0
1.144587550E1,6.839277649E0,2.625240784E0,4.790039062E-3,7.325819468E0
1.145594250E1,7.344776459E0,3.497177582E0,2.716850281E-1,8.139398321E0
1.146600850E1,8.072563019E0,4.137994995E0,5.209167480E-1,9.086288050E0
1.147607550E1,9.464668121E0,4.691394196E0,7.508386230E-1,1.059022572E1
1.148614150E1,1.219543945E1,5.899831238E0,7.702981567E-1,1.356945509E1
1.149620850E1,1.588272171E1,8.147108002E0,-2.417472839E-1,1.785202116E1
1.150627550E1,2.022025177E1,1.052461395E1,-2.611619110E0,2.294442492E1
1.151634150E1,2.672213104E1,1.313338898E1,-5.072801056E0,3.020416369E1
1.152640850E1,3.548026840E1,1.629616196E1,-5.895639954E0,3.948636361E1
1.153647450E1,4.450215729E1,1.835423218E1,-6.029761047E0,4.851471798E1
1.154654150E1,5.377043381E1,1.958751755E1,-6.101761322E0,5.755138475E1
1.155660750E1,5.825301224E1,2.087244553E1,-3.628604279E0,6.198579826E1
1.156667450E1,5.586263306E1,2.189496918E1,5.387297058E-1,6.000261392E1
1.157674050E1,5.006982925E1,2.100432129E1,5.789959717E0,5.460488026E1
1.158680750E1,4.102878021E1,1.839644440E1,1.179681839E1,4.648607207E1
1.159687350E1,3.301848770E1,1.588332047E1,1.731524277E1,4.052552321E1
1.160694050E1,2.803026077E1,1.388587418E1,1.911030991E1,3.665674515E1
1.161700650E1,2.487646912E1,1.227417572E1,1.590697128E1,3.197695797E1
1.162707350E1,2.267185364E1,1.113190109E1,9.863438873E0,2.711493308E1
1.163713950E1,2.004361908E1,1.041878403E1,3.390599213E0,2.284280827E1
1.164720650E1,1.657982208E1,9.264534302E0,-2.960842896E0,1.922208851E1
1.165727250E1,1.284523819E1,7.673492889E0,-7.588469696E0,1.677699346E1
1.166733950E1,9.255103912E0,5.782175903E0,-9.547146606E0,1.449960396E1
1.167740650E1,5.952371979E0,3.528163147E0,-9.325158234E0,1.161194400E1
1.168747250E1,2.718945923E0,1.044677582E0,-7.572453003E0,8.113326239E0
1.169753950E1,2.245330811E-2,-1.549577637E0,-5.301375732E0,5.523249013E0
1.170760550E1,-2.318079529E0,-4.240681458E0,-3.092718658E0,5.737750485E0
1.171767250E1,-4.323758698E0,-6.632707214E0,-1.557660828E0,8.069324725E0
1.172773850E1,-6.286776581E0,-8.464148712E0,-1.231938171E0,1.061522703E1
1.173780550E1,-8.161627808E0,-9.621841278E0,-1.890718231E0,1.275800978E1
1.174787150E1,-9.682016144E0,-1.022972717E1,-3.051105194E0,1.441173125E1
1.175793850E1,-1.070543793E1,-1.023002655E1,-4.180356903E0,1.538620253E1
1.176800450E1,-1.078177917E1,-9.787247314E0,-4.912783813E0,1.536790217E1
1.177807150E1,-9.913734283E0,-9.186247101E0,-5.135370941E0,1.445826054E1
1.178813750E1,-8.969797211E0,-8.356522522E0,-4.989424438E0,1.323567478E1
1.179820450E1,-8.036188660E0,-7.428751831E0,-4.682412872E0,1.190343111E1
1.180827050E1,-6.905140686E0,-6.715784454E0,-4.144730988E0,1.048625404E1
1.181833750E1,-5.820645905E0,-6.182443542E0,-3.445834351E0,9.163858427E0
1.182840350E1,-4.612059174E0,-5.754633179E0,-2.603685608E0,7.820874094E0
1.183847050E1,-3.140469360E0,-5.353168030E0,-1.654210052E0,6.423034069E0
1.184853750E1,-1.293609924E0,-4.954696655E0,-8.451425171E-1,5.190058907E0
1.185860350E1,6.542893982E-1,-4.451443176E0,-1.532812500E-1,4.501881397E0
1.186867050E1,1.970502319E0,-3.916455688E0,3.450325012E-1,4.397789442E0
1.187873650E1,2.763253784E0,-3.661086731E0,7.502398682E-1,4.647793819E0
1.188880350E1,3.480861511E0,-3.697610779E0,1.149609375E0,5.206757537E0
1.189886950E1,3.965104523E0,-3.869902496E0,1.485660553E0,5.736321686E0
1.190893650E1,3.647315369E0,-3.868255920E0,1.873953094E0,5.637199080E0
1.191900250E1,3.382815399E0,-3.891457672E0,2.480192413E0,5.721733762E0
1.192906950E1,3.484753418E0,-3.841461639E0,3.269201660E0,6.130906410E0
1.193913550E1,3.485950928E0,-3.585793304E0,4.102967834E0,6.468702539E0
1.194920250E1,3.687132568E0,-3.144361267E0,4.881349182E0,6.878191928E0
1.195926850E1,3.937112732E0,-2.402953033E0,5.583389282E0,7.242187226E0
1.196933550E1,3.911665649E0,-1.372944946E0,6.203699341E0,7.461366597E0
1.197940150E1,4.363276520E0,-1.898052979E-1,6.803202667E0,8.084415537E0
1.198946850E1,5.359454956E0,1.395098877E0,7.101382599E0,9.005536803E0
1.199953450E1,6.347101135E0,3.126248932E0,6.918462982E0,9.895668509E0
1.200960150E1,7.368726654E0,4.819527740E0,6.521638184E0,1.095708651E1
1.201966850E1,9.646240540E0,6.709647217E0,5.773194580E0,1.309194783E1
1.202973450E1,1.231534012E1,8.353379059E0,4.173022156E0,1.545511753E1
1.203980150E1,1.361284195E1,9.243428192E0,1.742975464E0,1.654655233E1
1.204986750E1,1.317305649E1,9.565857697E0,-1.387464752E0,1.633891395E1
1.205993450E1,1.203632034E1,9.487570496E0,-5.309458923E0,1.621965953E1
1.207000050E1,1.228046265E1,1.002749771E1,-9.022038574E0,1.824164612E1
1.208006750E1,1.504700958E1,1.108115662E1,-1.242446320E1,2.244040586E1
1.209013350E1,2.259132111E1,1.254556137E1,-1.418285660E1,2.947731875E1
1.210020050E1,3.524181427E1,1.398781219E1,-1.176598251E1,3.969990816E1
1.211026650E1,4.876364548E1,1.382779495E1,-5.657784576E0,5.100109371E1
1.212033350E1,5.915668304E1,1.170700516E1,3.383414154E0,6.039879643E1
1.213039950E1,6.057318741E1,6.996151428E0,1.638402924E1,6.313868530E1
1.214046650E1,4.763319626E1,2.716999969E0,3.306548996E1,5.804851506E1
1.215053296E1,3.026945435E1,1.547481995E0,4.843193527E1,5.713393844E1
1.216059996E1,2.390364212E1,1.817670135E0,5.248834991E1,5.770368193E1
1.217066696E1,2.514426224E1,2.863994293E0,4.170327759E1,4.878114132E1
1.218073296E1,2.591890137E1,3.908821564E0,2.410407532E1,3.561003764E1
1.219079996E1,2.411739761E1,5.810018005E0,8.356821899E0,2.617712072E1
1.220086596E1,1.944276855E1,7.977211304E0,-3.153043213E0,2.125085482E1
1.221093296E1,1.453103256E1,9.283095703E0,-8.144114227E0,1.906969768E1
1.222099896E1,1.100436630E1,9.224417725E0,-7.436685333E0,1.617066012E1
1.223106596E1,8.237519989E0,7.924969940E0,-4.475842438E0,1.227579120E1
1.224113196E1,5.870192871E0,6.060297546E0,-5.734574890E-1,8.456667440E0
1.225119896E1,3.321143646E0,4.097728729E0,2.729723511E0,5.939088003E0
1.226126496E1,1.480421448E-1,2.431244202E0,4.510570221E0,5.126217764E0
1.227133196E1,-3.149899750E0,-1.362167358E-1,5.340145111E0,6.201417035E0
1.228139796E1,-6.527026978E0,-3.303929443E0,4.340374146E0,8.506284656E0
1.229146496E1,-1.035217255E1,-6.372548218E0,-1.842668152E-1,1.215774656E1
1.230153096E1,-1.370819366E1,-9.315578156E0,-5.993087311E0,1.762417843E1
1.231159796E1,-1.571911194E1,-1.161165344E1,-1.020083725E1,2.204490999E1
1.232166396E1,-1.714175354E1,-1.236174362E1,-1.268043091E1,2.464641450E1
1.233173096E1,-1.707723770E1,-1.185938828E1,-1.314521439E1,2.459824789E1
1.234179796E1,-1.497845215E1,-1.073028625E1,-1.211101501E1,2.204925751E1
1.235186396E1,-1.211610443E1,-9.344767456E0,-1.084584595E1,1.875518701E1
1.236193096E1,-9.053024139E0,-8.062982941E0,-9.317374420E0,1.528994461E1
1.237199696E1,-5.457950134E0,-6.521338806E0,-7.656578064E0,1.144291340E1
1.238206396E1,-1.444346466E0,-5.090314636E0,-6.146967316E0,8.110650220E0
1.239212996E1,2.301913147E0,-3.908073120E0,-4.296665039E0,6.247653168E0
1.240219696E1,4.834795990E0,-2.970722351E0,-2.363135834E0,6.146938630E0
1.241226296E1,5.802982635E0,-2.544558563E0,-4.710704041E-1,6.353840813E0
1.242232996E1,5.593568115E0,-2.567760315E0,1.374890900E0,6.306482560E0
1.243239596E1,4.905000000E0,-2.606978760E0,2.742746429E0,6.194999696E0
1.244246296E1,4.494852905E0,-2.579436035E0,3.523522797E0,6.266769965E0
1.245252896E1,4.931644592E0,-2.389031982E0,3.673510895E0,6.597217178E0
1.246259596E1,5.296286316E0,-2.006128235E0,3.264860687E0,6.537164105E0
1.247266196E1,5.562283173E0,-1.754651184E0,2.657723236E0,6.409468595E0
1.248272896E1,5.879623260E0,-1.527723083E0,2.273771667E0,6.486443178E0
1.249279496E1,6.515800323E0,-1.488654327E0,2.075583801E0,6.998556542E0
1.250286196E1,7.007078705E0,-1.555415497E0,1.827998657E0,7.406756944E0
1.251292896E1,7.624694366E0,-1.442400513E0,1.943558350E0,7.999618896E0
1.252299496E1,8.997190247E0,-8.890013123E-1,2.058968353E0,9.272491917E0
1.253306196E1,8.754095764E0,-4.713697815E-1,1.747765503E0,8.939298987E0
1.254312796E1,7.776927795E0,-3.749702454E-1,2.087558899E0,8.060962150E0
1.255319496E1,7.274871826E0,-1.535806274E-1,2.558629303E0,7.713230906E0
1.256326096E1,7.508086853E0,8.143066406E-2,2.223476257E0,7.830826637E0
1.257332796E1,8.961414642E0,1.754351807E-1,1.121018829E0,9.032962588E0
1.258339396E1,1.190519302E1,5.069956970E-1,-4.352947998E-1,1.192393170E1
1.259346096E1,1.700538712E1,1.091380463E0,-2.495011597E0,1.722206100E1
1.260352696E1,2.401276520E1,1.491498413E0,-5.093757477E0,2.459235298E1
1.261359396E1,3.186633362E1,1.516197052E0,-8.389154663E0,3.298696694E1
1.262365996E1,3.944282822E1,1.403331757E0,-1.157033936E1,4.112880731E1
1.263372696E1,4.514252563E1,1.746717682E0,-1.475751160E1,4.752560144E1
1.264379296E1,4.878340439E1,4.304448853E0,-1.849568802E1,5.234920533E1
1.265385996E1,5.117093948E1,8.531957703E0,-2.095731903E1,5.595059044E1
1.266392596E1,5.080974060E1,1.085333038E1,-1.814990707E1,5.503493115E1
1.267399296E1,4.871799042E1,9.742191010E0,-9.155411224E0,5.051905018E1
1.268405996E1,4.446204071E1,7.765401764E0,1.307081909E0,4.515399198E1
1.269412596E1,3.897729630E1,7.547305298E0,1.010773087E1,4.096776375E1
1.270419296E1,3.463602402E1,8.082891541E0,1.640124344E1,3.916615991E1
1.271425896E1,3.145468964E1,8.093369751E0,1.820559128E1,3.723363651E1
1.272432596E1,2.949631210E1,6.686894531E0,1.496707581E1,3.374552332E1
1.273439196E1,2.690041031E1,4.355642395E0,8.879085846E0,2.866080705E1
1.274445896E1,2.256946655E1,2.305505676E0,3.135230255E0,2.290252924E1
1.275452496E1,1.710612762E1,8.683442688E-1,-5.581892395E-1,1.713724597E1
1.276459196E1,1.119851257E1,-1.276844788E-1,-2.154918823E0,1.140467721E1
1.277465796E1,6.024671631E0,-1.065184937E0,-1.961371307E0,6.424816310E0
1.278472496E1,1.979783020E0,-2.209405518E0,-9.493258667E-1,3.114840790E0
1.279479096E1,-1.313817902E0,-3.070564728E0,7.035369873E-2,3.340574033E0
1.280485796E1,-3.541485443E0,-3.603606262E0,7.948471069E-1,5.114672928E0
1.281492396E1,-4.593348083E0,-4.380640411E0,1.194815369E0,6.458826580E0
1.282499096E1,-5.524411926E0,-5.352569275E0,1.423539734E0,7.822761044E0
1.283505796E1,-6.467750244E0,-6.426885223E0,1.402882690E0,9.225222314E0
1.284512396E1,-7.278763733E0,-7.333998871E0,7.788304138E-1,1.036216762E1
1.285519096E1,-8.344547424E0,-7.825876007E0,-5.152285767E-1,1.145169278E1
1.286525696E1,-9.453591156E0,-7.898175659E0,-2.203268280E0,1.251423012E1
1.287532396E1,-1.026430527E1,-7.653883667E0,-4.015250244E0,1.341864868E1
1.288538996E1,-1.070364166E1,-7.326664124E0,-5.642366638E0,1.414511411E1
1.289545696E1,-1.074495575E1,-6.979535980E0,-7.319029999E0,1.475588685E1
1.290552296E1,-1.049048492E1,-6.453529816E0,-8.980574799E0,1.524299986E1
1.291558996E1,-9.868378601E0,-5.787415009E0,-1.023317001E1,1.534916406E1
1.292565596E1,-8.755442963E0,-4.907993774E0,-1.082473984E1,1.476215353E1
1.293572296E1,-7.057673492E0,-4.064048767E0,-1.075917618E1,1.349396604E1
1.294578896E1,-5.193599854E0,-3.371439056E0,-9.988878021E0,1.175235146E1
1.295585596E1,-3.571123810E0,-2.801125031E0,-8.537645874E0,9.669054958E0
1.296592196E1,-2.197729797E0,-2.397713928E0,-6.749464417E0,7.492283914E0
1.297598896E1,-1.073866882E0,-2.152823181E0,-4.903802490E0,5.462153110E0
1.298605596E1,-2.731819153E-1,-1.923500061E0,-3.134631500E0,3.687871403E0
1.299612196E1,3.942800903E-1,-1.604064331E0,-1.453028412E0,2.199947893E0
1.300618896E1,7.848179626E-1,-1.258283386E0,-1.932481384E-1,1.495513677E0
1.301625496E1,5.541476440E-1,-1.063837738E0,8.442443848E-1,1.466826140E0
1.302632196E1,1.553768921E-1,-1.005010071E0,2.019151154E0,2.260787164E0
1.303638796E1,5.463638306E-1,-6.661148071E-1,2.855761414E0,2.982883776E0
1.304645496E1,1.201551361E0,1.107696533E-2,3.077001343E0,3.303299205E0
1.305652096E1,2.060914307E0,6.011499023E-1,2.644101562E0,3.405880511E0
1.306658796E1,2.952160950E0,1.234482880E0,2.200124817E0,3.883265567E0
1.307665396E1,4.300556946E0,1.964215393E0,1.810634766E0,5.062739417E0
1.308672096E1,6.917714539E0,2.633623352E0,9.551637268E-1,7.463449882E0
1.309678696E1,1.123518631E1,3.370391235E0,-2.863545227E-1,1.173332636E1
1.310685396E1,1.676468765E1,4.316124573E0,-1.683698730E0,1.739305967E1
1.311691996E1,2.205842926E1,6.145620117E0,-3.552113342E0,2.317240724E1
1.312698696E1,2.667557785E1,8.994795227E0,-7.148833923E0,2.904476926E1
1.313705296E1,3.296983887E1,1.121587646E1,-1.097697327E1,3.651438212E1
1.314711996E1,4.357842819E1,1.422417068E1,-1.406639877E1,4.795070396E1
1.315718587E1,5.699757294E1,1.767449570E1,-1.821053101E1,6.239178278E1
1.316725187E1,6.686684967E1,1.761057861E1,-1.799393143E1,7.144990995E1
1.317731888E1,6.719841019E1,1.306228683E1,-7.610923004E0,6.887797774E1
1.318738488E1,5.750905930E1,8.439749451E0,8.965605927E0,5.881244223E1
1.319745188E1,4.167319016E1,7.191944275E0,2.410317719E1,4.867588716E1
1.320751788E1,2.913226913E1,7.137158203E0,3.268572968E1,4.436197760E1
1.321758488E1,2.280193314E1,6.918013916E0,3.072076584E1,3.887868986E1
1.322765087E1,1.987222549E1,6.138884125E0,2.253084686E1,3.066317506E1
1.323771787E1,1.857651993E1,4.854854279E0,1.120285355E1,2.222972403E1
1.324778388E1,1.666080368E1,4.408781891E0,4.246669006E-1,1.723949184E1
1.325785088E1,1.413196243E1,4.404590607E0,-7.300019531E0,1.650463770E1
1.326791688E1,1.143277542E1,4.487667847E0,-1.131646729E1,1.670059725E1
1.327798388E1,8.197403412E0,3.975133667E0,-1.055380325E1,1.394209000E1
1.328805088E1,4.349205780E0,2.369273071E0,-6.759343872E0,8.379604727E0
1.329811687E1,9.333091736E-1,4.890330505E-1,-2.627635803E0,2.831022651E0
1.330818387E1,-1.196461945E0,-9.452842712E-1,9.512718201E-1,1.797220525E0
1.331824988E1,-1.994153137E0,-1.721120911E0,3.296145630E0,4.219417014E0
1.332831688E1,-2.027683411E0,-2.246228943E0,4.404740295E0,5.344041687E0
1.333838288E1,-1.886826324E0,-2.837798767E0,4.711751862E0,5.814965264E0
1.334844988E1,-1.691482544E0,-3.425925751E0,4.028871918E0,5.552466963E0
1.335851588E1,-1.623224487E0,-3.934418335E0,2.409988403E0,4.891068337E0
1.336858288E1,-2.010319519E0,-4.439767456E0,6.237528992E-1,4.913449635E0
1.337864887E1,-2.828967133E0,-4.835394745E0,-1.177451477E0,5.724551455E0
1.338871587E1,-4.113895111E0,-5.344037018E0,-3.211721191E0,7.469807069E0
1.339878188E1,-5.966592407E0,-5.971681824E0,-5.310955811E0,9.973337474E0
1.340884888E1,-7.859705658E0,-6.452182617E0,-6.653963013E0,1.215240130E1
1.341891488E1,-9.455237732E0,-6.828649750E0,-7.190896454E0,1.370186008E1
1.342898188E1,-1.079704742E1,-6.929989014E0,-7.316485291E0,1.476929036E1
1.343904888E1,-1.185819077E1,-6.784790955E0,-7.428302765E0,1.555087645E1
1.344911487E1,-1.203527252E1,-6.462810516E0,-7.304210815E0,1.549087474E1
1.345918187E1,-1.093176727E1,-6.018684082E0,-6.477330322E0,1.406001074E1
1.346924788E1,-9.272916870E0,-5.467380524E0,-5.414091339E0,1.204954863E1
1.347931488E1,-7.639214172E0,-4.907095642E0,-4.519401855E0,1.014209909E1
1.348938088E1,-6.102060699E0,-4.469854889E0,-3.638334045E0,8.393582199E0
1.349944788E1,-4.512965240E0,-4.137396240E0,-2.819087677E0,6.740338140E0
1.350951388E1,-2.767594757E0,-3.764970703E0,-2.196532288E0,5.163268270E0
1.351958087E1,-1.115630035E0,-3.289110260E0,-1.567240906E0,3.810396401E0
1.352964687E1,7.527845764E-1,-2.748733978E0,-7.951464844E-1,2.958797227E0
1.353971387E1,2.345771942E0,-2.125879211E0,-4.236190796E-2,3.166039001E0
1.354977988E1,3.492237854E0,-1.390608215E0,7.017407227E-1,3.823866692E0
1.355984688E1,4.541406097E0,-6.978488159E-1,1.824555817E0,4.943719879E0
1.356991288E1,5.194198608E0,-9.624984741E-2,3.145109711E0,6.072946427E0
1.357997988E1,4.766088867E0,5.023553467E-1,4.455933838E0,6.543952197E0
1.359004587E1,4.813540192E0,1.011746063E0,5.547913055E0,7.414387267E0
1.360011287E1,7.240742798E0,1.681303711E0,6.023025055E0,9.567234148E0
1.361017987E1,1.240350677E1,3.141068115E0,5.192402344E0,1.380848766E1
1.362024588E1,1.930954559E1,5.453010406E0,2.986888733E0,2.028584181E1
1.363031288E1,2.688424393E1,7.902067566E0,-3.276686096E-1,2.802342966E1
1.364037888E1,3.233485931E1,9.603728943E0,-4.820725250E0,3.407365740E1
1.365044588E1,3.816283997E1,1.002016296E1,-1.012434631E1,4.073460947E1
1.366051188E1,4.697007523E1,9.254355469E0,-1.639495651E1,5.060262504E1
1.367057887E1,5.891044510E1,9.745484161E0,-2.649131104E1,6.532384376E1
1.368064487E1,6.696729080E1,9.879904633E0,-3.349120468E1,7.552411101E1
1.369071188E1,6.221467392E1,8.753047943E0,-2.802247696E1,6.879346418E1
1.370077788E1,4.939458344E1,4.015399933E0,-1.559232559E1,5.195256420E1
1.371084488E1,3.515349792E1,3.038681030E0,-9.583071899E-1,3.529759696E1
1.372091088E1,2.591890137E1,5.443130951E0,1.117007172E1,2.874347969E1
1.373097788E1,2.293335983E1,8.450826416E0,1.580024323E1,2.910331848E1
1.374104488E1,2.187191711E1,1.083027832E1,1.427266983E1,2.827339369E1
1.375111087E1,2.155996582E1,1.084719315E1,9.130562897E0,2.580428073E1
1.376117787E1,2.001712418E1,9.330846405E0,1.274898834E0,2.212182908E1
1.377124388E1,1.658745621E1,7.089108124E0,-6.497837677E0,1.917344653E1
1.378131088E1,1.291843597E1,5.120701447E0,-1.122306152E1,1.786238174E1
1.379137688E1,8.663384399E0,3.471131744E0,-1.245514938E1,1.556385977E1
1.380144388E1,3.466940460E0,1.529669037E0,-1.051742889E1,1.117926089E1
1.381150987E1,-1.405128021E0,-5.090913391E-1,-6.441554718E0,6.612653471E0
1.382157687E1,-4.943470001E0,-2.257156219E0,-2.671344910E0,6.055471367E0
1.383164288E1,-6.834637299E0,-3.526666260E0,1.151106262E-1,7.691741829E0
1.384170988E1,-7.454947357E0,-4.226910095E0,2.123633881E0,8.829089982E0
1.385177588E1,-7.311246185E0,-4.409680023E0,3.361110535E0,9.175873948E0
1.386184288E1,-6.757397919E0,-4.225562897E0,3.936513977E0,8.888979172E0
1.387190888E1,-5.979615326E0,-3.959416351E0,4.051025848E0,8.236721903E0
1.388197588E1,-5.406307526E0,-3.804638214E0,3.879033508E0,7.664876644E0
1.389204287E1,-5.310207367E0,-3.774850159E0,3.631598053E0,7.458974488E0
1.390210887E1,-5.828729095E0,-3.655548248E0,3.273542633E0,7.619264875E0
1.391217588E1,-6.939718781E0,-3.353177032E0,2.834056549E0,8.211904133E0
1.392224188E1,-7.963889008E0,-3.090623016E0,2.365530853E0,8.864040556E0
1.393230888E1,-8.693621521E0,-2.957998810E0,1.724563751E0,9.343603814E0
1.394237488E1,-8.924591217E0,-3.112178192E0,7.533833313E-1,9.481643736E0
1.395244188E1,-8.594677277E0,-3.197500763E0,-3.435356140E-1,9.176628212E0
1.396250787E1,-8.060587921E0,-3.030747528E0,-1.265318756E0,8.703995621E0
1.397257487E1,-7.234904938E0,-2.758912811E0,-2.271975403E0,8.069530444E0
1.398264088E1,-5.995931396E0,-2.404449921E0,-3.337908783E0,7.271465311E0
1.399270788E1,-4.543801117E0,-2.147883453E0,-3.837869110E0,6.323667545E0
1.400277388E1,-3.315305786E0,-2.041903839E0,-3.820056152E0,5.454672561E0
1.401284088E1,-2.437082062E0,-1.870659943E0,-3.758983154E0,4.854759721E0
1.402290788E1,-1.780547333E0,-1.771865387E0,-3.394640808E0,4.222966016E0
1.403297388E1,-1.246607666E0,-1.836081848E0,-2.308499451E0,3.202248732E0
1.404304087E1,-4.722679138E-1,-1.904788971E0,-1.102607117E0,2.250999880E0
1.405310687E1,4.098477173E-1,-1.858535156E0,-3.321592712E-1,1.931957003E0
1.406317388E1,6.379733276E-1,-1.646725616E0,1.782792664E-1,1.774964428E0
1.407323988E1,1.231489105E0,-1.137185211E0,7.361691284E-1,1.830765033E0
1.408330688E1,2.973416748E0,-2.733316040E-1,1.172362061E0,3.207857560E0
1.409337288E1,5.579796753E0,6.186634827E-1,1.181642761E0,5.736998860E0
1.410343988E1,8.813522186E0,1.416055298E0,5.348377991E-1,8.942563246E0
1.411350587E1,1.343052109E1,2.401755524E0,-1.246308289E0,1.370038724E1
1.412357287E1,1.991937744E1,4.293371887E0,-3.134182434E0,2.061644342E1
1.413363888E1,2.459235992E1,6.260281677E0,-4.321962433E0,2.574207941E1
1.414370588E1,2.714260666E1,7.344926147E0,-4.980293427E0,2.855647666E1
1.415377200E1,2.864024231E1,7.562723236E0,-5.264851685E0,3.008615837E1
1.416383900E1,3.115650970E1,6.937623138E0,-6.344855804E0,3.254406101E1
1.417390600E1,3.806344666E1,6.299200745E0,-8.018675079E0,3.940564745E1
1.418397200E1,4.647999435E1,7.211703186E0,-1.060095520E1,4.821595990E1
1.419403900E1,5.157569778E1,8.881929932E0,-1.330298630E1,5.399917338E1
1.420410500E1,5.022131424E1,1.052775742E1,-1.211281128E1,5.272318539E1
1.421417200E1,4.468732224E1,1.085827011E1,-5.668562164E0,4.633563850E1
1.422423800E1,3.847030060E1,1.036085449E1,2.727328491E0,3.993431675E1
1.423430500E1,3.364388718E1,1.080557968E1,1.052461395E1,3.687057357E1
1.424437100E1,3.140723831E1,1.206865311E1,1.573872116E1,3.714531397E1
1.425443800E1,3.034579559E1,1.336480774E1,1.706181976E1,3.729063005E1
1.426450400E1,2.872781021E1,1.444780563E1,1.485615646E1,3.542219011E1
1.427457100E1,2.656615540E1,1.484268448E1,1.025891647E1,3.211403528E1
1.428463700E1,2.427681610E1,1.442295731E1,4.955894165E0,2.866960733E1
1.429470400E1,2.125190643E1,1.357452164E1,1.606159973E-1,2.521779059E1
1.430477100E1,1.774035873E1,1.213227081E1,-3.021616516E0,2.170351330E1
1.431483700E1,1.393706772E1,1.016700760E1,-3.915407867E0,1.769011924E1
1.432490400E1,1.033690430E1,7.929759979E0,-3.359164581E0,1.345424359E1
1.433497000E1,7.073091431E0,5.423372040E0,-2.041005707E0,9.143702257E0
1.434503700E1,3.711980896E0,3.383114777E0,-9.228309631E-1,5.106455204E0
1.435510300E1,1.301992493E0,1.132395172E0,-3.851490784E-1,1.768005399E0
1.436517000E1,-3.444337463E-1,-1.871258698E0,-4.129911804E-1,1.946999084E0
1.437523600E1,-2.408042450E0,-4.995112610E0,-1.449884949E0,5.731665098E0
1.438530300E1,-5.207520905E0,-7.751780090E0,-3.424728241E0,9.946714637E0
1.439536900E1,-8.404572601E0,-9.866732025E0,-5.924230499E0,1.425081571E1
1.440543600E1,-1.139011414E1,-1.129820526E1,-8.100554810E0,1.797228784E1
1.441550200E1,-1.399394943E1,-1.189037384E1,-9.371262360E0,2.061630833E1
1.442556900E1,-1.580593140E1,-1.174742111E1,-9.801916809E0,2.199788497E1
1.443563500E1,-1.623493927E1,-1.109133545E1,-9.423354034E0,2.180345331E1
1.444570200E1,-1.508967087E1,-9.959089966E0,-7.952961731E0,1.975174018E1
1.445576900E1,-1.286978714E1,-8.779542847E0,-6.075116730E0,1.672180723E1
1.446583500E1,-1.045470932E1,-7.762407990E0,-4.502487030E0,1.377781965E1
1.447590200E1,-8.203989716E0,-6.762936401E0,-3.301384735E0,1.113291953E1
1.448596800E1,-5.991291046E0,-5.870043182E0,-2.468367004E0,8.743329516E0
1.449603500E1,-3.593876495E0,-5.097499695E0,-1.715432739E0,6.468628980E0
1.450610100E1,-1.100960541E0,-4.277953949E0,-1.086590424E0,4.549030979E0
1.451616800E1,9.830058289E-1,-3.237018585E0,-5.498066711E-1,3.427371756E0
1.452623400E1,2.705174561E0,-2.239343262E0,1.463955688E-1,3.514834180E0
1.453630100E1,4.159550171E0,-1.573378143E0,7.833210754E-1,4.515635981E0
1.454636700E1,4.741390228E0,-9.286688232E-1,1.248703308E0,4.990237172E0
1.455643400E1,4.791386261E0,-1.895059204E-1,1.661544800E0,5.074842452E0
1.456650000E1,4.519701233E0,2.808160400E-1,2.402653656E0,5.126334116E0
1.457656700E1,4.061204681E0,4.537065125E-1,3.219804382E0,5.202535279E0
1.458663400E1,3.654051361E0,5.361849976E-1,3.769161987E0,5.276946824E0
1.459670000E1,3.110980682E0,6.604266357E-1,4.069587250E0,5.164872170E0
1.460676700E1,2.540666656E0,7.671546936E-1,4.266128540E0,5.024277670E0
1.461683300E1,2.711311798E0,9.758207703E-1,4.237388306E0,5.124343616E0
1.462690000E1,3.204685822E0,1.493294678E0,3.900738373E0,5.264570264E0
1.463696600E1,3.561094666E0,2.133213959E0,3.322790222E0,5.317229718E0
1.464703300E1,3.982468414E0,2.835254059E0,2.710563354E0,5.589800886E0
1.465709900E1,4.571194153E0,3.695814514E0,1.972897339E0,6.200579394E0
1.466716600E1,5.935457153E0,4.853357391E0,7.545808411E-1,7.704162630E0
1.467723200E1,6.443800049E0,5.837560730E0,-2.189945984E-1,8.697564773E0
1.468729900E1,5.830375671E0,6.684649200E0,-6.887178040E-1,8.896749272E0
1.469736500E1,5.173092499E0,7.565866699E0,-1.353784790E0,9.264769731E0
1.470743200E1,5.364694061E0,8.735384674E0,-2.625989227E0,1.058218820E1
1.471749900E1,6.781348114E0,1.049482590E1,-3.994742889E0,1.311815626E1
1.472756500E1,1.024349854E1,1.305375458E1,-4.871020660E0,1.729325340E1
1.473763200E1,1.449600540E1,1.596984055E1,-5.412594452E0,2.223659503E1
1.474769800E1,1.938693466E1,1.889041718E1,-6.040089569E0,2.773416266E1
1.475776500E1,2.546279984E1,2.052411987E1,-5.404211884E0,3.314813989E1
1.476783100E1,3.208293320E1,2.136716675E1,-3.711980896E0,3.872530464E1
1.477789800E1,3.842374741E1,2.275133835E1,-2.068249054E0,4.470218580E1
1.478796400E1,4.274840424E1,2.403506882E1,-4.185296631E-1,4.904371280E1
1.479803100E1,4.466636581E1,2.395543442E1,1.933529205E0,5.072164832E1
1.480809700E1,4.280513626E1,2.201172638E1,5.954617310E0,4.850003357E1
1.481816400E1,3.750151520E1,2.012954041E1,1.104253693E1,4.397157788E1
1.482823000E1,3.338747040E1,1.905253006E1,1.466245926E1,4.114255452E1
1.483829700E1,3.217035141E1,1.774889099E1,1.434287384E1,3.944201657E1
1.484836400E1,3.226720001E1,1.650422928E1,1.045156586E1,3.771998157E1
1.485843000E1,3.222259277E1,1.582164871E1,4.620741119E0,3.619352568E1
1.486849700E1,3.130649780E1,1.489836868E1,-1.851649475E0,3.472012097E1
1.487856300E1,2.872900772E1,1.311557602E1,-7.196884003E0,3.239088388E1
1.488863000E1,2.429013840E1,1.090257797E1,-1.021850052E1,2.851832363E1
1.489869600E1,1.903621399E1,8.915909271E0,-1.040561142E1,2.345522607E1
1.490876300E1,1.396446075E1,6.872658234E0,-8.660989380E0,1.781157860E1
1.491882900E1,9.603579254E0,4.809348907E0,-6.419101410E0,1.251253109E1
1.492889600E1,6.128256226E0,2.874322815E0,-4.007466431E0,7.866196235E0
1.493896200E1,3.511398010E0,1.090931396E0,-1.880689087E0,4.130016797E0
1.494902900E1,1.682052155E0,-5.046006775E-1,-2.758763123E-1,1.777647050E0
1.495909500E1,2.899470520E-1,-1.803749084E0,9.232800293E-1,2.046955316E0
1.496916200E1,-1.226250000E0,-2.747087402E0,1.529219971E0,3.374713614E0
1.497922800E1,-2.676883392E0,-3.539389801E0,1.297052765E0,4.623346270E0
1.498929500E1,-3.835623779E0,-4.330345001E0,6.581813049E-1,5.822121627E0
1.499936200E1,-4.559668121E0,-4.976850586E0,1.381626892E-1,6.751200194E0
1.500942800E1,-4.914879456E0,-5.258864136E0,-1.862127686E-1,7.200442157E0
1.501949500E1,-5.086722107E0,-5.342091064E0,-3.438349915E-1,7.384504129E0
1.502956100E1,-5.004542999E0,-5.349575500E0,-4.068539429E-1,7.336820755E0
1.503962800E1,-4.757706299E0,-5.283113708E0,-3.365002441E-1,7.117604379E0
1.504969400E1,-4.463118896E0,-5.044809265E0,-1.143621826E-1,6.736661600E0
1.505976100E1,-4.048780518E0,-4.688250732E0,9.684860229E-2,6.195296463E0
1.506982700E1,-3.611240387E0,-4.433181152E0,2.486329651E-1,5.723283202E0
1.507989400E1,-3.356320496E0,-4.123924255E0,4.468208313E-1,5.335849266E0
1.508996000E1,-2.938239899E0,-3.602259064E0,6.923103333E-1,4.699874218E0
1.510002700E1,-2.386936340E0,-3.100502472E0,9.033714294E-1,4.015801366E0
1.511009300E1,-1.896107025E0,-2.669848022E0,8.623567200E-1,3.386291397E0
1.512016000E1,-1.494043121E0,-2.270179138E0,5.664221191E-1,2.776096573E0
1.513022700E1,-1.311273193E0,-1.920655975E0,5.448669434E-2,2.326225605E0
1.514029300E1,-1.241667938E0,-1.623374176E0,-3.805087280E-1,2.078910743E0
1.515036088E1,-1.231638794E0,-1.364861755E0,-6.595285034E-1,1.953140952E0
1.516042687E1,-1.251547394E0,-1.297202454E0,-1.003962250E0,2.063260837E0
1.517049387E1,-1.287472687E0,-1.374142456E0,-1.269360352E0,2.270931331E0
1.518055988E1,-1.477277985E0,-1.277144165E0,-1.404080200E0,2.405179551E0
1.519062688E1,-1.134790192E0,-1.137484589E0,-1.419947205E0,2.144264450E0
1.520069288E1,-5.754034424E-1,-1.108894043E0,-1.242416382E0,1.761911912E0
1.521075988E1,4.640350342E-2,-1.059047699E0,-1.121767273E0,1.543404396E0
1.522082588E1,9.018745422E-1,-8.011340332E-1,-1.129700775E0,1.652699994E0
1.523089287E1,1.719025269E0,-2.621049500E-1,-1.142873383E0,2.080842725E0
1.524095887E1,2.193837891E0,2.173480225E-1,-1.038540344E0,2.436951148E0
1.525102588E1,2.457439728E0,4.649331665E-1,-6.408174133E-1,2.581824902E0
1.526109288E1,2.540816345E0,6.489006042E-1,-1.537303162E-1,2.626871277E0
1.527115888E1,2.385589142E0,7.782316589E-1,3.035687256E-1,2.527614298E0
1.528122588E1,2.476300507E0,9.690847778E-1,6.643185425E-1,2.740895589E0
1.529129188E1,2.898572388E0,1.508263550E0,9.641450500E-1,3.406780959E0
1.530135888E1,3.175945587E0,2.223775635E0,1.219064941E0,4.064225360E0
1.531142487E1,4.040697327E0,3.169658661E0,1.273401947E0,5.291079609E0
1.532149187E1,5.290897522E0,4.578079834E0,1.087039490E0,7.080541392E0
1.533155788E1,6.468049622E0,6.227050781E0,7.840695190E-1,9.012579672E0
1.534162488E1,7.654931488E0,7.917335815E0,4.637356567E-1,1.102257834E1
1.535169088E1,8.377478943E0,9.654174042E0,1.040336609E-1,1.278264655E1
1.536175788E1,9.139095154E0,1.158051819E1,-2.700384521E-1,1.475480879E1
1.537182388E1,1.070439011E1,1.371298370E1,-2.583627319E-1,1.739817924E1
1.538189087E1,1.271081772E1,1.645423325E1,2.694396973E-1,2.079373166E1
1.539195787E1,1.586386093E1,1.981968475E1,1.124611359E0,2.541154734E1
1.540202388E1,2.005469604E1,2.289144699E1,2.714155884E0,3.055447301E1
1.541209088E1,2.528467026E1,2.456152405E1,6.091732178E0,3.577278595E1
1.542215688E1,3.028562073E1,2.649759796E1,9.131610718E0,4.126412285E1
1.543222388E1,3.520828400E1,3.008937881E1,8.869505768E0,4.715572194E1
1.544228988E1,4.126379150E1,3.240715897E1,6.669081573E0,5.289046313E1
1.545235688E1,4.450230698E1,3.131727539E1,4.814737701E0,5.462974248E1
1.546242287E1,4.120182037E1,2.780333267E1,4.816084900E0,4.993806147E1
1.547248987E1,3.393712738E1,2.439267517E1,6.937323761E0,4.236576068E1
1.548255588E1,2.823293930E1,2.237921219E1,8.496032410E0,3.701500461E1
1.549262288E1,2.614163818E1,2.099698654E1,7.761958923E0,3.441666307E1
1.550268888E1,2.536400528E1,1.938244400E1,5.166356506E0,3.233733351E1
1.551275588E1,2.415526886E1,1.792851746E1,2.032024384E0,3.015025497E1
1.552282288E1,2.208866638E1,1.646171768E1,-8.922944641E-1,2.756253836E1
1.553288887E1,1.910731613E1,1.443238770E1,-3.410058746E0,2.418701811E1
1.554295587E1,1.599049759E1,1.212613358E1,-4.931494904E0,2.066540033E1
1.555302188E1,1.384426071E1,9.668843536E0,-5.732778625E0,1.783297061E1
1.556308888E1,1.288295975E1,6.925648041E0,-6.404132538E0,1.596709636E1
1.557315488E1,1.206101898E1,4.018992462E0,-6.745123444E0,1.439156592E1
1.558322188E1,1.085797073E1,1.146166534E0,-6.360573120E0,1.263590585E1
1.559328788E1,9.209598541E0,-1.442400513E0,-5.234315186E0,1.069089706E1
1.560335487E1,6.872209167E0,-3.490142212E0,-3.934867401E0,8.653989425E0
1.561342087E1,3.828139343E0,-4.641996918E0,-2.596799927E0,6.553331677E0
1.562348788E1,7.875123596E-1,-5.040767670E0,-1.299597473E0,5.264833142E0
1.563355388E1,-1.820065155E0,-5.285808105E0,-2.483335876E-1,5.595897968E0
1.564362088E1,-4.379891968E0,-5.543272705E0,7.059320068E-1,7.099976474E0
1.565368788E1,-6.960824890E0,-5.624254303E0,1.727856903E0,9.114318905E0
1.566375388E1,-9.192084961E0,-5.776487732E0,2.772085419E0,1.120476211E1
1.567382088E1,-1.062400726E1,-5.916596375E0,3.741469574E0,1.272298069E1
1.568388687E1,-1.113070358E1,-5.791157227E0,4.593647461E0,1.336157406E1
1.569395387E1,-1.097008759E1,-5.513634338E0,5.322182465E0,1.338165204E1
1.570401988E1,-1.047506699E1,-5.170547791E0,5.691015472E0,1.299420063E1
1.571408688E1,-9.314230957E0,-4.597689056E0,5.401218109E0,1.170755312E1
1.572415288E1,-7.345824280E0,-3.806434479E0,4.285887451E0,9.317666502E0
1.573421988E1,-5.657485199E0,-3.012335815E0,2.715503082E0,6.960981456E0
1.574428588E1,-4.371958466E0,-2.364333344E0,1.460213470E0,5.180378014E0
1.575435287E1,-3.288361816E0,-1.816921692E0,6.123765564E-1,3.806511909E0
1.576441887E1,-2.661764832E0,-1.373843079E0,1.134640503E-1,2.997550819E0
1.577448588E1,-2.460583191E0,-1.079854431E0,-1.663041687E-1,2.692250417E0
1.578455288E1,-2.165995789E0,-8.975335693E-1,-3.305126953E-1,2.367771717E0
1.579461888E1,-1.502874756E0,-7.737409973E-1,-4.363426208E-1,1.745767036E0
1.580468588E1,-3.150947571E-1,-4.578977966E-1,-6.358776855E-1,8.445682501E-1
1.581475188E1,1.316811676E0,1.673519897E-1,-1.130598907E0,1.743632292E0
1.582481888E1,2.797382812E0,6.524931335E-1,-1.724863129E0,3.350559759E0
1.583488487E1,3.521127777E0,9.392967224E-1,-2.110760651E0,4.211404716E0
1.584495187E1,3.768114166E0,1.158441010E0,-2.346071320E0,4.587452515E0
1.585501788E1,3.820654907E0,1.186133423E0,-2.301913147E0,4.615530365E0
1.586508488E1,3.859424286E0,1.194965057E0,-1.982477417E0,4.500368209E0
1.587515088E1,3.467090149E0,1.100212097E0,-1.587748260E0,3.968894720E0
1.588521788E1,2.894231415E0,7.994874573E-1,-9.047186279E-1,3.135964201E0
1.589528488E1,2.537972260E0,5.266049194E-1,3.038681030E-2,2.592207416E0
1.590535087E1,2.535577240E0,4.492158508E-1,8.140072632E-1,2.700658187E0
1.591541787E1,2.594853973E0,4.746629333E-1,1.263971558E0,2.925097629E0
1.592548388E1,2.787353668E0,6.746470642E-1,1.393452301E0,3.188447655E0
1.593555088E1,3.061134338E0,9.481283569E-1,1.635049896E0,3.597621295E0
1.594561688E1,3.492237854E0,1.151705017E0,2.210004272E0,4.290252738E0
1.595568388E1,4.290976868E0,1.799108734E0,2.351460114E0,5.213313666E0
1.596574988E1,5.263654175E0,3.115471344E0,2.021845551E0,6.442055293E0
1.597581687E1,6.057303772E0,4.700974274E0,1.743574219E0,7.863214302E0
1.598588287E1,6.745123444E0,6.293662262E0,1.508562927E0,9.347868048E0
1.599594988E1,7.695497131E0,7.742948456E0,1.472487946E0,1.101554119E1
1.600601688E1,8.662186890E0,9.002429352E0,1.899100800E0,1.263660555E1
1.601608288E1,9.623487854E0,1.056023987E1,2.146536255E0,1.444776116E1
1.602614988E1,1.078342575E1,1.260049713E1,1.335522766E0,1.663846207E1
1.603621588E1,1.229737747E1,1.509296402E1,-4.733157349E-1,1.947426721E1
1.604628288E1,1.362242203E1,1.785292465E1,-3.031196594E0,2.266021742E1
1.605634887E1,1.517529282E1,2.083711899E1,-5.235063629E0,2.630362962E1
1.606641587E1,1.856214981E1,2.279684372E1,-5.196443939E0,2.985385266E1
1.607648188E1,2.354977798E1,2.313798431E1,-3.371289368E0,3.318620125E1
1.608654888E1,2.801469315E1,2.404030792E1,-2.049537964E0,3.697242274E1
1.609661488E1,3.232453079E1,2.554423050E1,-1.207389221E0,4.121699639E1
1.610668188E1,3.618215881E1,2.571023529E1,2.478845215E-1,4.438723084E1
1.611674787E1,3.612572617E1,2.420795929E1,3.203188934E0,4.360451586E1
1.612681487E1,3.215238876E1,2.236154892E1,6.918313293E0,3.977031597E1
1.613688087E1,2.770423874E1,2.111134872E1,9.420210571E0,3.608260324E1
1.614694788E1,2.545890793E1,1.989452911E1,9.452094269E0,3.366437832E1
1.615701496E1,2.523497360E1,1.899939056E1,7.065307617E0,3.236818355E1
1.616708096E1,2.561937424E1,1.927017746E1,3.699257355E0,3.227036691E1
1.617714796E1,2.551728653E1,2.013148636E1,-1.002764740E0,3.251790571E1
1.618721396E1,2.447051331E1,2.030617310E1,-6.011648712E0,3.236180785E1
1.619728096E1,2.279998718E1,1.975756393E1,-9.108259277E0,3.151445915E1
1.620734696E1,2.077799194E1,1.861723526E1,-9.685458984E0,2.953192364E1
1.621741396E1,1.865540588E1,1.692635147E1,-8.303832092E0,2.652318175E1
1.622747996E1,1.686647598E1,1.439406738E1,-5.807922363E0,2.292158699E1
1.623754696E1,1.500674332E1,1.111753098E1,-2.953807526E0,1.890837959E1
1.624761296E1,1.273042694E1,7.763904877E0,-2.806663513E-1,1.491377761E1
1.625767996E1,1.006985962E1,4.639901276E0,1.784289551E0,1.123006882E1
1.626774696E1,7.363188171E0,1.922003174E0,3.197051697E0,8.254197465E0
1.627781296E1,4.899461517E0,-4.719685364E-1,3.824546814E0,6.233348682E0
1.628787996E1,2.598147125E0,-2.513273621E0,3.817511444E0,5.257404911E0
1.629794596E1,4.555027771E-1,-4.086651764E0,3.395838318E0,5.332909459E0
1.630801296E1,-1.478176117E0,-5.294190674E0,2.820883942E0,6.178255881E0
1.631807896E1,-3.222947845E0,-6.268963623E0,2.251617737E0,7.399802711E0
1.632814596E1,-4.712799683E0,-7.228618011E0,1.441801758E0,8.748839438E0
1.633821196E1,-6.316115570E0,-8.117020569E0,5.569917297E-1,1.029997954E1
1.634827896E1,-8.018824768E0,-8.568032684E0,-3.212319946E-1,1.173950275E1
1.635834496E1,-9.294621735E0,-8.725954285E0,-1.051114197E0,1.279207225E1
1.636841196E1,-9.700427856E0,-8.910819855E0,-1.470841370E0,1.325384418E1
1.637847796E1,-8.982221375E0,-8.942254486E0,-1.532962189E0,1.276691776E1
1.638854496E1,-7.649991760E0,-8.552764435E0,-1.326242065E0,1.155123679E1
1.639861196E1,-6.516399078E0,-7.798632660E0,-8.587641907E-1,1.019900016E1
1.640867796E1,-5.657934265E0,-6.953789520E0,-3.700305176E-1,8.972420600E0
1.641874496E1,-5.002896423E0,-5.986950073E0,-2.841091919E-1,7.807256998E0
1.642881096E1,-3.871249695E0,-4.926106110E0,-7.116201782E-1,6.305513372E0
1.643887796E1,-2.414928131E0,-3.760180664E0,-1.476978607E0,4.706623239E0
1.644894396E1,-1.739382935E0,-2.983745270E0,-2.286495209E0,4.142010281E0
1.645901096E1,-1.426234131E0,-2.492915955E0,-3.056943054E0,4.194481445E0
1.646907696E1,-1.525028687E0,-1.941462708E0,-3.631448364E0,4.391173779E0
1.647914396E1,-1.814376984E0,-1.424138489E0,-3.708088989E0,4.366927779E0
1.648920996E1,-1.800455933E0,-9.237290955E-1,-3.338956604E0,3.904298684E0
1.649927696E1,-1.083297272E0,-3.028202820E-1,-2.811004486E0,3.027701987E0
1.650934396E1,5.517526245E-1,6.897656250E-1,-2.419718170E0,2.575896659E0
1.651940996E1,2.336790619E0,1.945055237E0,-2.263592834E0,3.790472634E0
1.652947696E1,3.786675568E0,2.997217255E0,-2.699935455E0,5.532799887E0
1.653954296E1,5.032235413E0,3.803740082E0,-3.058889008E0,7.010608662E0
1.654960996E1,5.156327362E0,4.298012238E0,-2.713856506E0,7.240555103E0
1.655967596E1,4.111949158E0,4.241429901E0,-1.765728149E0,6.165683205E0
1.656974296E1,2.363584900E0,3.501368866E0,9.430389404E-3,4.224477062E0
1.657980896E1,1.133442993E0,2.426304474E0,2.151026917E0,3.434903669E0
1.658987596E1,8.523275757E-1,1.702858887E0,3.556604004E0,4.034305730E0
1.659994196E1,2.061513062E0,1.231489105E0,3.879332886E0,4.562414400E0
1.661000896E1,4.770729218E0,1.407223663E0,2.663112030E0,5.642012176E0
1.662007496E1,6.926695862E0,2.151925049E0,8.505313110E-1,7.302965185E0
1.663014196E1,8.298143921E0,2.651136932E0,-1.142124939E-1,8.712104456E0
1.664020896E1,8.393046570E0,3.238665161E0,-2.752775574E-1,9.000442238E0
1.665027496E1,7.530390472E0,4.127067719E0,3.070115662E-1,8.592655278E0
1.666034196E1,7.219037933E0,5.234764252E0,1.811981964E0,9.099480430E0
1.667040796E1,7.489675140E0,6.671027527E0,3.124602356E0,1.050528352E1
1.668047496E1,8.184530182E0,7.930358734E0,3.464844818E0,1.191143457E1
1.669054096E1,8.700806580E0,8.242609406E0,3.914360046E0,1.260820604E1
1.670060796E1,7.539521484E0,9.292376404E0,4.805157623E0,1.289504491E1
1.671067396E1,6.969207458E0,1.150956573E1,5.928870850E0,1.470345080E1
1.672074096E1,7.922724609E0,1.461141541E1,7.194938049E0,1.811160288E1
1.673080696E1,1.037627243E1,1.812685501E1,7.647447052E0,2.224260211E1
1.674087396E1,1.468221817E1,2.256078461E1,6.469247131E0,2.768406926E1
1.675094096E1,2.063908081E1,2.726834518E1,3.688180389E0,3.439675828E1
1.676100696E1,2.709320938E1,3.141217804E1,5.287005615E-1,4.148549684E1
1.677107396E1,3.346321289E1,3.488555511E1,-1.916913757E0,4.837833328E1
1.678113996E1,3.881473434E1,3.599145538E1,-1.816023560E0,5.296476569E1
1.679120696E1,4.092534531E1,3.388967606E1,1.558858337E0,5.315848071E1
1.680127296E1,3.919479401E1,3.037887680E1,6.713389435E0,5.004175887E1
1.681133996E1,3.520124863E1,2.660896637E1,1.100571350E1,4.547846442E1
1.682140596E1,3.125425644E1,2.326626755E1,1.301797897E1,4.108059795E1
1.683147296E1,2.842723526E1,2.071706863E1,1.260438904E1,3.736542868E1
1.684153896E1,2.659220123E1,1.853146362E1,1.075184143E1,3.414912011E1
