"Time (s)","Linear Acceleration x (m/s^2)","Linear Acceleration y (m/s^2)","Linear Acceleration z (m/s^2)","Absolute acceleration (m/s^2)"
2.005425002E-2,1.448196565E0,-6.833453822E-1,3.252999026E0,3.625773967E0
3.009024996E-2,-9.058317185E-1,3.403126287E0,2.826753377E0,4.515787227E0
4.012725002E-2,-2.049594389E0,-8.095668876E-1,1.837943602E-1,2.211338073E0
5.016424996E-2,-1.074426680E0,-8.198940645E0,-7.038998070E-1,8.298945435E0
6.020125002E-2,-3.485748176E-1,-9.363413642E0,1.658479397E0,9.515543776E0
7.023724995E-2,7.344862998E-2,-1.024737875E1,2.462151707E0,1.053927687E1
8.027425001E-2,1.123011780E0,-9.557087458E0,2.478398488E0,9.936877538E0
9.031124995E-2,1.386544693E0,-4.535693952E0,2.048287829E0,5.166285788E0
1.003482500E-1,1.438338452E0,1.692879444E0,2.433046314E0,3.294597499E0
1.103842499E-1,1.092625773E0,3.058731133E0,3.615417930E0,4.860135187E0
1.204212500E-1,9.404459926E-1,3.459013390E0,5.426900250E0,6.503880274E0
1.304582499E-1,1.823685605E0,3.747001625E0,5.779749309E0,7.125401914E0
1.404952500E-1,2.247805060E0,3.481825717E0,4.385683050E0,6.034066102E0
1.505312499E-1,1.460298547E0,2.376895502E0,3.810940051E0,4.722855931E0
1.605682500E-1,2.002785382E-1,1.732960938E0,3.180007356E0,3.627080353E0
1.706052499E-1,-7.985298295E-1,1.463021888E0,1.648787345E0,2.344479183E0
1.806422500E-1,-2.054427552E0,1.555296798E0,8.789733374E-1,2.722538305E0
1.906782499E-1,-3.221920782E0,1.780152061E0,5.081736186E-1,3.715905719E0
2.007152500E-1,-3.849380524E0,2.287908481E0,6.057072222E-2,4.478384133E0
2.107522499E-1,-3.917912815E0,3.051189394E0,-6.468189955E-1,5.007811134E0
2.207892500E-1,-3.496328566E0,3.649943107E0,-1.239731340E0,5.204164863E0
2.308252499E-1,-2.462139135E0,3.670833455E0,-8.250476834E-1,4.496426476E0
2.408622500E-1,-1.223908117E0,3.644836149E0,-4.392296836E-1,3.869845520E0
2.508992499E-1,-9.078328550E-2,3.250422742E0,-3.881589326E-1,3.274775865E0
2.609362500E-1,1.122777891E0,3.234742849E0,-4.549303347E-1,3.454150127E0
2.709722499E-1,3.744233260E0,2.865788804E0,4.212035363E0,6.322441781E0
2.810092500E-1,6.599313766E0,2.109678916E0,5.847686938E0,9.066263278E0
2.910462499E-1,4.193993195E0,-2.424887109E-1,2.322918684E0,4.800451115E0
3.010832500E-1,5.185388609E0,-2.106061828E0,-2.254584468E0,6.033813269E0
3.111192500E-1,5.988482044E0,-2.757007204E0,-5.975233423E0,8.897551369E0
3.211562500E-1,4.792541671E0,-3.235674310E0,-8.337257116E0,1.014632446E1
3.311932500E-1,2.066816194E0,-4.072390990E0,-8.933614640E0,1.003322322E1
3.412302500E-1,-1.481462837E0,-4.387645376E0,-6.549154011E0,8.021071147E0
3.512662500E-1,-2.789681445E0,-3.646616042E0,-3.531829059E0,5.792576941E0
3.613032500E-1,-2.476223908E0,-1.962389892E0,-2.032425503E0,3.756782181E0
3.713402500E-1,-1.230613485E0,-8.909706545E-1,-1.921984755E0,2.449951766E0
3.813772500E-1,9.935009231E-1,-1.083929356E0,-2.152308334E0,2.606602788E0
3.914132500E-1,2.253315476E0,-1.783701906E0,-2.025169839E0,3.515726952E0
4.014502499E-1,1.244315557E0,-2.425461305E0,-3.620166162E-1,2.749952687E0
4.114872500E-1,-5.110780037E-1,-3.013483624E0,1.501775772E0,3.405527088E0
4.215242499E-1,-1.603357695E0,-3.801715776E0,2.112839628E0,4.635503212E0
4.315602500E-1,-2.074792381E0,-5.530329309E0,2.421466926E0,6.383792584E0
4.415972499E-1,-2.337433813E0,-7.052690495E0,3.673763202E0,8.288581068E0
4.516342500E-1,-2.390141492E0,-5.696507762E0,5.530231075E0,8.291346862E0
4.616712499E-1,-2.469017799E0,-1.994003448E0,5.195524757E0,6.088150470E0
4.717072500E-1,-1.837124407E0,2.898786396E-1,3.537999626E0,3.997061053E0
4.817442499E-1,-1.465642025E0,1.383384565E0,2.920526051E0,3.548426668E0
4.917812500E-1,-7.566120176E-1,1.419601049E0,2.555353693E0,3.019529993E0
5.018182499E-1,-3.449411385E-1,8.235867566E-1,2.048013156E0,2.234197266E0
5.118542500E-1,-5.020600623E-1,5.701672608E-1,1.364977676E0,1.562152063E0
5.218912499E-1,-8.876181534E-1,-2.827391893E-1,8.727603784E-1,1.276525798E0
5.319282500E-1,-1.361926161E0,-1.802197818E0,3.802703078E-1,2.290712848E0
5.419652499E-1,-1.420745934E0,-3.407423406E0,1.454554097E-1,3.694619135E0
5.520012500E-1,-1.229271549E0,-4.144753207E0,-5.571988674E-1,4.358962980E0
5.620382499E-1,-1.780841155E0,-3.316592758E0,-8.834509890E-1,3.866738729E0
5.720752500E-1,-2.835896083E0,-1.168917466E0,-8.993087109E-1,3.196471616E0
5.821122499E-1,-3.237049868E0,3.765349603E-1,-1.090227319E0,3.436403066E0
5.921482500E-1,-3.309424364E0,9.867924857E-1,-1.435520679E0,3.739888856E0
6.021852500E-1,-3.340996405E0,1.474169605E0,-1.845578896E0,4.091649357E0
6.122222500E-1,-3.082002466E0,1.661518487E0,-2.116645288E0,4.091401980E0
6.222592500E-1,-2.537914080E0,1.708392692E0,-2.209722437E0,3.773921927E0
6.322952500E-1,-1.901539527E0,2.018401541E0,-1.923892994E0,3.375079496E0
6.423322500E-1,-1.425343308E0,2.198168923E0,-1.388207349E0,2.964906373E0
6.523692500E-1,-9.945498405E-1,2.363274413E0,-1.182474162E0,2.823551041E0
6.624052500E-1,-2.876393753E-1,2.545468390E0,-1.129216626E0,2.799513515E0
6.724422500E-1,3.432223129E-1,2.498877191E0,-1.196644378E0,2.791799874E0
6.824792500E-1,7.519403847E-1,2.115334927E0,-1.639558100E0,2.779965280E0
6.925162500E-1,1.734127457E0,2.171825463E0,-2.179822115E0,3.532088381E0
7.025522500E-1,2.758818379E0,2.308025826E0,-2.781842083E0,4.547164769E0
7.125892499E-1,2.899558228E0,2.249643717E0,-2.607142482E0,4.501724857E0
7.226262500E-1,2.608637615E0,2.279109591E0,-1.152666080E0,3.650749214E0
7.326632499E-1,2.097460720E0,2.119568312E0,9.987523806E-1,3.144744444E0
7.426992500E-1,1.236499292E0,1.921361734E0,3.098563535E0,3.849890569E0
7.527362499E-1,6.933422206E-1,1.644710666E0,4.267407034E0,4.625641512E0
7.627732500E-1,5.680594857E-1,1.478173193E0,4.504328903E0,4.774585473E0
7.728102499E-1,2.446412171E-1,9.308369708E-1,4.349141461E0,4.454361709E0
7.828462500E-1,5.588917094E-1,3.992174792E-1,3.671095995E0,3.734793213E0
7.928832499E-1,1.446527478E0,1.031595021E-1,2.559547316E0,2.941830398E0
8.029202500E-1,1.973970303E0,1.328019619E-2,9.078574133E-1,2.172772469E0
8.129572499E-1,1.645418179E0,2.129070622E-1,-2.841090457E-1,1.683284988E0
8.229932500E-1,2.158142101E0,1.087741156E0,-7.256054755E-1,2.523343309E0
8.330302499E-1,2.762725488E0,2.170616258E0,-9.853844762E-1,3.649001183E0
8.430672500E-1,2.503126655E0,2.453284696E0,-3.734037763E0,5.121258328E0
8.531042499E-1,1.029098114E0,2.110510975E0,-5.020121151E0,5.542103921E0
8.631402500E-1,3.456742697E-1,2.339142369E0,-4.034071262E0,4.675982107E0
8.731772499E-1,-1.625231252E0,1.726643021E0,-3.346090207E0,4.101096490E0
8.832142500E-1,-3.713963394E0,5.943911058E-1,-4.534794651E0,5.891620100E0
8.932512499E-1,-4.796668636E0,-6.920413613E-1,-6.186319662E0,7.858594162E0
9.032872500E-1,-3.595358765E0,-2.205639326E0,-6.040906425E0,7.367767635E0
9.133242500E-1,-1.405220992E0,-3.042463594E0,-4.724256717E0,5.792221705E0
9.233612500E-1,4.387659994E-1,-2.776574911E0,-3.603579365E0,4.570302843E0
9.333982500E-1,2.341058794E0,-1.646030967E0,-3.987818617E0,4.908428622E0
9.434342500E-1,2.309711286E0,-5.126903003E-1,-4.377496364E0,4.975951365E0
9.534712500E-1,3.499840111E0,1.229751313E-1,-3.539427223E0,4.979111242E0
9.635082500E-1,5.214888396E0,5.314429057E-1,-3.728674697E0,6.432768264E0
9.735452500E-1,5.192064375E0,6.288855851E-1,-4.630631100E0,6.985397192E0
9.835812500E-1,4.535031755E0,5.328029680E-1,-3.943080400E0,6.033098297E0
9.936182500E-1,4.245322393E0,2.021476007E-1,-2.128344398E0,4.753259486E0
1.003655292E0,3.526423600E0,-4.247768283E-1,-3.762226824E-1,3.571784186E0
1.013691292E0,2.344115426E0,-1.501058026E0,1.411973941E-1,2.787111234E0
1.023728292E0,1.345612137E0,-2.476273025E0,7.364802003E-1,2.912902882E0
1.033765292E0,4.927681605E-2,-3.182189829E0,1.423194748E0,3.486293677E0
1.043802292E0,-1.490708162E0,-3.449451438E0,2.012689980E0,4.262844943E0
1.053838292E0,-3.177816696E0,-3.348233212E0,2.395987684E0,5.200955833E0
1.063875292E0,-4.870869218E0,-3.512048221E0,2.629011068E0,6.555268784E0
1.073912292E0,-6.198249736E0,-3.978337941E0,2.484255059E0,7.772837047E0
1.083949292E0,-8.055336537E0,-4.835340366E0,2.088133242E0,9.624409780E0
1.093985292E0,-9.683187926E0,-5.967739631E0,1.800360184E0,1.151604713E1
1.104022292E0,-7.965995175E0,-6.944194824E0,5.153152616E-1,1.058038141E1
1.114059292E0,-3.431976157E0,-6.503742780E0,-1.156172144E0,7.444048933E0
1.124096292E0,-3.830520110E-2,-6.362893295E0,6.968685302E-1,6.401054923E0
1.134132292E0,1.878859055E0,-5.936892645E0,1.754015007E0,6.469418387E0
1.144169292E0,4.353467816E0,-4.312175948E0,1.870155913E0,6.406639257E0
1.154206292E0,7.667195438E0,-2.316296128E0,3.575622950E0,8.771327899E0
1.164243292E0,8.390404798E0,-1.379372790E0,5.577602878E0,1.016913053E1
1.174279292E0,8.206512204E0,4.865561700E-1,8.542225413E0,1.185551325E1
1.184316292E0,6.949166712E0,2.421383457E0,1.013158283E1,1.252209992E1
1.194353292E0,4.155510330E0,2.995788780E0,9.992299812E0,1.122893904E1
1.204390292E0,2.308841220E0,3.794760513E0,8.666628435E0,9.738655120E0
1.214426292E0,1.963043319E0,4.375110700E0,5.288583194E0,7.138924632E0
1.224463292E0,6.512585671E-1,3.557959973E0,-1.111929917E-1,3.618781670E0
1.234500292E0,-7.591519019E-1,3.617016851E0,-5.043097200E0,6.252355707E0
1.244537292E0,-2.069554883E0,3.924910762E0,-7.857191355E0,9.023493664E0
1.254573292E0,-3.859158530E0,3.824739772E0,-5.909342319E0,8.027581549E0
1.264610292E0,-5.039660207E0,4.266983403E0,-2.891558360E0,7.208774661E0
1.274647292E0,-5.673493121E0,4.050902472E0,-9.086628672E-1,7.030220711E0
1.284683292E0,-5.008888650E0,3.178365750E0,5.467962322E-1,5.957345085E0
1.294720292E0,-3.958816719E0,2.166571155E0,2.480732696E0,5.149785927E0
1.304757292E0,-3.009226266E0,1.564914883E0,4.117270124E0,5.334446043E0
1.314794292E0,-2.321665626E0,1.629117896E0,4.808094680E0,5.582287242E0
1.324830292E0,-2.032526075E0,2.108791893E0,4.354928158E0,5.248196333E0
1.334867292E0,-1.737265365E0,2.443422782E0,3.517121265E0,4.621530897E0
1.344904292E0,-1.719226120E0,2.569479396E0,2.559220164E0,4.013423809E0
1.354941292E0,-1.622837986E0,2.891841073E0,1.202806466E0,3.527476622E0
1.364977292E0,-8.531474284E-1,3.674273372E0,-5.932541147E-1,3.818389162E0
1.375014292E0,1.189445505E0,3.982889414E0,-2.464257874E0,4.832261951E0
1.385051292E0,1.150367393E0,2.958625631E0,-3.419217533E0,4.665603852E0
1.395088292E0,-8.865577608E-1,9.793559968E-1,-8.181427065E-1,1.553859813E0
1.405124292E0,6.571551186E-1,1.598099586E0,9.399942952E-1,1.967070007E0
1.415161292E0,5.630845869E0,2.812486171E0,-1.223478420E0,6.411973417E0
1.425198292E0,9.161201137E0,-3.758490819E-1,-4.117056408E0,1.005082197E1
1.435235292E0,1.017720047E1,-2.111303857E0,-4.031774183E0,1.114846251E1
1.445271292E0,7.795392718E0,-3.700664195E0,-2.491701488E0,8.981739220E0
1.455308292E0,4.643165776E0,-5.207781106E0,-1.231118099E0,7.084887031E0
1.465345292E0,1.616776470E0,-5.491969820E0,-5.978164047E-2,5.725318550E0
1.475381292E0,-1.095354815E0,-5.038700679E0,9.608176920E-1,5.245138448E0
1.485418292E0,-8.509550880E-1,-3.161417010E0,-1.497398546E0,3.600122843E0
1.495455292E0,1.411368316E0,-1.748257254E0,-5.185007955E0,5.650900056E0
1.505492292E0,3.335440966E0,-9.476646727E-1,-7.587143548E0,8.341941140E0
1.515528292E0,3.477921824E0,-8.565714848E-1,-6.517451577E0,7.436856189E0
1.525565292E0,2.048259178E0,-1.478829251E0,-1.230195409E0,2.809925685E0
1.535602292E0,-6.428781914E-1,-3.380694614E0,3.877892132E0,5.184634590E0
1.545639292E0,-2.065495892E0,-4.953754669E0,5.773340760E0,7.882729358E0
1.555675292E0,-1.803247832E0,-5.102582679E0,5.505442389E0,7.719970767E0
1.565712292E0,-1.264795430E0,-3.850151771E0,3.329349629E0,5.244801721E0
1.575749292E0,-5.729019304E-1,-2.280350370E0,1.434073054E0,2.754047922E0
1.585786292E0,3.210248570E-1,-1.004205494E0,4.766059631E-1,1.156995625E0
1.595822292E0,-1.132919960E-2,-8.291878045E-2,6.552916110E-1,6.606140858E-1
1.605859292E0,-4.837072603E-1,8.686389685E-2,1.884571638E0,1.947595520E0
1.615896292E0,-9.459681762E-1,-6.547045505E-1,2.889784023E0,3.110360998E0
1.625932292E0,-2.020940548E0,-2.425536150E0,3.327938988E0,4.587221841E0
1.635969292E0,-2.536076885E0,-4.094633213E0,3.040749483E0,5.695951592E0
1.646006292E0,-2.660545687E0,-5.100246132E0,2.212473259E0,6.163282557E0
1.656043292E0,-2.556289832E0,-4.684385138E0,1.417226057E0,5.521468240E0
1.666079292E0,-2.612341534E0,-3.084461805E0,9.221173105E-1,4.145905601E0
1.676116292E0,-3.010105395E0,-1.348023528E0,7.606713009E-1,3.384748551E0
1.686153292E0,-3.075062991E0,2.425664788E-1,2.672259414E-1,3.096168697E0
1.696190292E0,-3.234912126E0,1.315722924E0,-3.665688197E-1,3.511432183E0
1.706226292E0,-3.001254465E0,1.801413122E0,-1.180728257E-1,3.502364742E0
1.716263292E0,-2.804324042E0,2.154593133E0,-7.192659974E-2,3.537185087E0
1.726300292E0,-2.682770661E0,1.872528128E0,-6.370247631E-1,3.333079741E0
1.736337292E0,-2.557230649E0,1.330940888E0,-5.277018571E-1,2.930751011E0
1.746373292E0,-2.925163770E0,6.162456590E-1,-6.620392978E-1,3.061803035E0
1.756410292E0,-3.045394219E0,-2.174170196E-2,5.207974648E-1,3.089680994E0
1.766447292E0,-2.512911093E0,1.089903456E-1,2.110559360E0,3.283452736E0
1.776483292E0,-2.061442603E0,9.811008060E-1,1.732280760E0,2.865815944E0
1.786520292E0,-1.339936098E0,1.401491053E0,1.577017450E0,2.499317899E0
1.796557292E0,-1.943349896E-1,1.464890074E0,1.465820804E0,2.081417701E0
1.806594292E0,8.054552718E-1,1.743566617E0,6.205392694E-1,2.018378490E0
1.816630292E0,1.796668983E0,2.626393855E0,-7.760927474E-1,3.275405939E0
1.826667292E0,2.446732453E0,2.581742177E0,-1.744144907E0,3.961556994E0
1.836704292E0,2.918825389E0,2.472311536E0,-1.628324283E0,4.157319563E0
1.846741292E0,2.724048788E0,2.628201814E0,-1.856651183E0,4.216045563E0
1.856777292E0,2.058859887E0,2.837709889E0,-2.017387633E0,4.044917096E0
1.866814292E0,1.426266875E0,2.579561166E0,-2.099738649E0,3.619015806E0
1.876851292E0,8.520883515E-1,2.172253479E0,-1.509638815E0,2.779163379E0
1.886888292E0,1.955796609E-1,1.536472857E0,-3.260261267E-3,1.548874066E0
1.896924292E0,-3.787990753E-1,9.319239682E-1,1.872195421E0,2.125343906E0
1.906961292E0,-1.358384064E0,2.223526543E-1,3.337591864E0,3.610286335E0
1.916998292E0,-2.647720989E0,-6.651120096E-1,4.839184910E0,5.556123740E0
1.927034292E0,-3.039255519E0,-1.484468890E0,5.960925286E0,6.853710839E0
1.937071292E0,-1.893778518E0,-1.156222576E0,4.261984034E0,4.804971969E0
1.947108292E0,1.532982215E0,-4.925238383E-1,-1.902099252E-2,1.610272027E0
1.957145292E0,2.665730998E0,6.976383162E-1,-3.714883454E0,4.625276213E0
1.967181292E0,3.150997857E0,1.788063928E0,-5.198158343E0,6.336151061E0
1.977218292E0,3.217114078E0,2.543638796E0,-6.289941094E0,7.508880095E0
1.987255292E0,2.586925734E0,3.280028949E0,-6.152674198E0,7.436812116E0
1.997292292E0,2.154242593E0,4.257290474E0,-3.913780003E0,6.171139055E0
2.007328000E0,1.305404928E0,4.868812752E0,-2.866709740E0,5.798917517E0
2.017365000E0,-1.199751442E0,3.561743122E0,-5.218601963E0,6.431113748E0
2.027402000E0,-2.265611586E0,8.603131181E-1,-4.848163894E0,5.420131702E0
2.037439000E0,-1.938618768E0,-2.600012387E0,-3.921894184E0,5.089161142E0
2.047475000E0,-1.034626072E-1,-4.835457310E0,-2.903675838E0,5.641248557E0
2.057512000E0,1.471011816E0,-5.860527424E0,-2.454527230E0,6.521837269E0
2.067549000E0,1.696773836E0,-5.193953025E0,-3.005333775E0,6.236042060E0
2.077585000E0,1.784769315E0,-2.959171761E0,-3.341632290E0,4.807141082E0
2.087622000E0,3.424417754E0,-8.045125544E-1,-2.837542659E0,4.519460780E0
2.097659000E0,4.608471322E0,2.175632000E-1,-2.785184351E0,5.389118067E0
2.107696000E0,4.389996541E0,9.686514992E-1,-3.724682803E0,5.838117619E0
2.117732000E0,3.793954766E0,1.486096171E0,-4.119899032E0,5.794492440E0
2.127769000E0,3.470266941E0,1.418279579E0,-3.014755393E0,4.810719248E0
2.137806000E0,2.665941790E0,7.130679488E-1,-1.723285550E0,3.253524952E0
2.147842000E0,1.323486857E0,-2.198851293E-1,-1.003652347E0,1.675495439E0
2.157879000E0,2.958638861E-1,-8.552745724E-1,-4.136776435E-1,9.950674480E-1
2.167916000E0,-4.610218543E-1,-1.250559214E0,5.119026439E-1,1.427754816E0
2.177953000E0,-1.374345062E0,-1.282984949E0,1.328724793E0,2.302256351E0
2.187989000E0,-2.451272523E0,-1.157880262E0,1.683331525E0,3.191085820E0
2.198026000E0,-3.140538065E0,-9.820234966E-1,1.780498216E0,3.741326420E0
2.208063000E0,-4.046833687E0,-1.231079215E0,1.747193645E0,4.576582192E0
2.218100000E0,-5.457608072E0,-2.480706968E0,1.563971143E0,6.195595102E0
2.228136000E0,-6.978716201E0,-4.001667162E0,1.295420222E0,8.148247262E0
2.238173000E0,-8.406529080E0,-5.773000453E0,5.985477452E-1,1.021545519E1
2.248210000E0,-8.063446040E0,-7.514798872E0,-2.023111765E-1,1.102416863E1
2.258246000E0,-4.343425515E0,-7.970032677E0,-5.787677841E-1,9.095149159E0
2.268283000E0,-1.953956746E-1,-7.701639631E0,-3.422981970E-1,7.711718391E0
2.278320000E0,4.326406609E0,-5.967784654E0,-2.228337340E-1,7.374408634E0
2.288357000E0,7.164944757E0,-4.544496936E0,-9.854102039E-1,8.541657862E0
2.298393000E0,7.524131613E0,-3.221684847E0,1.667653386E0,8.353016078E0
2.308430000E0,9.138529728E0,-8.981510353E-1,5.303627495E0,1.060414379E1
2.318467000E0,1.028632471E1,1.230581617E0,9.651705347E0,1.415903328E1
2.328504000E0,8.126216485E0,5.013572270E-1,1.245445006E1,1.487951880E1
2.338540000E0,5.449636563E0,2.046067641E0,1.171530586E1,1.308179357E1
2.348577000E0,3.280723891E0,3.004866582E0,7.971260008E0,9.128710672E0
2.358614000E0,1.575426423E0,3.343038545E0,4.916924812E0,6.150936899E0
2.368651000E0,-6.310293205E-1,2.814385346E0,3.416547694E0,4.471214715E0
2.378687000E0,-1.344940584E0,2.902807526E0,8.630876219E-1,3.313619916E0
2.388724000E0,-2.721635642E0,3.193494835E0,-2.006163611E0,4.650849628E0
2.398761000E0,-3.787583640E0,3.763757406E0,-4.788644209E0,7.172361745E0
2.408797000E0,-4.832306538E0,4.093567851E0,-6.436066521E0,9.029475981E0
2.418834000E0,-6.477149059E0,3.716999561E0,-4.990646507E0,8.981987431E0
2.428871000E0,-6.937636587E0,3.025282136E0,-2.082240564E0,7.849768097E0
2.438908000E0,-5.873879541E0,2.732292193E0,6.033624887E-1,6.506299084E0
2.448944000E0,-4.653810048E0,2.523520281E0,2.772478352E0,5.976013619E0
2.458981000E0,-3.856916707E0,2.638916836E0,4.038732370E0,6.176653440E0
2.469018000E0,-3.194962779E0,2.863054646E0,3.876563352E0,5.782094126E0
2.479054000E0,-2.816939995E0,2.795680688E0,3.046606639E0,5.003278271E0
2.489091000E0,-2.521676947E0,2.662340198E0,2.568476891E0,4.477050758E0
2.499128000E0,-2.312399105E0,2.582083070E0,1.904440769E0,3.954900409E0
2.509165000E0,-1.272969253E0,2.870583521E0,5.552700171E-1,3.188890914E0
2.519201000E0,-1.003795896E-1,2.617726527E0,-1.032010174E-1,2.621682414E0
2.529238000E0,4.653525580E-1,1.574335917E0,5.249574664E-1,1.723562278E0
2.539275000E0,1.927376034E0,1.281315569E0,1.104196098E0,2.564331684E0
2.549312000E0,4.216961058E0,1.597889087E0,3.818333563E0,5.908949254E0
2.559348000E0,7.508990248E0,2.166033211E0,3.598549882E0,8.603847725E0
2.569385000E0,9.093748242E0,4.060604757E-1,-5.012275357E0,1.039153725E1
2.579422000E0,9.629933240E0,-2.695697393E0,-7.731914760E0,1.264060538E1
2.589458000E0,8.239498687E0,-4.503148350E0,-8.274160981E0,1.251516774E1
2.599495000E0,3.776860724E0,-5.788151173E0,-5.486333688E0,8.824240946E0
2.609532000E0,-4.468908517E-1,-5.584456984E0,-5.744041532E-1,5.631679267E0
2.619569000E0,-2.785813512E0,-4.438642452E0,1.558908623E0,5.467403390E0
2.629605000E0,-1.740915928E0,-2.650653368E0,-1.061006516E-1,3.173012590E0
2.639642000E0,1.143050188E0,-9.055501020E-1,-4.253712855E0,4.496738570E0
2.649679000E0,2.738941354E0,-2.049682975E-1,-6.682113263E0,7.224572610E0
2.659716000E0,3.379759644E0,-3.222488254E-1,-5.128439652E0,6.150407533E0
2.669752000E0,2.796619166E0,-9.852230930E-1,-9.302826548E-1,3.107598610E0
2.679789000E0,6.005292935E-1,-3.107872303E0,3.206413381E0,4.505617877E0
2.689826000E0,-9.009717321E-1,-5.378516879E0,4.595372097E0,7.131454171E0
2.699862000E0,-6.245999414E-1,-6.374001836E0,4.550661363E0,7.856624168E0
2.709899000E0,-2.324794471E-1,-6.109757974E0,4.040996412E0,7.328904502E0
2.719936000E0,-2.506987133E-1,-4.925679848E0,3.342618423E0,5.958042441E0
2.729973000E0,6.221298583E-2,-2.940779344E0,2.937434152E0,4.156990860E0
2.740009000E0,-1.039204442E-1,-6.266782612E-1,2.497112209E0,2.576644035E0
2.750046000E0,-3.800386119E-1,6.878079772E-1,2.555396085E0,2.673491783E0
2.760083000E0,-3.688576392E-1,6.391772693E-1,3.142111259E0,3.227610060E0
2.770119000E0,-5.388815872E-1,-5.351172960E-1,2.987239566E0,3.082262823E0
2.780156000E0,-1.033801980E0,-2.385146508E0,1.967692147E0,3.260288758E0
2.790193000E0,-1.534479834E0,-3.256989166E0,5.961752374E-1,3.649387852E0
2.800230000E0,-1.933615013E0,-2.674456798E0,-1.002051380E0,3.449013359E0
2.810266000E0,-2.575335675E0,-1.311257991E0,-1.515087104E0,3.263010924E0
2.820303000E0,-3.442311403E0,-1.940164626E-1,-1.166455349E0,3.639748380E0
2.830340000E0,-3.731017676E0,3.515767050E-1,-3.412376583E-1,3.763049590E0
2.840376000E0,-3.672130075E0,7.030890906E-1,2.990454657E-1,3.750773486E0
2.850413000E0,-3.641506745E0,1.060932257E0,4.050000831E-2,3.793123894E0
2.860450000E0,-3.983967640E0,1.196673029E0,-1.080629918E0,4.297881515E0
2.870487000E0,-4.779495948E0,7.448686159E-1,-7.863816543E-1,4.900694530E0
2.880523000E0,-4.730556799E0,5.787006873E-1,1.306523792E-1,4.767612837E0
2.890560000E0,-4.336211805E0,7.796899545E-1,4.920396888E-1,4.433142486E0
2.900597000E0,-3.349408210E0,1.033246860E0,1.303718591E0,3.739761569E0
2.910634000E0,-2.174258197E0,1.239440734E0,2.224710166E0,3.348573929E0
2.920670000E0,-7.428353197E-1,1.785816259E0,2.440285167E0,3.113829751E0
2.930707000E0,2.996086622E-1,1.896804598E0,1.534183087E0,2.457915942E0
2.940744000E0,6.235143328E-1,1.885263364E0,7.245333154E-1,2.113749417E0
2.950780000E0,1.035253040E0,2.102169337E0,-4.018778893E-1,2.377471475E0
2.960817000E0,1.877763725E0,2.325197344E0,-1.823925487E0,3.501320248E0
2.970854000E0,2.355015805E0,2.512455010E0,-2.999209986E0,4.566595029E0
2.980891000E0,2.117709189E0,2.377590736E0,-3.241037961E0,4.543342050E0
2.990927000E0,1.661552255E0,2.185348903E0,-3.020137171E0,4.081388765E0
3.000964000E0,1.398255789E0,2.166258913E0,-2.056941708E0,3.298303522E0
3.011002250E0,1.171347934E0,1.726716111E0,3.107596314E-1,2.109544041E0
3.021039250E0,7.615323034E-1,1.322991014E0,1.949809169E0,2.476286023E0
3.031075250E0,4.240058729E-1,1.009299003E0,2.861302235E0,3.063578943E0
3.041112250E0,4.071517854E-1,6.661984223E-1,3.150578027E0,3.245879668E0
3.051149250E0,6.477544038E-1,6.705002189E-2,3.292025682E0,3.355818017E0
3.061185250E0,-1.865634370E-1,-9.796670687E-1,4.212024254E0,4.328475689E0
3.071222250E0,-1.046934607E0,-1.377497588E0,3.516743535E0,3.919318406E0
3.081259250E0,-1.143592956E-1,-7.034492791E-1,5.879294208E-1,9.238939012E-1
3.091296250E0,1.763493344E0,4.427172554E-1,-3.333404088E0,3.797037023E0
3.101332250E0,3.030337931E0,1.248484038E0,-5.888859522E0,6.739460426E0
3.111369250E0,3.159624254E0,1.786781634E0,-5.706773719E0,6.763363092E0
3.121406250E0,2.458064210E0,2.634061893E0,-4.133272784E0,5.483092706E0
3.131442250E0,1.946969030E0,3.519781748E0,-3.787700000E0,5.525054140E0
3.141479250E0,1.309289818E0,3.833665547E0,-3.819916989E0,5.568033508E0
3.151516250E0,-2.168144640E-1,3.025014333E0,-4.434917775E0,5.372728906E0
3.161553250E0,-1.096634624E0,1.654233441E0,-4.026380419E0,4.488968151E0
3.171589250E0,-5.517917278E-1,-3.125056100E-1,-2.520225375E0,2.598782371E0
3.181626250E0,7.117319331E-1,-2.344417142E0,-2.078969339E0,3.213248760E0
3.191663250E0,1.299588410E0,-3.630405221E0,-2.966060951E0,4.864801092E0
3.201699250E0,1.715410812E0,-3.628570365E0,-3.443746895E0,5.288530025E0
3.211736250E0,2.758866618E0,-2.756694962E0,-2.646995934E0,4.713523057E0
3.221773250E0,4.129308956E0,-1.755515403E0,-2.465204245E0,5.119595566E0
3.231810250E0,4.331134668E0,-9.263702828E-1,-3.913249075E0,5.910195237E0
3.241846250E0,4.616846289E0,-3.566772312E-1,-4.301869061E0,6.320487776E0
3.251883250E0,4.747982964E0,-1.526474118E-1,-3.175315257E0,5.713954011E0
3.261920250E0,4.056530417E0,-5.791684645E-1,-1.344194187E0,4.312508916E0
3.271957250E0,2.799883667E0,-1.506356188E0,-3.816933008E-1,3.202209751E0
3.281993250E0,1.417459507E0,-2.212957116E0,-1.358752584E-1,2.631507693E0
3.292030250E0,3.319384658E-1,-2.231676393E0,2.718393946E-1,2.272544680E0
3.302067250E0,-6.128464167E-1,-1.775063229E0,1.550783333E0,2.435438183E0
3.312103250E0,-1.487410040E0,-1.116473204E0,2.413861599E0,3.047232984E0
3.322140250E0,-3.018271909E0,-6.486497587E-1,2.316379158E0,3.859575654E0
3.332177250E0,-4.557561370E0,-6.208094108E-1,2.073246231E0,5.045306720E0
3.342214250E0,-5.313083028E0,-1.283049268E0,1.680641952E0,5.718358510E0
3.352250250E0,-6.211320602E0,-2.535232839E0,1.156954720E0,6.807822955E0
3.362287250E0,-8.103396556E0,-4.293449070E0,7.514655177E-1,9.201273884E0
3.372324250E0,-8.621410162E0,-6.359792517E0,-3.474063246E-1,1.071897221E1
3.382360250E0,-6.370654305E0,-7.601549917E0,-1.883424414E0,1.009534967E1
3.392397250E0,-1.953494085E0,-6.734048232E0,-2.268662517E0,7.369557270E0
3.402434250E0,2.716490677E0,-5.199255280E0,-9.180912101E-1,5.937547351E0
3.412471250E0,5.053867772E0,-3.855900754E0,-8.133093980E-1,6.408667744E0
3.422507250E0,5.530981273E0,-2.407830781E0,-3.812492779E-1,6.044398558E0
3.432544250E0,6.888488985E0,-1.088442822E0,2.698665148E0,7.477886189E0
3.442581250E0,7.661482708E0,-2.139829499E-1,6.832510082E0,1.026777970E1
3.452617250E0,7.681700626E0,1.701378956E0,9.113124161E0,1.203961157E1
3.462654250E0,6.139669406E0,2.636134146E0,9.418583876E0,1.154792041E1
3.472691250E0,2.744463464E0,2.620325029E0,8.536134953E0,9.341508599E0
3.482728250E0,8.378875843E-1,3.373041778E0,6.807755309E0,7.643624716E0
3.492764250E0,-6.776003467E-1,3.496635545E0,3.466167751E0,4.969901532E0
3.502801250E0,-1.865838767E0,3.196540650E0,1.420809669E0,3.964584032E0
3.512838250E0,-3.142066820E0,3.108068184E0,4.986227766E-1,4.447616936E0
3.522874250E0,-3.978823845E0,3.441851227E0,-1.365780645E0,5.435322974E0
3.532911250E0,-4.783520586E0,3.524549568E0,-3.018422475E0,6.664487459E0
3.542948250E0,-5.155184231E0,3.257949863E0,-3.551012019E0,7.056900745E0
3.552985250E0,-5.156820867E0,2.787271222E0,-2.139234544E0,6.240032593E0
3.563021250E0,-4.860993855E0,2.631965666E0,3.056073573E-1,5.536235218E0
3.573058250E0,-4.025234365E0,2.707919244E0,2.175283798E0,5.316690505E0
3.583095250E0,-3.215199700E0,2.709758778E0,3.051291136E0,5.195255464E0
3.593131250E0,-2.541920007E0,2.810799834E0,3.336804829E0,5.049378129E0
3.603168250E0,-2.557485880E0,2.578122166E0,2.894790701E0,4.644056538E0
3.613205250E0,-2.356506553E0,2.354691870E0,2.202811320E0,3.993754455E0
3.623242250E0,-1.872570082E0,2.610948434E0,1.531624638E0,3.559416310E0
3.633278250E0,-1.163188876E0,3.500494707E0,-4.266151929E-1,3.713283194E0
3.643315250E0,8.601802401E-2,4.100929495E0,-7.720172381E-1,4.173851032E0
3.653352250E0,2.410458812E0,4.080547271E0,1.176562700E0,4.883183132E0
3.663389250E0,5.309788706E0,2.914883196E0,4.962992685E0,7.830817106E0
3.673425250E0,6.879127008E0,-7.214820921E-2,3.602506986E0,7.765671274E0
3.683462250E0,6.501812614E0,-1.702805092E0,-1.814618181E0,6.961749177E0
3.693499250E0,6.425070832E0,-2.777920940E0,-5.233462662E0,8.739994930E0
3.703535250E0,8.420588125E0,-3.509563154E0,-7.229574031E0,1.164002056E1
3.713572250E0,7.097794163E0,-3.937951807E0,-7.696024550E0,1.118547899E1
3.723609250E0,2.551812034E0,-4.786766961E0,-4.502377979E0,7.049559565E0
3.733646250E0,-6.092277577E-1,-4.620629438E0,-9.877774492E-1,4.764145165E0
3.743682250E0,-1.265927451E0,-2.898508653E0,7.568416670E-1,3.252189114E0
3.753719250E0,-5.230768557E-1,-6.588636750E-1,-1.717090425E-1,8.586004510E-1
3.763756250E0,8.638938799E-1,2.878818154E-2,-2.667333720E0,2.803892039E0
3.773792250E0,1.583484471E0,-1.055356352E0,-4.555457249E0,4.936941446E0
3.783829250E0,8.845889302E-1,-2.119757177E0,-3.432191627E0,4.129867725E0
3.793866250E0,-7.025247612E-1,-3.588826255E0,-4.401181680E-1,3.683329870E0
3.803903250E0,-1.988678974E0,-5.338037775E0,1.350090519E0,5.854249376E0
3.813939250E0,-1.609328287E0,-6.002877889E0,3.150230702E0,6.967670626E0
3.823976250E0,-5.862425722E-1,-5.469259819E0,3.748217553E0,6.656246551E0
3.834013250E0,5.715434761E-1,-3.575568863E0,3.317136257E0,4.910676897E0
3.844049250E0,1.990258307E0,-2.643997482E0,3.089279034E0,4.527195132E0
3.854086250E0,1.075256839E0,-1.545828987E0,2.840795757E0,3.408208483E0
3.864123250E0,-2.377684730E-1,3.995227039E-2,2.844106451E0,2.854307540E0
3.874160250E0,-6.508676807E-1,6.418295664E-1,2.829179971E0,2.973185706E0
3.884196250E0,-6.276551116E-1,-3.697147679E-1,2.558968734E0,2.660631679E0
3.894233250E0,-1.187169988E0,-1.989564827E0,2.001604829E0,3.061725440E0
3.904270250E0,-1.539161553E0,-2.724198477E0,1.074497066E0,3.308295569E0
3.914306250E0,-1.851383573E0,-2.886396146E0,-5.192559926E-1,3.468217212E0
3.924343250E0,-2.417665651E0,-2.596342674E0,-7.282180846E-1,3.621657640E0
3.934380250E0,-3.265216783E0,-1.391918576E0,-6.727255230E-1,3.612705024E0
3.944417250E0,-4.176430205E0,-1.837183464E-1,-1.374707443E0,4.400697927E0
3.954453250E0,-4.239395070E0,8.785780656E-1,-2.312839108E0,4.908522661E0
3.964490250E0,-3.706134850E0,6.123753870E-1,-1.647338551E0,4.101726885E0
3.974527250E0,-3.632628917E0,-4.277074528E-1,-4.340366252E-1,3.683383541E0
3.984564250E0,-4.382095491E0,1.852526557E-1,-9.582051560E-2,4.387056076E0
3.994600250E0,-4.805328362E0,5.876445884E-1,4.928267241E-1,4.866146834E0
4.004635750E0,-4.085899227E0,4.936734009E-1,2.700203258E0,4.922335173E0
4.014672750E0,-2.849898410E0,1.541181035E0,4.010202928E0,5.155471603E0
4.024708750E0,-2.044720881E0,2.474224745E0,3.480480273E0,4.734597607E0
4.034745750E0,-1.162053785E0,2.637664948E0,2.157949874E0,3.600610092E0
4.044782750E0,-2.132613304E-1,2.270134699E0,3.842510191E-1,2.312280432E0
4.054819750E0,4.492732632E-1,1.620654636E0,-5.412673974E-1,1.766730967E0
4.064855750E0,1.080873747E0,1.544511609E0,-7.465069326E-1,2.027579041E0
4.074892750E0,1.157242769E0,1.601510852E0,-7.484914776E-1,2.112886018E0
4.084929750E0,1.534189227E0,1.834890186E0,-1.198440642E0,2.675223084E0
4.094965750E0,2.122524079E0,2.228189113E0,-1.217120084E0,3.309277337E0
4.105002750E0,2.127897963E0,2.598503805E0,-1.541524851E0,3.695466227E0
4.115039750E0,1.586185884E0,2.775755716E0,-2.019189745E0,3.781260727E0
4.125076750E0,1.672374136E0,2.605231027E0,-2.050809149E0,3.713473053E0
4.135112750E0,1.484622965E0,1.978596035E0,-9.297447109E-1,2.642607206E0
4.145149750E0,2.725287996E-1,1.214024642E0,5.567685123E-1,1.363128370E0
4.155186750E0,-1.202511328E0,3.111484712E-1,2.963228559E0,3.213031335E0
4.165222750E0,-2.139271382E0,-5.446956199E-1,4.334171419E0,4.863971346E0
4.175259750E0,-1.883186287E0,-1.141621494E0,5.074088613E0,5.531371030E0
4.185296750E0,-7.069365585E-1,-1.072001621E0,4.100517851E0,4.296881825E0
4.195333750E0,7.917754915E-1,-4.168947816E-2,1.425348862E0,1.631032134E0
4.205369750E0,2.294942681E0,1.742115923E0,-2.356881652E0,3.722448243E0
4.215406750E0,3.283898637E0,2.756796119E0,-5.095950183E0,6.659776525E0
4.225443750E0,3.455652995E0,3.315410451E0,-6.753438184E0,8.279034448E0
4.235479750E0,3.023567440E0,4.055805947E0,-7.108682263E0,8.724957619E0
4.245516750E0,1.944646809E0,4.070239799E0,-2.636741087E0,5.225026966E0
4.255553750E0,4.649442762E-1,3.285566847E0,-2.454457063E0,4.127406227E0
4.265590750E0,-6.847142154E-1,2.250626634E0,-4.583492017E0,5.151946513E0
4.275626750E0,-1.075834470E0,4.583883780E-1,-5.009021966E0,5.143718574E0
4.285663750E0,-6.679732715E-1,-1.399500076E0,-4.462215502E0,4.723997877E0
4.295700750E0,2.946901672E-1,-3.072930511E0,-3.893092554E0,4.968492111E0
4.305736750E0,1.169187607E0,-4.009645103E0,-3.489621225E0,5.442583009E0
4.315773750E0,2.151452155E0,-3.776642330E0,-3.662307045E0,5.683684242E0
4.325810750E0,3.359751349E0,-3.242986838E0,-3.310977092E0,5.724287036E0
4.335847750E0,3.886315631E0,-2.780966170E0,-2.712222794E0,5.494849816E0
4.345883750E0,3.994716577E0,-1.958803210E0,-3.358821934E0,5.574617057E0
4.355920750E0,4.295433908E0,-9.478535378E-1,-3.837204866E0,5.837235645E0
4.365957750E0,4.207235384E0,-2.400299567E-1,-3.308220130E0,5.357496093E0
4.375994750E0,3.346096347E0,-1.059521323E-1,-1.665324440E0,3.739103115E0
4.386030750E0,2.070353467E0,-2.701208979E-1,-2.152816164E-1,2.098969974E0
4.396067750E0,6.482234236E-1,-2.080146968E-1,5.586991533E-1,8.806863601E-1
4.406104750E0,4.069066409E-2,2.398299819E-1,1.634387991E0,1.652391678E0
4.416140750E0,-2.768165080E-1,9.552210295E-1,2.581674349E0,2.766607497E0
4.426177750E0,-8.612503537E-1,1.574445845E0,2.909593220E0,3.418532521E0
4.436214750E0,-1.815221906E0,1.803584193E0,2.641811793E0,3.677922791E0
4.446251750E0,-2.875065704E0,1.254335346E0,1.542208976E0,3.495392465E0
4.456287750E0,-3.730228302E0,-3.659848291E-1,5.722249690E-1,3.791568210E0
4.466324750E0,-5.196153333E0,-3.015918989E0,-3.801590645E-1,6.019991505E0
4.476361750E0,-6.889991720E0,-6.575289311E0,-1.258528969E0,9.606784612E0
4.486397750E0,-7.519545057E0,-9.981510530E0,-2.511651603E0,1.274686252E1
4.496434750E0,-5.525973133E0,-1.180078280E1,-3.519259007E0,1.349740856E1
4.506471750E0,-9.758764650E-1,-1.107840842E1,-3.203219340E0,1.157342137E1
4.516508750E0,2.200404460E0,-9.146339854E0,-2.332468211E0,9.692147361E0
4.526544750E0,2.886379774E0,-6.434159160E0,-8.815136603E-1,7.106803685E0
4.536581750E0,3.276796609E0,-3.476680752E0,1.096884154E0,4.901822101E0
4.546618750E0,5.175881621E0,-1.595283567E0,3.405125450E0,6.397621397E0
4.556654750E0,7.388370375E0,-2.376969177E-1,8.188002259E0,1.103122376E1
4.566691750E0,7.973114160E0,1.782646483E-1,1.231648383E1,1.467303996E1
4.576728750E0,5.777382941E0,8.281206876E-1,1.357895733E1,1.478012246E1
4.586765750E0,3.699989426E0,2.053843269E0,1.177518603E1,1.251252173E1
4.596801750E0,1.226361243E0,2.722881099E0,8.586533275E0,9.091017383E0
4.606838750E0,7.489859328E-1,3.149500385E0,5.205456837E0,6.130017413E0
4.616875750E0,5.087727389E-1,3.365702938E0,1.469933005E0,3.707763342E0
4.626911750E0,-1.256671309E0,3.089997949E0,-1.844124401E0,3.811575122E0
4.636948750E0,-3.884025861E0,2.721471920E0,-4.042595333E0,6.231744806E0
4.646985750E0,-5.249144894E0,2.765687395E0,-5.338258799E0,7.981200154E0
4.657022750E0,-5.857869864E0,3.344476376E0,-5.531885837E0,8.723641584E0
4.667058750E0,-6.688675593E0,3.516833582E0,-3.408153139E0,8.289873790E0
4.677095750E0,-6.431025637E0,3.408247279E0,-7.994661149E-1,7.322116246E0
4.687132750E0,-5.093535867E0,3.357371240E0,1.846306582E0,6.373766333E0
4.697168750E0,-3.946403373E0,3.366821510E0,3.510543440E0,6.263665213E0
4.707205750E0,-2.830214928E0,3.536073845E0,4.011050481E0,6.049996756E0
4.717242750E0,-1.860195327E0,3.689815856E0,3.993506496E0,5.746578272E0
4.727279750E0,-1.484273447E0,3.824448581E0,3.389751951E0,5.321643816E0
4.737315750E0,-1.783346103E0,3.676675408E0,1.979086032E0,4.540379598E0
4.747352750E0,-1.634269585E0,3.405182753E0,1.296208427E0,3.993277219E0
4.757389750E0,1.526289200E-1,3.851360976E0,6.237871054E-1,3.904534198E0
4.767426750E0,2.358604242E0,4.225467002E0,2.806435472E-1,4.847302978E0
4.777462750E0,4.518901041E0,4.319629979E0,1.370850766E0,6.399914187E0
4.787499750E0,5.817062731E0,3.915927685E0,7.955655543E0,1.060495939E1
4.797536750E0,5.658159383E0,1.006909831E0,4.007436902E0,7.006296135E0
4.807572750E0,5.422109041E0,-3.077573200E0,-5.700825931E0,8.448084964E0
4.817609750E0,4.931210144E0,-4.070940295E0,-1.129812457E1,1.298218037E1
4.827646750E0,5.285941422E0,-4.866392589E0,-6.580525492E0,9.743011306E0
4.837682750E0,5.394792019E0,-3.958278483E0,-6.377998992E0,9.243950488E0
4.847719750E0,9.235971677E-1,-3.789688638E0,-1.956304987E0,4.363702660E0
4.857756750E0,-1.880538521E0,-3.129455545E0,1.475334662E0,3.937833097E0
4.867793750E0,-7.151015373E-1,-1.363049703E0,2.300089400E0,2.767613765E0
4.877829750E0,1.650553935E0,-1.044967604E-1,-9.807561126E-1,1.922792349E0
4.887866750E0,4.109676637E0,4.400860083E-1,-5.222986790E0,6.660533670E0
4.897903750E0,5.210949712E0,-3.077389598E-3,-6.664021393E0,8.459502793E0
4.907940750E0,4.433670564E0,-1.213785490E0,-5.031554797E0,6.815222195E0
4.917976750E0,2.614485708E0,-3.921425237E0,-1.008669258E0,4.819805502E0
4.928013750E0,1.209689954E0,-7.655608596E0,2.759991330E0,8.227347379E0
4.938050750E0,-3.407444456E-1,-9.662639056E0,5.592429078E0,1.116951043E1
4.948086750E0,-1.908674884E0,-7.675817158E0,4.699687886E0,9.200449722E0
4.958123750E0,-3.160314518E0,-3.883824132E0,3.928295423E0,6.364211080E0
4.968160750E0,-2.514029081E0,-7.191560698E-1,3.799765729E0,4.612564067E0
4.978197750E0,-2.714824221E0,4.004986042E-1,2.587313112E0,3.771585717E0
4.988233750E0,-2.854887840E0,5.596510434E-1,2.022787098E0,3.543340445E0
4.998270750E0,-2.592096426E0,-2.058360243E-1,1.765450699E0,3.142952199E0
5.008308042E0,-2.760948812E0,-2.008211598E0,1.119632747E0,3.592955559E0
5.018344042E0,-3.502303836E0,-4.106351033E0,7.057719393E-1,5.443010656E0
5.028381042E0,-3.937154247E0,-5.305799151E0,2.712980886E-1,6.612585792E0
5.038418042E0,-4.517167634E0,-4.978181412E0,-6.846947734E-1,6.756915017E0
5.048455042E0,-4.924452517E0,-3.498583837E0,-1.248435506E0,6.168380069E0
5.058491042E0,-4.186631258E0,-1.514969137E0,-3.215534453E-1,4.463900692E0
5.068528042E0,-2.849538807E0,5.809647292E-1,7.079653761E-1,2.993093116E0
5.078565042E0,-1.869262604E0,2.118936812E0,4.980936036E-1,2.869169416E0
5.088601042E0,-1.694101804E0,2.132515801E0,2.154372986E-1,2.732035467E0
5.098638042E0,-1.461662118E0,1.733375505E0,3.701065314E-1,2.297395402E0
5.108675042E0,-1.714156584E0,9.562045312E-1,4.253206193E-1,2.008371861E0
5.118712042E0,-2.364592521E0,1.094639701E-1,6.604161108E-1,2.457525095E0
5.128748042E0,-2.164999131E0,3.101246238E-1,5.423361222E-1,2.253336856E0
5.138785042E0,-2.363839108E0,3.784850067E-1,3.355929025E-1,2.417355750E0
5.148822042E0,-2.068578545E0,3.753310186E-1,7.325545259E-1,2.226325830E0
5.158858042E0,-1.504081183E0,1.080949615E0,1.147830652E0,2.179042790E0
5.168895042E0,-8.857820546E-1,1.524029982E0,1.025497399E0,2.039343558E0
5.178932042E0,1.489287288E-1,1.644777909E0,1.344585950E0,2.129644457E0
5.188969042E0,1.041748200E0,1.659615219E0,1.649244743E0,2.561165791E0
5.199005042E0,1.647419096E0,2.121012574E0,9.762161151E-1,2.857565733E0
5.209042042E0,2.301719019E0,3.098295733E0,-8.859101817E-2,3.860724707E0
5.219079042E0,2.906493903E0,3.534157128E0,-1.451919487E0,4.800629501E0
5.229116042E0,2.883675436E0,3.327988982E0,-3.109004323E0,5.390454764E0
5.239152042E0,2.279725595E0,2.895319582E0,-3.655216126E0,5.190436321E0
5.249189042E0,1.782294042E0,2.812951609E0,-2.338808932E0,4.069311493E0
5.259226042E0,9.080416006E-1,2.412442480E0,-1.214937977E0,2.849647795E0
5.269262042E0,-3.991281265E-1,1.662685007E0,-4.196649000E-2,1.710434413E0
5.279299042E0,-1.964111313E0,6.835956430E-1,1.429183466E0,2.523410714E0
5.289336042E0,-2.808085556E0,-3.009591132E-1,2.232725237E0,3.600136506E0
5.299373042E0,-3.209673204E0,-1.156147147E0,2.569523835E0,4.270963713E0
5.309409042E0,-1.293309085E0,-1.242721022E0,2.314022731E0,2.927747449E0
5.319446042E0,-8.369157039E-1,-1.521765940E0,1.766649671E0,2.477347479E0
5.329483042E0,9.165808743E-1,-2.012775350E-1,-1.606322964E-1,9.520692621E-1
5.339519042E0,2.851313729E0,1.516408136E0,-2.955649399E0,4.377824458E0
5.349556042E0,4.153830425E0,2.930604604E0,-5.150072011E0,7.236435052E0
5.359593042E0,3.642499602E0,3.697062895E0,-6.282553722E0,8.149021945E0
5.369630042E0,2.552366350E0,4.294526128E0,-4.580951986E0,6.778100748E0
5.379666042E0,1.303366296E0,4.224767675E0,-3.861149215E0,5.869914724E0
5.389703042E0,3.397950405E-1,3.286291317E0,-4.349839618E0,5.462259239E0
5.399740042E0,5.731287293E-2,2.506827065E0,-3.452435857E0,4.266940361E0
5.409776042E0,-2.381742697E-1,5.340998805E-1,-2.771943916E0,2.832960067E0
5.419813042E0,1.053827597E-1,-2.180727848E0,-1.796759323E0,2.827547266E0
5.429850042E0,9.705664623E-1,-4.260159118E0,-7.110261011E-1,4.426794899E0
5.439887042E0,1.422686187E0,-4.760539860E0,-1.451836749E0,5.176350615E0
5.449923042E0,1.563182353E0,-3.907122363E0,-2.906544482E0,5.114405640E0
5.459960042E0,2.338496836E0,-2.194036696E0,-3.182804371E0,4.518031445E0
5.469997042E0,3.520416463E0,-1.266294072E0,-3.378363329E0,5.040850279E0
5.480033042E0,3.568197863E0,-4.767959976E-1,-4.452161214E0,5.725479010E0
5.490070042E0,3.417827649E0,3.610679054E-1,-4.666476871E0,5.795508801E0
5.500107042E0,3.367532532E0,5.938291883E-1,-2.912463033E0,4.491697828E0
5.510144042E0,2.874475135E0,4.123468173E-1,-1.170580999E0,3.130957852E0
5.520180042E0,2.077781623E0,2.160499406E-1,-3.506399810E-1,2.118207367E0
5.530217042E0,1.313956627E0,9.270351112E-2,5.077839017E-1,1.411708344E0
5.540254042E0,6.346389529E-1,-4.041361570E-2,1.578483932E0,1.701767136E0
5.550291042E0,-4.772111865E-2,-1.252268940E-1,1.989069568E0,1.993578899E0
5.560327042E0,-1.406196454E0,-4.676024204E-1,1.516670676E0,2.120455241E0
5.570364042E0,-2.874464902E0,-1.109496891E0,1.228888264E0,3.317182267E0
5.580401042E0,-3.972255083E0,-2.094365058E0,1.027988459E0,4.606727223E0
5.590437042E0,-4.892920822E0,-3.549048817E0,7.272346560E-1,6.088127127E0
5.600474042E0,-6.393605211E0,-5.430498042E0,1.393379796E-1,8.389750392E0
5.610511042E0,-8.354887640E0,-7.672958454E0,-7.278660091E-1,1.136697972E1
5.620548042E0,-8.565244147E0,-9.096040351E0,-7.515506677E-1,1.251663636E1
5.630584042E0,-5.076553799E0,-8.671579272E0,-1.066363881E0,1.010469284E1
5.640621042E0,-1.051556685E0,-6.668797399E0,-1.230817845E0,6.862473517E0
5.650658042E0,2.285195373E0,-4.432515154E0,-1.072815553E0,5.101003989E0
5.660694042E0,4.827899784E0,-3.222253781E0,1.063328153E0,5.901034021E0
5.670731042E0,4.811462384E0,-1.605861180E0,3.359291758E0,6.083896902E0
5.680768042E0,4.611678812E0,-2.895096803E-1,7.346895490E0,8.679186060E0
5.690805042E0,4.624847327E0,8.928464413E-1,9.444049670E0,1.055350471E1
5.700841042E0,4.702344861E0,2.325010818E0,9.610992939E0,1.094937933E1
5.710878042E0,4.890364419E0,3.573348091E0,8.541498020E0,1.047099179E1
5.720915042E0,3.331715705E0,3.280084498E0,6.310264846E0,7.853580475E0
5.730951042E0,2.436250588E0,3.059533371E0,2.810103430E0,4.815884411E0
5.740988042E0,2.292062197E0,2.985926281E0,5.286511526E-1,3.801154681E0
5.751025042E0,1.182103156E0,3.243668039E0,-4.835124019E-1,3.486048545E0
5.761062042E0,-4.741358799E-1,3.296771867E0,-1.333943141E0,3.587884318E0
5.771098042E0,-3.033113312E0,3.096517010E0,-2.606134422E0,5.057680355E0
5.781135042E0,-4.831781458E0,2.647975343E0,-3.637729443E0,6.602345112E0
5.791172042E0,-5.680381726E0,2.239093586E0,-2.549954374E0,6.616837912E0
5.801209042E0,-5.850215859E0,2.249813286E0,-1.922783777E-1,6.270857708E0
5.811245042E0,-4.913069158E0,2.246438273E0,1.790942513E0,5.691415338E0
5.821282042E0,-3.963342172E0,2.514800913E0,3.006657877E0,5.574252990E0
5.831319042E0,-3.117466414E0,2.846699983E0,3.592397150E0,5.543249491E0
5.841355042E0,-2.388616976E0,3.229827679E0,3.252857523E0,5.168980554E0
5.851392042E0,-1.962454358E0,3.395351245E0,2.168801575E0,4.481443680E0
5.861429042E0,-1.755971485E0,3.187377478E0,1.832791328E0,4.074547226E0
5.871466042E0,-8.378538897E-1,3.362528484E0,9.437028918E-1,3.591541744E0
5.881502042E0,1.102185898E0,3.707776163E0,-1.084149796E0,4.017187898E0
5.891539042E0,1.799522571E0,2.840204312E0,-2.207819460E0,4.022376012E0
5.901576042E0,1.782824677E0,1.659978915E0,-4.160068819E-1,2.471245750E0
5.911612042E0,5.142831404E0,1.805164111E0,1.405666550E0,5.628785905E0
5.921649042E0,7.658431047E0,9.436067051E-1,-1.343780496E0,7.832477624E0
5.931686042E0,7.099754734E0,-1.097707150E0,-3.085074886E0,7.818514266E0
5.941723042E0,5.185823641E0,-2.408786801E0,-2.633405251E0,6.295223896E0
5.951759042E0,3.691269181E0,-3.495380732E0,-2.150961428E0,5.519944718E0
5.961796042E0,2.124588731E0,-3.820323370E0,-1.102986016E0,4.508361796E0
5.971833042E0,-1.184903022E0,-3.476766121E0,7.840589941E-1,3.755881567E0
5.981869042E0,-2.734727558E0,-2.683767904E0,9.301712653E-1,3.942913081E0
5.991906042E0,-1.925546002E0,-1.792167504E0,-5.520297825E-1,2.687811126E0
6.001943042E0,1.664547345E-1,-1.436477868E0,-3.567400888E0,3.849353834E0
6.011979875E0,2.085898436E0,-1.678264913E0,-6.127430599E0,6.686774345E0
6.022015875E0,2.209752257E0,-2.051285112E0,-5.985882956E0,6.702355587E0
6.032052875E0,1.362175837E0,-3.392690177E0,-3.394661858E0,4.988947662E0
6.042089875E0,-1.596501835E-1,-5.978759878E0,-2.704150128E-1,5.987001098E0
6.052126875E0,-1.462707600E0,-6.548251786E0,2.720115658E0,7.240037580E0
6.062162875E0,-2.576184691E0,-4.754237731E0,4.037958783E0,6.748675062E0
6.072199875E0,-2.047922963E0,-2.789768568E0,4.661436571E0,5.805668612E0
6.082236875E0,-7.779194176E-2,-1.588296145E0,3.920169547E0,4.230421434E0
6.092272875E0,4.296534061E-1,-9.696952271E-1,2.644468475E0,2.849232247E0
6.102309875E0,2.262160559E-1,-5.757735711E-1,2.399181726E0,2.477652490E0
6.112346875E0,2.374659526E-1,-8.761000156E-1,2.543848711E0,2.700945683E0
6.122383875E0,3.028843090E-2,-2.038133554E0,2.679890031E0,3.367004062E0
6.132419875E0,-5.087783669E-1,-3.313503674E0,2.387257645E0,4.115478233E0
6.142456875E0,-1.425248290E0,-4.161684405E0,1.534746759E0,4.659012491E0
6.152493875E0,-1.891171244E0,-3.824476063E0,8.842861176E-1,4.357190352E0
6.162529875E0,-2.724825298E0,-2.193844323E0,1.790081218E-1,3.502808834E0
6.172566875E0,-2.982421460E0,-6.991281867E-2,-4.262642138E-1,3.013540567E0
6.182603875E0,-3.041121366E0,9.657202899E-1,-7.457188010E-1,3.276756227E0
6.192640875E0,-3.166666056E0,9.239577216E-1,-3.257016063E-1,3.314747851E0
6.202676875E0,-2.663030461E0,1.198424270E0,2.753205344E-2,2.920395518E0
6.212713875E0,-2.116171956E0,1.243154885E0,-1.681226528E-1,2.460057529E0
6.222750875E0,-2.807984399E0,9.092794561E-1,9.272032186E-2,2.952992139E0
6.232787875E0,-4.221699934E0,8.588817197E-1,1.266388504E-1,4.310042405E0
6.242823875E0,-4.393097320E0,1.097159266E0,-2.776855870E-1,4.536537424E0
6.252860875E0,-4.011046388E0,7.604409206E-1,-5.987769561E-1,4.126172242E0
6.262897875E0,-2.743863832E0,8.432193679E-1,2.013548644E-1,2.877559976E0
6.272933875E0,-1.866776514E0,1.432922176E0,1.249047855E-1,2.356633557E0
6.282970875E0,-1.057445123E0,2.141754987E0,6.304152167E-1,2.470370004E0
6.293007875E0,-7.186813489E-1,2.072756673E0,6.382317746E-1,2.284767582E0
6.303044875E0,1.989414261E-1,2.302352858E0,3.073226380E-1,2.331277241E0
6.313080875E0,1.461772046E0,2.224548052E0,-5.348272741E-1,2.715038078E0
6.323117875E0,2.271400037E0,2.194228485E0,-1.764824316E0,3.617803427E0
6.333154875E0,2.545502304E0,2.211573080E0,-1.413516437E0,3.656318666E0
6.343190875E0,2.363514441E0,2.333674053E0,-8.066806289E-1,3.418035801E0
6.353227875E0,2.363863812E0,2.371965129E0,-1.569952698E0,3.698489174E0
6.363264875E0,2.308759652E0,2.301024955E0,-1.761197873E0,3.704983795E0
6.373301875E0,1.981899420E0,1.900891217E0,-1.182903567E0,2.990079193E0
6.383337875E0,5.641788714E-1,9.814586556E-1,3.911772653E-2,1.132735224E0
6.393374875E0,-6.216984800E-1,5.362241739E-1,1.602701930E0,1.800749522E0
6.403411875E0,-2.001992938E0,-8.343216598E-2,1.804746619E0,2.696673323E0
6.413447875E0,-2.571973526E0,-4.164615029E-1,1.493307542E0,3.003074328E0
6.423484875E0,-1.586530724E0,-2.837150896E-1,7.444932246E-1,1.775343390E0
6.433521875E0,-7.326656230E-1,-1.993005913E-1,1.596890967E0,1.768213901E0
6.443558875E0,6.169236436E-1,5.224107116E-1,1.377720952E0,1.597379966E0
6.453594875E0,2.525741931E0,2.181338882E0,-1.367298875E0,3.606538206E0
6.463631875E0,3.713585957E0,3.634594166E0,-3.229511930E0,6.118066910E0
6.473668875E0,3.573824639E0,4.591509719E0,-4.525430335E0,7.371139923E0
6.483705875E0,2.573943161E0,5.058809838E0,-4.737161522E0,7.393067000E0
6.493741875E0,1.024650210E0,5.061949793E0,-4.231974953E0,6.677039446E0
6.503778875E0,-1.395393577E0,3.883632928E0,-5.519696732E0,6.891790766E0
6.513815875E0,-3.707562155E0,1.491031221E0,-7.310936283E0,8.331805361E0
6.523851875E0,-4.217921463E0,-1.269352165E0,-5.867049993E0,7.336510888E0
6.533888875E0,-2.433341306E0,-3.480038808E0,-3.850056462E0,5.731906731E0
6.543925875E0,2.770077850E-1,-5.021937881E0,-3.022590078E0,5.867933552E0
6.553962875E0,2.382842266E0,-5.373643810E0,-3.542616879E0,6.863244088E0
6.563998875E0,3.393284254E0,-4.285040190E0,-3.089606770E0,6.278663668E0
6.574035875E0,4.731651106E0,-2.357506719E0,-2.041000444E0,5.666748886E0
6.584072875E0,5.225746091E0,-7.174440050E-1,-3.358310303E0,6.253110922E0
6.594109875E0,5.220595863E0,2.738619465E-1,-4.345681078E0,6.798129564E0
6.604145875E0,5.033349892E0,7.514648598E-1,-3.600573896E0,6.234055097E0
6.614182875E0,3.992435870E0,4.911210912E-1,-2.207865361E0,4.588617827E0
6.624219875E0,2.635735366E0,-2.736362439E-1,-1.217241780E0,2.916102753E0
6.634255875E0,1.283825194E0,-7.974397624E-1,-7.879859841E-1,1.704417558E0
6.644292875E0,2.727836651E-2,-1.273019539E0,1.684465885E-1,1.284405352E0
6.654329875E0,-1.353516695E0,-1.667235895E0,1.461423844E0,2.597583998E0
6.664366875E0,-2.494737362E0,-1.788826990E0,2.370642489E0,3.878603140E0
6.674402875E0,-3.752301833E0,-1.769706595E0,1.920431442E0,4.571617592E0
6.684439875E0,-5.174329770E0,-2.059059570E0,1.607578508E0,5.796354331E0
6.694476875E0,-6.868602020E0,-2.930185944E0,1.365560059E0,7.591339648E0
6.704512875E0,-8.531796904E0,-4.579905919E0,7.658846784E-1,9.713582037E0
6.714549875E0,-9.561650625E0,-6.746218627E0,3.140482517E-1,1.170620582E1
6.724586875E0,-8.908231877E0,-7.926452794E0,2.548099637E-1,1.192686787E1
6.734623875E0,-4.004482304E0,-7.776815529E0,-1.118303382E-1,8.747985158E0
6.744659875E0,1.204409772E0,-7.197366398E0,-1.979675577E0,7.561203698E0
6.754696875E0,3.664890345E0,-7.019340901E0,-1.846674518E0,8.130976245E0
6.764733875E0,6.426637301E0,-4.458855692E0,6.213263047E-1,7.846598464E0
6.774770875E0,8.594537528E0,-2.352690952E0,1.903033929E0,9.111683059E0
6.784806875E0,9.386323033E0,-1.534117014E0,6.925615881E0,1.176523397E1
6.794843875E0,8.193101031E0,-5.011531591E-2,1.079634810E1,1.355324862E1
6.804880875E0,7.258619490E0,1.591038489E0,1.320294745E1,1.515047134E1
6.814916875E0,5.344583732E0,2.412157136E0,1.311087018E1,1.436238122E1
6.824953875E0,2.803890764E0,3.463641461E0,1.053669547E1,1.144030450E1
6.834990875E0,1.262228795E0,4.203992518E0,7.335351917E0,8.548342668E0
6.845027875E0,-2.462042510E-1,4.147700788E0,3.140520523E0,5.208349789E0
6.855063875E0,-1.753190550E0,3.749037040E0,-2.057022108E0,4.621720003E0
6.865100875E0,-3.109434094E0,3.137637554E0,-6.435730891E0,7.805894049E0
6.875137875E0,-4.038625366E0,3.279051880E0,-8.308021038E0,9.802341028E0
6.885174875E0,-5.011087203E0,3.351471400E0,-6.940067275E0,9.192817265E0
6.895210875E0,-6.087338580E0,2.967710450E0,-4.404412851E0,8.078480604E0
6.905247875E0,-6.952558681E0,2.041678721E0,-1.029319870E0,7.318881309E0
6.915284875E0,-6.460730077E0,1.438839558E0,1.941760623E0,6.897950907E0
6.925320875E0,-5.012726762E0,1.531005710E0,3.591781438E0,6.353920205E0
6.935357875E0,-3.477672147E0,1.975167228E0,4.246203276E0,5.833157927E0
6.945394875E0,-2.373236899E0,2.233232337E0,4.186461396E0,5.305284071E0
6.955431875E0,-1.548416087E0,2.718344244E0,3.611994970E0,4.778440695E0
6.965467875E0,-1.058015227E0,3.277646209E0,2.866399545E0,4.480915894E0
6.975504875E0,-4.062445168E-1,3.729397997E0,2.248588587E0,4.373739208E0
6.985541875E0,1.115621484E0,4.361964989E0,1.576495294E0,4.770396972E0
6.995578875E0,3.134507832E0,4.443925996E0,1.668415571E0,5.688341421E0
7.005614667E0,5.501966220E0,3.903012355E0,8.941734084E0,1.120088149E1
7.015651667E0,3.634699416E0,5.983619499E-1,4.922706538E0,6.148342584E0
7.025688667E0,3.917816920E0,-9.374992883E-1,-7.596867467E0,8.598871417E0
7.035724667E0,7.139533927E0,-1.529332822E0,-9.579816170E0,1.204511027E1
7.045761667E0,6.843717440E0,-1.959228888E0,-6.601166748E0,9.708267027E0
7.055798667E0,6.998400852E0,-1.773538860E0,-5.682475029E0,9.187686163E0
7.065835667E0,5.075360382E0,-2.707930938E0,-3.437593285E0,6.701434217E0
7.075871667E0,1.855954488E0,-3.827784417E0,-4.340028575E-1,4.276079874E0
7.085908667E0,-3.130135138E-1,-3.742444890E0,1.870918390E0,4.195736745E0
7.095945667E0,-3.177259310E-1,-2.595219424E0,1.464807043E0,2.996960677E0
7.105982667E0,1.068736462E0,-1.184043043E0,-1.477279154E0,2.174053645E0
7.116018667E0,2.575497351E0,-5.367024761E-1,-4.579100465E0,5.281041301E0
7.126055667E0,3.250118687E0,-1.047162648E0,-5.554369551E0,6.520033911E0
7.136092667E0,2.732687464E0,-2.270247551E0,-3.615405066E0,5.068802473E0
7.146128667E0,7.539480262E-1,-4.416185051E0,1.500699592E-1,4.482594006E0
7.156165667E0,-1.048491063E0,-7.025145432E0,3.603503644E0,7.964749861E0
7.166202667E0,-1.911891145E0,-8.266103518E0,6.238645810E0,1.053112039E1
7.176239667E0,-2.339953232E0,-7.051589465E0,6.241476447E0,9.703418127E0
7.186275667E0,-2.177179173E0,-4.353065527E0,4.251677731E0,6.462666026E0
7.196312667E0,-1.515918432E0,-2.384631953E0,2.286199047E0,3.634719291E0
7.206349667E0,-1.760117161E0,-8.796188700E-1,1.605424686E0,2.539513772E0
7.216386667E0,-1.789493719E0,5.125324255E-1,2.007548377E0,2.737741358E0
7.226422667E0,-1.712045301E0,6.394006330E-1,2.108260527E0,2.790106581E0
7.236459667E0,-1.774635067E0,-7.528793013E-1,1.999277637E0,2.777277072E0
7.246496667E0,-1.388281170E0,-2.595040500E0,2.023867518E0,3.571778203E0
7.256532667E0,-6.167971976E-1,-3.737639063E0,1.262775071E0,3.993117257E0
7.266569667E0,-6.624398321E-2,-3.397252175E0,-2.029358053E-1,3.403952635E0
7.276606667E0,-5.240467626E-1,-2.172410184E0,-7.625948887E-1,2.361258559E0
7.286643667E0,-1.447974810E0,-6.028806782E-1,-6.634565167E-1,1.703018118E0
7.296679667E0,-2.231168854E0,6.019924861E-1,-6.679275902E-1,2.405542907E0
7.306716667E0,-2.657641375E0,1.761942077E0,-5.555927834E-1,3.236692896E0
7.316753667E0,-3.442394434E0,1.904720559E0,-6.019192497E-1,3.979993295E0
7.326790667E0,-4.277214276E0,1.431655084E0,-9.247956276E-2,4.511402300E0
7.336826667E0,-4.193057640E0,1.324135314E0,5.153423050E-1,4.427261501E0
7.346863667E0,-4.474006412E0,1.336681100E0,8.414798212E-1,4.744632549E0
7.356900667E0,-4.609325600E0,1.266406923E0,4.458257083E-1,4.800877997E0
7.366936667E0,-4.037049249E0,1.640104814E0,5.319413077E-1,4.389837354E0
7.376973667E0,-3.076594084E0,1.773553478E0,3.206613064E-1,3.565634133E0
7.387010667E0,-1.552298931E0,1.690542312E0,2.310025135E-1,2.306713558E0
7.397047667E0,-3.419548924E-1,1.803971863E0,-2.602957483E-1,1.854454504E0
7.407083667E0,6.421597879E-1,1.974910535E0,-9.661881403E-1,2.290449811E0
7.417120667E0,1.515757195E0,2.325987888E0,-1.149831569E0,3.004971242E0
7.427157667E0,2.303127321E0,2.698178367E0,-1.285967613E0,3.773363839E0
7.437194667E0,2.636450773E0,2.860630390E0,-2.016883603E0,4.381997076E0
7.447230667E0,2.169318907E0,2.890454113E0,-1.979906981E0,4.120764633E0
7.457267667E0,1.751518538E0,2.828545548E0,-1.030836053E0,3.482974315E0
7.467304667E0,1.462540224E0,2.462867113E0,-4.854193982E-1,2.905231543E0
7.477340667E0,1.167259488E0,1.876426467E0,2.154138366E-1,2.220331984E0
7.487377667E0,8.376382736E-1,9.499298841E-1,1.493402413E0,1.958125488E0
7.497414667E0,2.656663428E-1,2.605449128E-1,1.921770455E0,1.957463649E0
7.507451667E0,-3.256532571E-1,-1.056089008E-1,2.414937487E0,2.439083096E0
7.517487667E0,-2.834806162E-1,-1.641272503E-1,1.635753901E0,1.668229552E0
7.527524667E0,-7.462198343E-1,-3.750778341E-1,2.406876515E0,2.547662062E0
7.537561667E0,-3.065476992E-1,-1.682238096E-1,2.529731194E0,2.553783596E0
7.547598667E0,8.462649632E-1,3.952407879E-1,1.093708824E0,1.438255422E0
7.557634667E0,2.108867761E0,1.267978655E0,-1.430064057E0,2.846080868E0
7.567671667E0,2.611938368E0,2.259344832E0,-4.745531226E0,5.869150512E0
7.577708667E0,2.340721410E0,2.781553815E0,-6.918285227E0,7.815285588E0
7.587745667E0,1.574176288E0,3.402994140E0,-7.119138254E0,8.046149985E0
7.597781667E0,2.125285719E0,4.177833245E0,-2.810691075E0,5.465447313E0
7.607818667E0,7.741307142E-1,2.932721881E0,-4.268058578E-2,3.033472866E0
7.617855667E0,-1.846703462E0,5.306856912E-1,-2.018599761E0,2.786877459E0
7.627891667E0,-1.800080834E0,-1.273213667E0,-3.974207468E0,4.544853028E0
7.637928667E0,-1.156447694E-2,-3.042543701E0,-4.952840749E0,5.812730632E0
7.647965667E0,1.760320644E0,-4.264214746E0,-3.739003803E0,5.938215693E0
7.658002667E0,2.501974753E0,-4.208890146E0,-3.316498033E0,5.913864484E0
7.668038667E0,2.721242417E0,-2.803166294E0,-3.976438181E0,5.574492099E0
7.678075667E0,3.585720214E0,-1.126653206E0,-3.524274749E0,5.152402295E0
7.688112667E0,5.043303022E0,-1.224471277E-1,-3.489774422E0,6.134201186E0
7.698149667E0,5.233789521E0,5.188216907E-1,-5.024018320E0,7.273409708E0
7.708185667E0,4.978457986E0,7.503901416E-1,-4.779094244E0,6.941748416E0
7.718222667E0,4.450311448E0,5.404511261E-1,-2.705810738E0,5.236293646E0
7.728259667E0,3.271297302E0,-1.356554031E-3,-5.067197450E-1,3.310310073E0
7.738295667E0,2.019921232E0,-6.254725653E-1,6.197686064E-1,2.203499680E0
7.748332667E0,8.642080215E-1,-1.138257591E0,1.473902972E0,2.053016273E0
7.758369667E0,-3.527589023E-1,-1.567219271E0,2.239312856E0,2.755927640E0
7.768406667E0,-1.991451870E0,-1.743246190E0,2.571345828E0,3.690068725E0
7.778442667E0,-3.590525164E0,-1.617564383E0,2.055343080E0,4.442163961E0
7.788479667E0,-5.254667589E0,-1.824761054E0,1.446580102E0,5.747510624E0
7.798516667E0,-7.026036547E0,-2.863892552E0,6.663147819E-1,7.616498244E0
7.808553667E0,-8.850963078E0,-4.782104391E0,-8.467937708E-3,1.006022572E1
7.818589667E0,-1.024374178E1,-6.840901421E0,-5.501656902E-1,1.233024169E1
7.828626667E0,-1.040084126E1,-8.260353366E0,-9.630036005E-1,1.331684319E1
7.838663667E0,-6.654552997E0,-8.533542883E0,-1.227125913E0,1.089083412E1
7.848700667E0,6.605236264E-1,-8.613571969E0,-1.669127615E0,8.798630605E0
7.858736667E0,4.219536172E0,-7.815866159E0,-2.429923608E0,9.208516604E0
7.868773667E0,6.223730732E0,-5.372673172E0,-1.409105297E0,8.341823480E0
7.878810667E0,9.333532031E0,-3.158137892E0,3.281006019E0,1.038526146E1
7.888846667E0,8.475712751E0,-1.883061887E0,8.149372044E0,1.190780809E1
7.898883667E0,8.083030704E0,6.285271508E-1,1.191936083E1,1.441532498E1
7.908920667E0,7.511819131E0,2.251669192E0,1.402577466E1,1.606921888E1
7.918957667E0,5.841777157E0,3.385810928E0,1.279150228E1,1.446418358E1
7.928993667E0,3.549240021E0,3.990748072E0,9.095961413E0,1.054797084E1
7.939030667E0,1.528468750E0,4.092674396E0,4.327306496E0,6.149128551E0
7.949067667E0,-1.828348321E-1,3.636576957E0,4.642923117E-2,3.641466218E0
7.959104667E0,-2.908982770E0,3.171670688E0,-2.879880301E0,5.178357487E0
7.969140667E0,-4.891724189E0,3.803551801E0,-5.595995879E0,8.349319836E0
7.979177667E0,-5.700881479E0,4.411697313E0,-6.957412455E0,1.001841858E1
7.989214667E0,-6.313911754E0,4.526663513E0,-5.267439662E0,9.386271080E0
7.999251667E0,-5.887291299E0,4.081017972E0,-2.539307179E0,7.600196542E0
8.009288542E0,-4.931466252E0,3.593792295E0,4.237164357E-1,6.116717917E0
8.019325542E0,-4.158945569E0,3.206019571E0,2.368749161E0,5.760760568E0
8.029362542E0,-2.949525610E0,2.902833254E0,3.089539235E0,5.164435584E0
8.039399542E0,-2.218557726E0,2.960283317E0,3.823356613E0,5.320087545E0
8.049435542E0,-1.984154106E0,3.026994200E0,4.363881122E0,5.669481445E0
8.059472542E0,-2.114362828E0,3.027105297E0,4.478322827E0,5.804246031E0
8.069509542E0,-2.084195580E0,2.966538668E0,4.084238033E0,5.461247403E0
8.079545542E0,-1.189656663E0,3.193541613E0,2.852284367E0,4.444042880E0
8.089582542E0,-9.638579518E-2,3.582575582E0,8.691313040E-1,3.687753685E0
8.099619542E0,8.454600209E-1,3.161897067E0,8.772820303E-1,3.388512870E0
8.109656542E0,3.002198498E0,3.656270379E0,4.716539854E0,6.680363546E0
8.119692542E0,5.880314401E0,3.443710642E0,-7.784525375E-1,6.858806660E0
8.129729542E0,2.571589072E0,-2.884398152E0,-3.893372051E0,5.485541813E0
8.139766542E0,4.309260234E0,-5.041504419E0,-6.961787342E0,9.615246932E0
8.149803542E0,7.240261572E0,-4.952934304E0,-1.318352885E1,1.583535219E1
8.159839542E0,8.760290304E0,-4.929957086E0,-1.001857720E1,1.419221801E1
8.169876542E0,6.542907431E0,-4.976679263E0,-2.505452970E0,8.593850633E0
8.179913542E0,7.570806719E-1,-5.033604246E0,4.024899612E0,6.489234141E0
8.189950542E0,-1.233580947E0,-3.100872016E0,8.480679960E0,9.113674440E0
8.199986542E0,6.570574701E-1,-7.334507579E-1,7.029092887E0,7.097733536E0
8.210023542E0,3.064735931E0,5.207828468E-1,6.286943811E-1,3.171604913E0
8.220060542E0,3.136619846E0,-1.453325450E-2,-5.716195922E0,6.520237043E0
8.230096542E0,1.506103881E0,-1.428686453E0,-7.819543473E0,8.090411238E0
8.240133542E0,-1.584024607E-1,-2.350018190E0,-5.705256951E0,6.172328062E0
8.250170542E0,-2.527256652E0,-4.186505250E0,-2.508868621E0,5.496205432E0
8.260207542E0,-3.502687413E0,-5.851547855E0,1.091314097E0,6.906547464E0
8.270243542E0,-3.070485206E0,-5.893584657E0,4.242042689E0,7.883980320E0
8.280280542E0,-2.305683870E0,-4.991955113E0,4.843875546E0,7.327954986E0
8.290317542E0,-5.406209877E-1,-3.810831000E0,4.242506081E0,5.728312301E0
8.300354542E0,4.432848738E-1,-2.777939651E0,3.187376894E0,4.251214138E0
8.310390542E0,-2.069493341E-1,-1.831315198E0,3.100269753E0,3.606690439E0
8.320427542E0,-4.270790233E-1,-1.177229868E0,3.401386156E0,3.624595762E0
8.330464542E0,-2.368052173E-1,-1.310547554E0,3.184664955E0,3.451912872E0
8.340501542E0,-3.441584887E-1,-2.237851637E0,2.655732844E0,3.489891396E0
8.350537542E0,-2.846022584E-1,-3.051088822E0,2.195628016E0,3.769737899E0
8.360574542E0,8.658790827E-2,-2.622300804E0,1.180908497E0,2.877238928E0
8.370611542E0,-7.699487856E-1,-1.745758739E0,-1.697049093E-1,1.915540253E0
8.380647542E0,-2.051435385E0,-4.471079296E-1,-8.714758913E-1,2.273271403E0
8.390684542E0,-3.275837665E0,7.763085097E-1,-1.160129539E0,3.560852125E0
8.400721542E0,-3.665155224E0,1.810359362E0,-1.670284194E0,4.415949855E0
8.410758542E0,-4.245660946E0,1.854267274E0,-1.931315596E0,5.019354931E0
8.420794542E0,-5.065193244E0,1.606028996E0,-2.598585666E0,5.915078968E0
8.430831542E0,-5.671154235E0,9.961030072E-1,-3.271133580E0,6.622275021E0
8.440868542E0,-4.333310417E0,1.165934801E-1,-1.220854189E0,4.503516199E0
8.450905542E0,-4.206459751E0,1.365254688E-1,6.317191458E-1,4.255820945E0
8.460941542E0,-4.328073358E0,-5.040884614E-3,2.152507432E0,4.833790712E0
8.470978542E0,-3.868096584E0,7.311949021E-1,2.761752219E0,4.808751656E0
8.481015542E0,-2.388012520E0,1.486908934E0,2.822072096E0,3.984669734E0
8.491052542E0,-6.674881719E-1,2.178538066E0,2.764023278E0,3.582093417E0
8.501088542E0,9.293234921E-1,3.041695270E0,1.908910089E0,3.709378653E0
8.511125542E0,2.174720127E0,3.378173879E0,5.460574365E-1,4.054583223E0
8.521162542E0,2.642906392E0,3.078316966E0,-5.763998079E-1,4.097953914E0
8.531199542E0,2.536303464E0,2.734116524E0,-1.371347487E0,3.973515114E0
8.541235542E0,2.568090098E0,3.154835384E0,-2.004030254E0,4.534777868E0
8.551272542E0,2.574803871E0,3.276885486E0,-2.979016042E0,5.122707296E0
8.561309542E0,2.361106265E0,2.893691717E0,-3.255700439E0,4.954579689E0
8.571345542E0,1.610496561E0,2.549926892E0,-3.404088739E0,4.547927712E0
8.581382542E0,4.461052783E-1,1.928565504E0,-2.334984999E0,3.061132105E0
8.591419542E0,-3.433387456E-1,1.426845750E0,-1.047691237E0,1.803171432E0
8.601456542E0,-1.577765017E0,5.906360239E-1,7.606830684E-1,1.848467498E0
8.611492542E0,-2.404482080E0,-3.699299455E-1,3.168207382E0,3.994486232E0
8.621529542E0,-2.785214464E0,-1.230164126E0,4.848776683E0,5.725500739E0
8.631566542E0,-2.248368439E0,-1.828530169E0,5.096436671E0,5.862793699E0
8.641603542E0,-9.727592412E-2,-1.450030544E0,3.706199169E0,3.980950071E0
8.651639542E0,2.104094532E0,-2.018365288E-1,-6.111462657E-1,2.200329872E0
8.661676542E0,3.186869063E0,1.181603000E0,-5.095506964E0,6.125072350E0
8.671713542E0,3.621901615E0,2.482707301E0,-6.615580720E0,7.940271728E0
8.681750542E0,3.084695401E0,4.336076442E0,-5.302215977E0,7.512016966E0
8.691786542E0,2.734990390E0,5.547020770E0,-6.312480941E0,8.837252259E0
8.701823542E0,1.535082389E0,5.224447424E0,-5.130302575E0,7.481399157E0
8.711860542E0,-9.429983023E-1,2.534504861E0,-3.995162135E0,4.824342563E0
8.721897542E0,-1.830893614E0,3.233393312E-2,-3.042182928E0,3.550787782E0
8.731933542E0,-1.264971139E0,-1.967512638E0,-3.709725625E0,4.385581167E0
8.741970542E0,1.126331792E-1,-3.652694807E0,-4.116818134E0,5.504821263E0
8.752007542E0,7.161655113E-1,-4.658638678E0,-4.280015677E0,6.366658588E0
8.762044542E0,9.246912548E-1,-4.360610774E0,-4.350906150E0,6.228993865E0
8.772080542E0,1.923214132E0,-2.825229008E0,-3.964527403E0,5.234324127E0
8.782117542E0,3.949067364E0,-1.218222358E0,-3.331593790E0,5.308362831E0
8.792154542E0,4.928081299E0,1.961530352E-1,-4.076989240E0,6.398929799E0
8.802190542E0,4.618943978E0,1.195847402E0,-4.967808452E0,6.887947103E0
8.812227542E0,4.601504072E0,1.413385459E0,-4.074139892E0,6.306355052E0
8.822264542E0,3.849997405E0,9.774498045E-1,-1.796994381E0,4.359710649E0
8.832301542E0,2.463914642E0,8.574357033E-2,-1.733676235E-1,2.471494215E0
8.842337542E0,1.291544980E0,-9.075024873E-1,1.645476103E-1,1.587049185E0
8.852374542E0,4.010985650E-1,-1.601352977E0,8.495595038E-1,1.856599786E0
8.862411542E0,-1.099977185E0,-2.173257446E0,1.619626111E0,2.925095977E0
8.872448542E0,-2.525946291E0,-2.218231890E0,2.355573045E0,4.104836386E0
8.882484542E0,-4.103743760E0,-1.958099790E0,2.486866425E0,5.182602845E0
8.892521542E0,-5.656460767E0,-2.198681139E0,1.839267411E0,6.341344634E0
8.902558542E0,-7.511227393E0,-3.398530376E0,1.329860322E0,8.350872657E0
8.912595542E0,-9.472633198E0,-5.405338642E0,2.459537709E-1,1.090912273E1
8.922631542E0,-9.692158724E0,-7.335670005E0,-2.920624284E-1,1.215875387E1
8.932668542E0,-8.620203297E0,-8.294297038E0,-6.689448595E-1,1.198126685E1
8.942705542E0,-3.699780388E0,-8.238807546E0,-1.010984902E0,9.087816854E0
8.952742542E0,1.088367027E0,-8.278741690E0,-2.770020182E0,8.797449549E0
8.962778542E0,4.036243502E0,-7.502341964E0,-2.750106905E0,8.952065937E0
8.972815542E0,7.088625728E0,-5.088028960E0,-5.769149476E-1,8.744683200E0
8.982852542E0,9.371869885E0,-3.684705974E0,4.300027188E0,1.094985101E1
8.992888542E0,7.970208678E0,-2.242993094E0,9.206527584E0,1.238205938E1
9.002925542E0,6.718434412E0,-3.114092571E-1,1.377580502E1,1.532994262E1
9.012962292E0,5.971687671E0,1.894684398E0,1.527947850E1,1.651403482E1
9.022999292E0,4.686245430E0,3.536427017E0,1.298783775E1,1.425310989E1
9.033035292E0,2.564920907E0,3.933319643E0,8.962074793E0,1.011773726E1
9.043072292E0,3.141187837E-1,3.886382874E0,3.047943312E0,4.948999988E0
9.053109292E0,-2.251006118E0,3.364940461E0,-2.650964147E0,4.839159406E0
9.063146292E0,-3.923429370E0,3.233142466E0,-4.971316781E0,7.110590606E0
9.073182292E0,-4.713893697E0,3.935790676E0,-6.118977864E0,8.669090617E0
9.083219292E0,-5.566893702E0,4.383027830E0,-5.872793713E0,9.202768303E0
9.093256292E0,-6.225870813E0,4.311004751E0,-4.216203259E0,8.667329419E0
9.103293292E0,-5.610220401E0,3.597563750E0,-1.078020452E0,6.751234404E0
9.113329292E0,-4.406909612E0,3.009424487E0,1.985019786E0,5.693662409E0
9.123366292E0,-3.452675885E0,2.735115813E0,3.432666713E0,5.584355831E0
9.133403292E0,-2.395609369E0,2.596767767E0,3.819512946E0,5.202963216E0
9.143440292E0,-1.543939605E0,2.788124916E0,4.642068546E0,5.630825023E0
9.153476292E0,-1.256244901E0,2.951835845E0,5.406575328E0,6.286695705E0
9.163513292E0,-1.572247292E0,2.922186368E0,5.405908746E0,6.343105240E0
9.173550292E0,-1.703478107E0,2.885897378E0,4.333609794E0,5.478176265E0
9.183587292E0,-1.157396551E0,3.106942595E0,2.839453237E0,4.365220928E0
9.193623292E0,-1.967359295E-1,2.804263231E0,2.666520080E0,3.874651808E0
9.203660292E0,1.122506580E0,2.537436655E0,3.532652347E0,4.492019412E0
9.213697292E0,4.399126091E0,3.574268442E0,3.734948759E0,6.788044453E0
9.223733292E0,3.170973700E0,3.738437208E0,-2.911816331E0,5.701724415E0
9.233770292E0,4.541490882E0,2.322414070E0,-1.632514310E1,1.710348045E1
9.243807292E0,7.527856874E0,-1.127867673E0,-1.009722693E1,1.264494785E1
9.253844292E0,6.438535216E0,-5.026245525E0,-7.790926030E0,1.128788768E1
9.263880292E0,6.546043292E0,-6.193220546E0,-7.281369252E0,1.158555142E1
9.273917292E0,3.879098997E0,-5.736529614E0,-1.774071249E0,7.148601950E0
9.283954292E0,-3.128019176E-2,-5.103120623E0,3.011785300E0,5.925678800E0
9.293991292E0,-1.072266134E0,-3.496494042E0,4.760091670E0,6.002807507E0
9.304027292E0,5.927446029E-1,-1.541136596E0,2.198932277E0,2.749863875E0
9.314064292E0,2.735448812E0,-9.212720954E-1,-2.624570108E0,3.901255020E0
9.324101292E0,3.051214245E0,-1.815407848E0,-5.400038141E0,6.462663998E0
9.334138292E0,2.032613198E0,-2.858673912E0,-4.226330929E0,5.492304258E0
9.344174292E0,-3.637042688E-1,-4.446512804E0,-1.398902783E0,4.675541242E0
9.354211292E0,-1.832529957E0,-5.336633858E0,1.484956256E0,5.834631270E0
9.364248292E0,-2.670347667E0,-5.124859986E0,3.375516028E0,6.692462551E0
9.374285292E0,-3.414399719E0,-3.634901145E0,3.530909877E0,6.110479223E0
9.384321292E0,-2.324908784E0,-2.514973406E0,3.256277267E0,4.725847409E0
9.394358292E0,-1.532481255E0,-2.831530552E0,2.447793138E0,4.044472192E0
9.404395292E0,-1.430379222E0,-2.674940947E0,2.611413873E0,4.002596183E0
9.414432292E0,-1.409210840E0,-1.959422430E0,3.218922622E0,4.023266620E0
9.424468292E0,-1.496107188E0,-2.369340314E0,3.630774473E0,4.586352965E0
9.434505292E0,-8.458972465E-1,-3.612401059E0,3.425009200E0,5.049323874E0
9.444542292E0,-2.977219485E-1,-4.419513286E0,2.908717307E0,5.299186014E0
9.454579292E0,-3.698305428E-2,-3.775877514E0,1.717066597E0,4.148124450E0
9.464615292E0,-2.040692881E-2,-1.852281559E0,5.926503897E-1,1.944890203E0
9.474652292E0,-5.951926129E-1,1.389748675E-1,-4.795428734E-1,7.768716931E-1
9.484689292E0,-1.145205398E0,1.600468878E0,-1.812491695E0,2.675466722E0
9.494725292E0,-2.462921492E0,2.481971136E0,-2.136107015E0,4.097452401E0
9.504762292E0,-3.021489047E0,2.781607609E0,-2.233098289E0,4.674768970E0
9.514799292E0,-3.677764744E0,2.125954641E0,-2.505803218E0,4.932006327E0
9.524836292E0,-4.367472189E0,1.446743824E0,-3.074064871E0,5.533331352E0
9.534872292E0,-4.658696566E0,4.566576022E-1,-2.022078124E0,5.099096959E0
9.544909292E0,-4.929158356E0,-3.513030553E-1,2.431051536E-1,4.947637421E0
9.554946292E0,-5.086320403E0,-1.025964153E-1,1.926494128E0,5.439904493E0
9.564983292E0,-5.002123421E0,8.440929419E-1,2.166368841E0,5.516057068E0
9.575019292E0,-3.713547950E0,1.452544847E0,2.922776352E0,4.943980837E0
9.585056292E0,-1.826959607E0,2.187252756E0,3.808130171E0,4.756438944E0
9.595093292E0,-4.196428268E-1,2.627138790E0,3.327245800E0,4.260108325E0
9.605130292E0,3.859721471E-1,2.625299256E0,1.465191790E0,3.031164407E0
9.615166292E0,1.380962941E0,2.881623648E0,-8.360711467E-1,3.303002945E0
9.625203292E0,2.195052065E0,2.784450526E0,-3.771663426E0,5.176568680E0
9.635240292E0,2.912259842E0,3.110784801E0,-5.950127817E0,7.318624222E0
9.645277292E0,3.058325628E0,3.503305464E0,-5.715604184E0,7.368489398E0
9.655313292E0,3.810421110E0,3.249089577E0,-4.452707344E0,6.700932384E0
9.665350292E0,3.035970553E0,2.640064645E0,-3.345015489E0,5.232225831E0
9.675387292E0,1.317680280E0,1.758315049E0,-2.816568696E-1,2.215238977E0
9.685424292E0,-5.325232884E-1,8.987468666E-1,2.053412329E0,2.303872647E0
9.695460292E0,-1.705670813E0,1.913249892E-1,3.469289871E0,3.870644699E0
9.705497292E0,-3.750059426E0,-2.002349764E0,7.549598576E0,8.664224659E0
9.715534292E0,-3.554553093E0,-2.921763030E0,9.378065010E0,1.044603514E1
9.725571292E0,-1.411608198E0,-1.354118666E0,4.319801302E0,4.742041581E0
9.735607292E0,7.489900989E-1,2.739110631E-1,-1.340178319E0,1.559516389E0
9.745644292E0,3.157547031E0,1.837606802E0,-4.736286778E0,5.981581267E0
9.755681292E0,4.148814391E0,2.805777660E0,-5.268191614E0,7.269036525E0
9.765718292E0,3.325281721E0,3.545552766E0,-4.437855417E0,6.582021243E0
9.775754292E0,1.721527438E0,4.219730299E0,-4.477467379E0,6.388857069E0
9.785791292E0,7.678342132E-1,4.630315935E0,-5.214381443E0,7.015637453E0
9.795828292E0,-5.932345631E-2,4.321721528E0,-4.691853202E0,6.379207059E0
9.805865292E0,-1.694074615E0,2.291405116E0,-4.260696477E0,5.125813172E0
9.815901292E0,-2.385169896E0,3.177546555E-1,-4.689623074E0,5.270917191E0
9.825938292E0,-2.173946540E0,-2.006774937E0,-5.022814963E0,5.829396141E0
9.835975292E0,-4.621025294E-1,-4.226235327E0,-4.869492783E0,6.464252760E0
9.846012292E0,2.687878606E-1,-4.996888409E0,-4.822189978E0,6.949435723E0
9.856048292E0,2.170658395E-1,-4.125077326E0,-4.576326839E0,6.164912640E0
9.866085292E0,1.612335802E0,-2.090683651E0,-3.324968310E0,4.245703608E0
9.876122292E0,3.969951864E0,-6.588151431E-1,-2.744182506E0,4.870841080E0
9.886158292E0,4.884458731E0,5.222809035E-1,-4.179103845E0,6.449466907E0
9.896195292E0,4.636188878E0,1.222541696E0,-5.100965340E0,7.000621609E0
9.906232292E0,4.472985196E0,1.142885662E0,-3.492227329E0,5.788733533E0
9.916269292E0,3.749963532E0,5.796362418E-1,-1.169599836E0,3.970663476E0
9.926305292E0,2.449909537E0,-3.027565473E-1,-2.735455938E-1,2.483655664E0
9.936342292E0,1.153836985E0,-1.381290092E0,-6.532731521E-1,1.914697866E0
9.946379292E0,-9.611760898E-2,-2.444935457E0,-3.024320269E-1,2.465443797E0
9.956416292E0,-1.621319318E0,-2.989691303E0,6.547127366E-1,3.463463467E0
9.966452292E0,-3.235837740E0,-3.182002133E0,1.714933387E0,4.851471939E0
9.976489292E0,-4.876366770E0,-3.606563199E0,2.349776115E0,6.504436853E0
9.986526292E0,-6.632813049E0,-4.478870126E0,2.514535450E0,8.389122426E0
9.996563292E0,-8.196789454E0,-5.614335671E0,2.113978958E0,1.015760943E1
1.000659929E1,-9.405410099E0,-6.731604096E0,1.393868477E0,1.164985417E1
1.001663562E1,-8.810486312E0,-7.513400803E0,1.488152636E0,1.167435047E1
1.002667262E1,-6.494974295E0,-6.918805629E0,1.725456329E0,9.645297402E0
1.003670962E1,-2.371440342E0,-5.531919166E0,9.185801835E-1,6.088484911E0
1.004674562E1,3.472616937E0,-4.341554114E0,-7.973576090E-1,5.616399173E0
1.005678262E1,6.904755939E0,-4.592382708E0,-1.540354239E0,8.434353840E0
1.006681962E1,7.326029116E0,-4.575219376E0,9.780801344E-1,8.692524127E0
1.007685662E1,8.425541301E0,-2.358130032E0,3.977178731E0,9.610851894E0
1.008689262E1,9.735553250E0,-1.084313518E-1,7.405200416E0,1.223232389E1
1.009692963E1,9.983088108E0,1.636743835E0,1.091702878E1,1.488363181E1
1.010696662E1,7.389604138E0,2.424832145E0,1.231466535E1,1.456492509E1
1.011700363E1,4.487600019E0,2.592450183E0,1.126616252E1,1.240103906E1
1.012703962E1,2.316841966E0,3.696497469E0,9.176762917E0,1.016094621E1
1.013707663E1,-3.585694633E-1,3.645571729E0,5.751777399E0,6.819216123E0
1.014711362E1,-2.137657258E0,2.798068691E0,1.032374163E0,3.669409130E0
1.015715063E1,-2.664811523E0,2.308808768E0,-3.941727647E0,5.288575917E0
1.016718662E1,-3.676098288E0,2.573099408E0,-6.353342453E0,7.778142420E0
1.017722363E1,-4.739098704E0,3.726288448E0,-6.640626683E0,8.968957848E0
1.018726062E1,-6.380809749E0,4.219156687E0,-6.202114745E0,9.847956312E0
1.019729763E1,-7.737941485E0,3.941695780E0,-4.546724725E0,9.802316551E0
1.020733362E1,-7.109679213E0,3.289505532E0,-1.748649894E0,8.026590908E0
1.021737063E1,-5.395127649E0,2.557271580E0,1.491768262E0,6.154056616E0
1.022740762E1,-4.053464722E0,2.270451618E0,3.705705957E0,5.942876697E0
1.023744463E1,-2.892772534E0,2.202081880E0,5.040406312E0,6.214740005E0
1.024748062E1,-1.645664639E0,2.667560592E0,5.739300025E0,6.539392662E0
1.025751762E1,-7.993207385E-1,2.733225993E0,5.569058926E0,6.254906498E0
1.026755462E1,-9.119699793E-1,2.488610650E0,4.344768913E0,5.089389857E0
1.027759162E1,-1.336819532E0,2.437044640E0,2.373618430E0,3.655179542E0
1.028762762E1,-1.108387747E0,2.418981421E0,6.413021475E-1,2.737017164E0
1.029766462E1,-5.161602574E-1,2.007733296E0,-6.851714677E-1,2.183317278E0
1.030770162E1,1.843962725E0,2.567921113E0,-1.386727126E0,3.452163017E0
1.031773762E1,2.781452658E0,2.814984686E0,-1.517163012E0,4.238207319E0
1.032777462E1,2.965189716E0,2.949429131E-1,-9.793062955E-2,2.981431163E0
1.033781162E1,6.809183784E0,-2.483306640E-1,-1.557645917E0,6.989485870E0
1.034784862E1,1.024731209E1,-4.595145518E-1,-2.741771114E0,1.061771480E1
1.035788562E1,7.601569213E0,-3.267493104E0,-6.227794547E0,1.035595436E1
1.036792162E1,6.951188094E0,-4.693287524E0,-5.975760841E0,1.029833391E1
1.037795862E1,3.127781487E0,-5.609889448E0,-2.837361688E0,7.021716172E0
1.038799562E1,-1.300022127E0,-4.872701150E0,8.146194667E-2,5.043799171E0
1.039803162E1,-2.559130117E0,-3.174555119E0,-4.899636349E-1,4.106946740E0
1.040806863E1,-1.012360021E0,-1.623093510E0,-3.253528491E0,3.774222171E0
1.041810562E1,1.619555944E0,-1.112366704E0,-6.190064219E0,6.494398831E0
1.042814263E1,2.780579669E0,-1.399244553E0,-5.618872526E0,6.423491035E0
1.043817862E1,1.893119390E0,-2.868079743E0,-2.684863380E0,4.360994589E0
1.044821563E1,7.845618546E-2,-4.838160478E0,1.299201324E0,5.010177269E0
1.045825262E1,-1.374540067E0,-6.024992058E0,6.219466943E0,8.767648416E0
1.046828963E1,-2.153405856E0,-6.170553814E0,7.449022958E0,9.909633403E0
1.047832562E1,-1.984308473E0,-4.513204976E0,6.386480963E0,8.068062863E0
1.048836263E1,-2.694027867E-1,-2.857112120E0,5.097455256E0,5.849762185E0
1.049839962E1,7.153087480E-1,-1.220613284E0,3.539464353E0,3.811741243E0
1.050843663E1,3.478725670E-1,1.404115283E-1,2.403015014E0,2.432120860E0
1.051847262E1,-3.046303607E-1,5.192046833E-1,1.932014046E0,2.023623342E0
1.052850963E1,-7.507585893E-1,-5.808495390E-1,1.779426714E0,2.016775663E0
1.053854662E1,-3.579314590E-1,-2.290183048E0,1.553802835E0,2.790583554E0
1.054858363E1,1.966556033E-1,-3.632667509E0,9.773012853E-1,3.766970196E0
1.055861962E1,1.845849037E-1,-3.689922275E0,-3.795838447E-1,3.713984636E0
1.056865662E1,-6.244536880E-1,-2.409472679E0,-1.671684018E0,2.998337615E0
1.057869362E1,-1.798998660E0,-4.755294907E-1,-2.066133531E0,2.780545314E0
1.058873062E1,-2.476926159E0,1.014556235E0,-1.583670412E0,3.110064232E0
1.059876662E1,-3.275493557E0,7.852933413E-1,-8.661470313E-1,3.477895103E0
1.060880362E1,-3.249054202E0,8.932469755E-1,-5.142494604E-1,3.408620817E0
1.061884062E1,-4.034503371E0,6.789108539E-1,-1.017074923E-1,4.092490906E0
1.062887762E1,-5.549067296E0,5.279182041E-1,1.210240470E0,5.703992240E0
1.063891362E1,-6.068016456E0,8.470071942E-1,2.013188017E0,6.449121714E0
1.064895062E1,-6.059911630E0,1.278997732E0,1.976820674E0,6.501244815E0
1.065898762E1,-5.436679133E0,1.709033546E0,2.610897564E0,6.268577330E0
1.066902462E1,-4.216167591E0,1.577951835E0,2.674028782E0,5.236070194E0
1.067906063E1,-1.940812789E0,1.674854817E0,2.130456558E0,3.333277379E0
1.068909762E1,-2.142090178E-1,1.735604464E0,1.292006618E0,2.174279066E0
1.069913463E1,5.137103471E-1,1.723779640E0,2.890163215E-1,1.821769744E0
1.070917162E1,1.433121566E0,1.876644568E0,-1.288159150E0,2.689792976E0
1.071920763E1,3.169314552E0,2.306502627E0,-2.608876766E0,4.708582279E0
1.072924462E1,3.752761717E0,2.586356800E0,-4.391346663E0,6.329011575E0
1.073928163E1,3.725441771E0,3.110118218E0,-4.270374496E0,6.464352253E0
1.074931862E1,3.342597080E0,3.386754084E0,-3.080650005E0,5.668638542E0
1.075935463E1,2.555083844E0,3.024573453E0,-2.009249479E0,4.439997915E0
1.076939162E1,1.365281585E0,2.257506468E0,-5.932666862E-1,2.704125482E0
1.077942863E1,3.163543935E-1,1.589200124E0,1.527370935E0,2.226768760E0
1.078946562E1,-6.282641722E-1,6.829600507E-1,3.373239999E0,3.498556615E0
1.079950163E1,-2.796590807E0,-9.990236914E-1,5.445659287E0,6.202755319E0
1.080953862E1,-3.390405670E0,-2.737766356E0,8.812061552E0,9.830699060E0
1.081957563E1,-1.201299492E0,-1.936381477E0,5.362993691E0,5.827039988E0
1.082961262E1,1.215128742E0,-2.016014707E-1,-9.417175428E-1,1.550487969E0
1.083964862E1,3.612289377E0,1.007805625E0,-4.491034673E0,5.850957115E0
1.084968562E1,4.783131454E0,2.093441783E0,-5.428922217E0,7.532200306E0
1.085972262E1,3.825157848E0,2.798060505E0,-5.468634167E0,7.236500176E0
1.086975962E1,2.395634074E0,3.235926910E0,-3.840210335E0,5.563946531E0
1.087979562E1,9.533258007E-1,3.773108858E0,-3.893169737E0,5.504720805E0
1.088983262E1,-4.900200971E-1,4.195555571E0,-5.185340077E0,6.688090755E0
1.089986962E1,-9.680615151E-1,3.266610174E0,-5.285678882E0,6.288583813E0
1.090990662E1,-2.198953620E0,6.242458194E-1,-4.263557519E0,4.837664993E0
1.091994262E1,-1.386041978E0,-1.356035968E0,-3.234475046E0,3.771176837E0
1.092997962E1,8.666947693E-1,-2.246837053E0,-3.809679099E0,4.507004704E0
1.094001662E1,1.679285837E0,-2.864001310E0,-4.212642304E0,5.363661027E0
1.095005362E1,1.329459203E0,-2.804803514E0,-4.160237219E0,5.190564347E0
1.096008962E1,2.022986050E0,-1.563344906E0,-3.942913170E0,4.699264210E0
1.097012662E1,4.511787611E0,-1.647388691E-1,-3.047728427E0,5.447202485E0
1.098016362E1,6.207378409E0,5.952945006E-1,-3.161627510E0,6.991552815E0
1.099019963E1,5.801632513E0,7.777691442E-1,-4.720148463E0,7.519552259E0
1.100023662E1,5.659404255E0,6.537064308E-1,-4.679841267E0,7.372726965E0
1.101027429E1,5.443648430E0,4.343551522E-1,-2.491786273E0,6.002580399E0
1.102031129E1,4.538909921E0,-3.188206029E-1,6.379780054E-2,4.550540628E0
1.103034829E1,2.930770081E0,-1.310801323E0,5.756946337E-1,3.261753775E0
1.104038429E1,1.087516257E0,-2.287607934E0,3.883252859E-2,2.533248830E0
1.105042129E1,-6.388621775E-1,-3.030358688E0,5.603737593E-1,3.147258714E0
1.106045829E1,-2.693327809E0,-3.483137832E0,1.677539274E0,4.711730241E0
1.107049529E1,-4.582509100E0,-3.866299442E0,2.461015885E0,6.481069373E0
1.108053129E1,-6.030533465E0,-4.316635035E0,2.376676816E0,7.787763772E0
1.109056829E1,-7.785148396E0,-5.447743819E0,1.600979340E0,9.635848853E0
1.110060529E1,-9.187110150E0,-6.965306196E0,1.359111603E0,1.160886160E1
1.111064229E1,-9.110613951E0,-8.003757663E0,1.114488805E0,1.217807491E1
1.112067829E1,-8.113566034E0,-8.316768472E0,1.675038712E-1,1.162009678E1
1.113071529E1,-5.576840401E0,-7.547965448E0,7.345285459E-1,9.413419328E0
1.114075229E1,3.816755765E-1,-5.880418482E0,1.325288969E0,6.039982502E0
1.115078829E1,5.467197506E0,-4.126660168E0,1.485517881E0,7.009018197E0
1.116082529E1,6.996408706E0,-3.219163527E0,1.863804959E0,7.923794389E0
1.117086229E1,7.604486974E0,-3.015905541E0,1.846355114E0,8.386473369E0
1.118089929E1,7.498438947E0,-2.402322119E0,5.307517648E0,9.495655943E0
1.119093529E1,9.166370076E0,4.472318906E-1,8.832598143E0,1.273723466E1
1.120097229E1,8.531987523E0,2.485727972E0,1.122716744E1,1.431862226E1
1.121100929E1,6.404371689E0,3.048459329E0,1.076737164E1,1.289361753E1
1.122104629E1,4.057190860E0,3.514646139E0,8.651163134E0,1.018116686E1
1.123108229E1,1.679346940E0,3.952856360E0,6.777571982E0,8.023762305E0
1.124111929E1,-3.343956850E-1,4.216598530E0,4.148992146E0,5.925002909E0
1.125115629E1,-1.369659981E0,4.305728223E0,1.061573696E-1,4.519572257E0
1.126119329E1,-2.559059073E0,4.112312270E0,-5.293044620E0,7.174692808E0
1.127122929E1,-4.664903385E0,3.483335468E0,-7.229329033E0,9.282141339E0
1.128126629E1,-6.748904838E0,3.191826625E0,-6.027380061E0,9.595039558E0
1.129130329E1,-7.484310905E0,3.483899724E0,-3.486794389E0,8.961595958E0
1.130134029E1,-7.676341653E0,3.326861638E0,-1.943359837E0,8.588997438E0
1.131137629E1,-6.369967257E0,2.965409571E0,1.581423327E-1,7.028168024E0
1.132141329E1,-4.500843670E0,2.789153441E0,2.337239393E0,5.787888962E0
1.133145029E1,-2.764167704E0,3.028931968E0,3.450866172E0,5.359433673E0
1.134148729E1,-1.673135004E0,3.086547507E0,3.794450610E0,5.169527221E0
1.135152329E1,-1.375300205E0,3.021621194E0,3.971285322E0,5.176171597E0
1.136156029E1,-1.539658712E0,3.012805932E0,4.103465725E0,5.318456495E0
1.137159729E1,-1.231671977E0,3.527563223E0,2.696824444E0,4.607990911E0
1.138163429E1,-5.080020028E-1,4.160004500E0,3.960988668E-1,4.209584039E0
1.139167029E1,-6.633724630E-2,3.396892571E0,1.146390190E0,3.585734267E0
1.140170729E1,2.337175366E0,2.633285383E0,5.619126295E0,6.631075397E0
1.141174429E1,6.757718931E0,2.304352021E0,8.849416489E0,1.137053102E1
1.142178129E1,8.639295040E0,-2.191621211E0,2.600478118E0,9.284562928E0
1.143181729E1,9.276836259E0,-4.164116262E0,-3.509412588E0,1.075711541E1
1.144185429E1,1.039964960E1,-4.700640982E0,-8.151927862E0,1.402507274E1
1.145189129E1,9.034469170E0,-5.554581805E0,-1.134150974E1,1.552755149E1
1.146192829E1,4.672982775E0,-5.408761602E0,-8.228928090E0,1.089984989E1
1.147196429E1,-2.621036343E-2,-4.687735593E0,-2.331212375E0,5.235465892E0
1.148200129E1,-1.687467699E0,-3.160779664E0,1.593818547E0,3.921521756E0
1.149203829E1,-2.759954493E-1,-1.586760666E0,6.892636415E-1,1.751875357E0
1.150207529E1,2.136411216E0,-5.277416182E-1,-3.653390626E0,4.264976807E0
1.151211129E1,2.577361151E0,-4.804429060E-1,-6.741965947E0,7.233790204E0
1.152214829E1,1.605091687E0,-8.657562912E-1,-5.546703851E0,5.838816395E0
1.153218529E1,-5.552637313E-1,-2.689608688E0,-2.065678033E0,3.436471801E0
1.154222229E1,-2.514037852E0,-5.547651100E0,2.121215180E0,6.449525013E0
1.155225829E1,-2.482165264E0,-7.464514571E0,6.079034364E0,9.941568336E0
1.156229529E1,-1.709800263E0,-7.133301380E0,7.591879792E0,1.055670613E1
1.157233229E1,-4.418160532E-1,-4.462628900E0,6.215019550E0,7.663988918E0
1.158236929E1,1.191107649E0,-1.941556848E0,3.370789138E0,4.068242844E0
1.159240529E1,6.268166940E-1,-5.373433310E-1,1.900677209E0,2.072247783E0
1.160244229E1,-1.285805646E-1,4.987558007E-1,2.442499069E0,2.496215538E0
1.161247929E1,-6.550964601E-1,1.061860210E-1,2.409991619E0,2.499697271E0
1.162251629E1,-1.122797845E0,-1.304001011E0,2.049716889E0,2.676272214E0
1.163255229E1,-1.321257168E0,-2.952354493E0,1.570381738E0,3.595582895E0
1.164258929E1,-1.116642919E0,-3.614193816E0,4.040005016E-1,3.804274537E0
1.165262629E1,-1.322472950E0,-3.249140448E0,-1.122350094E0,3.683139705E0
1.166266329E1,-1.991747154E0,-2.148716097E0,-1.287305749E0,3.200186507E0
1.167269929E1,-2.418699878E0,1.231014311E-2,-1.323005924E0,2.756919533E0
1.168273629E1,-2.372038804E0,1.372502897E0,-1.210155831E0,2.995798629E0
1.169277329E1,-2.713282310E0,1.639288543E0,-3.618337445E-1,3.190625562E0
1.170281029E1,-3.495666954E0,1.367294782E0,-5.928022711E-1,3.800078552E0
1.171284629E1,-4.432228349E0,3.744147599E-1,2.855616403E-1,4.457171749E0
1.172288329E1,-4.730607963E0,1.977282751E-1,8.006532459E-1,4.801957287E0
1.173292029E1,-4.886246225E0,3.920733511E-2,2.860013509E-1,4.894766201E0
1.174295729E1,-5.182441027E0,-4.158656716E-2,8.803193665E-1,5.256841887E0
1.175299329E1,-4.701615713E0,4.470459491E-1,1.360057537E0,4.914752985E0
1.176303029E1,-3.589575576E0,7.047502846E-1,1.601279741E0,3.993222081E0
1.177306729E1,-2.079565170E0,1.202089890E0,2.146258951E0,3.221185944E0
1.178310429E1,-1.025970804E0,1.560177469E0,2.072268284E0,2.789456160E0
1.179314029E1,-7.315371104E-2,1.669316334E0,1.798887563E0,2.455191429E0
1.180317729E1,8.216393414E-1,1.708917187E0,1.213574260E0,2.251277780E0
1.181321429E1,1.563851567E0,1.634839396E0,2.788592693E-1,2.279494257E0
1.182325129E1,2.169192900E0,2.078541908E0,-1.786218401E-1,3.009591344E0
1.183328729E1,2.713274124E0,2.594672710E0,-1.219712813E0,3.947389300E0
1.184332429E1,3.381144850E0,2.747790822E0,-1.894794910E0,4.751078051E0
1.185336129E1,3.749359514E0,2.923779734E0,-1.892988266E0,5.117576505E0
1.186339829E1,3.566774066E0,3.000012224E0,-1.956595302E0,5.054722124E0
1.187343429E1,2.871892420E0,2.751037781E0,-1.320731649E0,4.190502003E0
1.188347129E1,1.285676714E0,2.233465641E0,-8.308285332E-1,2.707694487E0
1.189350829E1,-2.948812249E-1,1.499902616E0,-8.142978698E-3,1.528636354E0
1.190354529E1,-1.159790547E0,1.047830400E0,9.483026040E-1,1.828206906E0
1.191358129E1,-2.191909333E0,1.345134419E-1,2.418328726E0,3.266630407E0
1.192361829E1,-3.033681661E0,-1.055165148E0,4.729140311E0,5.716761845E0
1.193365529E1,-2.049731214E0,-1.401863521E0,4.483420429E0,5.125200301E0
1.194369229E1,2.079433060E-1,-4.434007949E-1,1.892615068E0,1.954951784E0
1.195372829E1,2.415596760E0,1.439184544E0,-2.545333904E0,3.792767399E0
1.196376529E1,3.494346360E0,2.894763511E0,-6.563672647E0,7.979468083E0
1.197380229E1,3.504525778E0,4.076398087E0,-7.416089101E0,9.159536006E0
1.198383929E1,3.502300035E0,5.104814562E0,-6.075948204E0,8.674236786E0
1.199387529E1,3.483949426E0,5.326410002E0,-3.539484526E0,7.282616138E0
1.200391229E1,1.218153434E0,3.339761181E0,-2.528334879E0,4.362382353E0
1.201394904E1,-1.754146716E0,7.304944056E-1,-3.963551502E0,4.395496933E0
1.202398604E1,-2.270554822E0,-1.601429576E0,-3.132814770E0,4.187424539E0
1.203402204E1,-5.226986139E-1,-3.470268111E0,-2.259281682E0,4.173766683E0
1.204405904E1,1.347320255E0,-4.791894969E0,-2.550880573E0,5.593256740E0
1.205409604E1,2.518939280E0,-5.081773608E0,-3.465503215E0,6.646742859E0
1.206413304E1,1.992181456E0,-3.491983500E0,-4.479723819E0,6.019191077E0
1.207416904E1,2.255802297E0,-1.167163301E0,-4.536614889E0,5.199210404E0
1.208420604E1,3.673324369E0,1.092581481E-1,-3.155298484E0,4.843671932E0
1.209424304E1,4.071997764E0,8.074542886E-1,-4.029974703E0,5.785658504E0
1.210428004E1,4.056197711E0,1.189146493E0,-4.202051243E0,5.960205021E0
1.211431604E1,4.294202777E0,9.342330337E-1,-2.903053694E0,5.266943098E0
1.212435304E1,3.832413366E0,9.463893950E-2,-1.078301411E0,3.982346377E0
1.213439004E1,2.679658481E0,-1.001885319E0,8.022387184E-2,2.861953814E0
1.214442704E1,1.559882477E0,-1.927873194E0,4.304240692E-1,2.516980984E0
1.215446304E1,4.232839610E-1,-2.506742281E0,1.255598345E0,2.835392985E0
1.216450004E1,-1.324141453E0,-2.674982463E0,2.120621395E0,3.661409136E0
1.217453704E1,-3.208561064E0,-2.557831158E0,2.510219035E0,4.810256120E0
1.218457404E1,-4.870424829E0,-2.551055405E0,2.101840138E0,5.886140812E0
1.219461004E1,-6.378438118E0,-3.283031495E0,1.238016937E0,7.279797700E0
1.220464704E1,-7.718934526E0,-4.816493036E0,6.343188179E-1,9.120466860E0
1.221468404E1,-8.840514103E0,-6.912090102E0,-2.928180349E-1,1.122574815E1
1.222472104E1,-8.536626704E0,-8.808186602E0,-1.327305089E0,1.233774232E1
1.223475704E1,-5.987681560E0,-8.647368876E0,-7.831528218E-1,1.054716300E1
1.224479404E1,-4.600431401E-1,-7.371633305E0,-6.474037170E-3,7.385977199E0
1.225483104E1,4.190041354E0,-5.707215183E0,-1.069594907E0,7.160501726E0
1.226486804E1,4.892592793E0,-4.077899067E0,-2.060121717E0,6.694088924E0
1.227490404E1,8.085238028E0,-1.587479289E0,-1.111873492E0,8.314290537E0
1.228494104E1,1.121666818E1,-1.213580253E0,5.322913367E0,1.247476768E1
1.229497804E1,1.149256086E1,-5.916511005E-1,9.833557262E0,1.513696980E1
1.230501504E1,9.633712295E0,1.144946805E0,1.322578668E1,1.640246168E1
1.231505104E1,6.175453196E0,2.363167409E0,1.343831893E1,1.497695557E1
1.232508804E1,2.875681415E0,3.218581145E0,1.076265059E1,1.159583787E1
1.233512504E1,8.108431886E-1,3.576417294E0,6.896804311E0,7.811154655E0
1.234516204E1,-1.425813131E0,3.202619416E0,3.259026628E0,4.786540376E0
1.235519804E1,-3.782574915E0,2.962863693E0,-8.630285650E-2,4.805609476E0
1.236523504E1,-5.039728035E0,2.958346719E0,-3.459498709E0,6.791082778E0
1.237527204E1,-5.061246373E0,3.639546173E0,-5.435541265E0,8.270889918E0
1.238530904E1,-6.146631685E0,4.759904852E0,-5.685320284E0,9.631232632E0
1.239534504E1,-6.573226413E0,5.002986470E0,-5.365817896E0,9.850339121E0
1.240538204E1,-6.592057371E0,4.530460694E0,-3.456641467E0,8.713705568E0
1.241541904E1,-5.938498290E0,3.839906865E0,-8.392204571E-1,7.121442105E0
1.242545604E1,-4.823724872E0,3.043710805E0,2.088224020E0,6.073975359E0
1.243549204E1,-3.384887068E0,2.982862340E0,3.145125206E0,5.499703698E0
1.244552904E1,-2.420028511E0,3.120833825E0,3.345627108E0,5.175844134E0
1.245556604E1,-2.019084934E0,3.001167634E0,3.371433502E0,4.944721933E0
1.246560304E1,-1.712151720E0,2.851508149E0,3.360303327E0,4.728022915E0
1.247563904E1,-1.279998776E0,2.704342502E0,3.034452616E0,4.261427919E0
1.248567604E1,-6.984616041E-1,2.717810978E0,2.390431513E0,3.686259343E0
1.249571304E1,7.715879063E-1,2.684536813E0,2.241825112E0,3.581600987E0
1.250575004E1,2.683943905E0,2.438098308E0,2.525930504E0,4.419072658E0
1.251578604E1,4.009353912E0,2.239520432E0,1.133716935E0,4.730294351E0
1.252582304E1,5.425393422E0,2.052111323E0,3.987225124E-1,5.814209689E0
1.253586004E1,9.954378279E0,1.344440355E0,8.442034543E-1,1.008017094E1
1.254589704E1,9.486111615E0,-3.729520789E0,-9.392153292E0,1.386030961E1
1.255593304E1,1.037069536E1,-4.105515466E0,-8.878648474E0,1.425612073E1
1.256597004E1,4.743232686E0,-5.537271708E0,-1.027563659E0,7.363118996E0
1.257600704E1,1.495488845E0,-5.799176683E0,7.942235014E-1,6.041334956E0
1.258604404E1,-8.186017129E-1,-4.735493896E0,3.383958822E0,5.877600575E0
1.259608004E1,-1.609888304E0,-3.208972415E0,2.668359906E0,4.473185543E0
1.260611704E1,-5.138236369E-1,-2.356508600E0,-8.353355670E-1,2.552436683E0
1.261615404E1,9.763188069E-1,-2.403693291E0,-5.690636573E0,6.254141384E0
1.262619104E1,1.479649615E0,-2.365622070E0,-7.980598011E0,8.454316967E0
1.263622704E1,9.265790284E-2,-2.646096048E0,-6.505523257E0,7.023691525E0
1.264626404E1,-1.359124906E0,-3.652259774E0,-4.536494436E0,5.980468522E0
1.265630104E1,-2.130659164E0,-4.555996070E0,-1.391441444E-1,5.031517639E0
1.266633804E1,-2.326443532E0,-3.913986994E0,4.393337640E0,6.327167559E0
1.267637404E1,-1.783610689E0,-2.916965389E0,6.529108586E0,7.370156925E0
1.268641104E1,7.254286703E-1,-1.786033775E0,7.456108614E0,7.701280353E0
1.269644804E1,1.745481288E0,-1.575237558E0,6.587118813E0,6.994155599E0
1.270648504E1,1.177594441E0,-2.037693844E0,6.066986761E0,6.507476718E0
1.271652104E1,4.891983806E-1,-3.130929628E0,4.647834778E0,5.625335858E0
1.272655804E1,-5.095291494E-1,-4.701740259E0,2.744445630E0,5.467903002E0
1.273659504E1,-1.745392703E0,-5.531146749E0,1.820947792E0,6.079130769E0
1.274663204E1,-2.762574338E0,-4.885114789E0,9.446768917E-1,5.691096371E0
1.275666804E1,-3.504888597E0,-3.594030862E0,4.478220208E-1,5.040024452E0
1.276670504E1,-3.539495636E0,-1.886240433E0,5.097883272E-1,4.042995977E0
1.277674204E1,-3.024610875E0,2.747694343E-1,1.961984973E-1,3.043396629E0
1.278677904E1,-2.260411364E0,1.355635434E0,-2.253948145E-1,2.645375170E0
1.279681504E1,-1.541572652E0,2.517090098E0,-1.052807550E0,3.133782466E0
1.280685204E1,-2.171695801E0,2.856558389E0,-1.986419610E0,4.101469413E0
1.281688904E1,-3.906851637E0,2.191858608E0,-2.455764793E0,5.108670530E0
1.282692604E1,-5.251637562E0,1.466467652E0,-2.466578926E0,5.984499649E0
1.283696204E1,-5.813117614E0,2.771165067E-1,-7.150795372E-1,5.863486054E0
1.284699904E1,-5.522213373E0,-5.851753092E-1,6.509446447E-1,5.591153692E0
1.285703604E1,-5.022216209E0,-7.747268379E-2,7.983927123E-1,5.085871468E0
1.286707304E1,-4.359493371E0,5.056537610E-1,-4.665586925E-1,4.413450486E0
1.287710904E1,-2.139776581E0,1.060381449E0,-3.742264795E-1,2.417250110E0
1.288714604E1,-5.956791743E-1,2.079410219E0,6.985083818E-1,2.273036405E0
1.289718304E1,5.180406488E-2,2.635364068E0,8.834523046E-1,2.779984785E0
1.290722004E1,4.963900904E-1,2.859892471E0,4.322156560E-1,2.934654740E0
1.291725604E1,1.511638270E0,3.195229704E0,-3.670028293E-1,3.553763386E0
1.292729304E1,2.288441454E0,2.952109494E0,-1.991448215E0,4.232939965E0
1.293733004E1,2.902108199E0,2.778954143E0,-4.092455710E0,5.735242965E0
1.294736704E1,3.299708631E0,3.098905597E0,-4.152727640E0,6.142999251E0
1.295740304E1,3.703292518E0,3.336315417E0,-2.943566712E0,5.788778889E0
1.296744004E1,3.725530649E0,3.097596406E0,-2.576541663E0,5.487554014E0
1.297747704E1,3.067033010E0,2.349445748E0,-1.259845762E0,4.063717282E0
1.298751404E1,1.550472407E0,1.645280769E0,6.226947724E-1,2.344922659E0
1.299755004E1,3.542006795E-1,1.044642498E0,1.870078729E0,2.171158798E0
1.300758704E1,-1.015713984E0,1.412728232E-1,3.940941489E0,4.072180340E0
1.301762413E1,-2.359634667E0,-1.773786197E0,8.614744921E0,9.106482487E0
1.302766112E1,-2.064088760E0,-2.672015001E0,8.564939507E0,9.206427936E0
1.303769712E1,-1.040103305E0,-1.606084544E0,2.079651124E0,2.825999159E0
1.304773412E1,3.275450141E-1,-1.662240618E-1,-4.407974975E0,4.423252147E0
1.305777112E1,2.256199907E0,7.451855350E-1,-7.441178334E0,7.811329880E0
1.306780812E1,3.154809072E0,1.717452368E0,-6.484626478E0,7.413018513E0
1.307784412E1,2.408825684E0,3.241518018E0,-4.501547967E0,6.047628819E0
1.308788112E1,1.484941638E0,4.461781054E0,-5.227370448E0,7.031212103E0
1.309791812E1,9.520277189E-1,4.672802973E0,-6.136644641E0,7.771734160E0
1.310795512E1,-2.457544356E-1,3.191678690E0,-6.018944868E0,6.817250577E0
1.311799112E1,-1.377385322E0,1.689475195E0,-5.443367763E0,5.863596965E0
1.312802812E1,-9.879516962E-1,5.589546400E-1,-4.493820287E0,4.634964899E0
1.313806512E1,1.095107112E0,-1.054238949E0,-3.398884133E0,3.723317431E0
1.314810212E1,2.303974144E0,-2.589986751E0,-3.085989683E0,4.641083984E0
1.315813812E1,1.888839959E0,-3.161425197E0,-3.626875842E0,5.168805862E0
1.316817513E1,1.461779940E0,-3.159448253E0,-3.566598065E0,4.983927729E0
1.317821212E1,2.235880248E0,-2.185078177E0,-3.812174690E0,4.930152431E0
1.318824913E1,3.325041985E0,-5.560181683E-1,-4.735696210E0,5.813078272E0
1.319828512E1,4.148641605E0,8.007218045E-1,-5.157539490E0,6.667278018E0
1.320832213E1,4.518306087E0,1.734788193E0,-4.473125821E0,6.590404736E0
1.321835912E1,4.126592340E0,2.086467808E0,-2.814792312E0,5.413424796E0
1.322839613E1,3.227519783E0,1.282082723E0,-1.046693702E0,3.627145953E0
1.323843212E1,2.134032715E0,3.248063976E-1,-3.481783032E-1,2.186509308E0
1.324846913E1,9.536002544E-1,-3.231463730E-1,1.922306498E-1,1.025051046E0
1.325850612E1,-8.021159269E-1,-1.451916271E0,1.319231254E0,2.119391875E0
1.326854313E1,-3.393342142E0,-3.346224693E0,2.229015909E0,5.261226331E0
1.327857912E1,-6.686588722E0,-5.887145119E0,2.611994501E0,9.283935677E0
1.328861613E1,-1.067446990E1,-8.677061622E0,2.305276319E0,1.394811833E1
1.329865312E1,-1.377278201E1,-1.113414408E1,2.227047590E0,1.784988599E1
1.330869013E1,-1.349642272E1,-1.197233075E1,2.707688863E0,1.824340179E1
1.331872612E1,-1.009651006E1,-1.051657520E1,2.368448760E0,1.476981445E1
1.332876312E1,-4.098112014E0,-8.065424153E0,2.163360010E0,9.301919984E0
1.333880012E1,2.111071576E0,-6.165463228E0,-5.495695665E-1,6.539998985E0
1.334883712E1,7.316696960E0,-4.812633873E0,-1.421589395E0,8.872227207E0
1.335887312E1,7.507648897E0,-4.174610260E0,4.804776970E-1,8.603663266E0
1.336891012E1,1.088040650E1,-2.161721474E0,4.254221855E0,1.188085388E1
1.337894712E1,1.093039552E1,-9.060745972E-1,8.928970197E0,1.414287899E1
1.338898412E1,1.050523043E1,4.030900902E-1,1.187736846E1,1.586172215E1
1.339902012E1,8.452001706E0,8.512610435E-1,1.333212063E1,1.580842873E1
1.340905712E1,5.813591239E0,2.250247734E0,1.204079112E1,1.355883877E1
1.341909412E1,4.131233275E0,3.203115844E0,8.693712738E0,1.014434230E1
1.342913112E1,2.449992422E0,3.456792617E0,5.044575377E0,6.587838704E0
1.343916712E1,5.929333949E-1,3.802377681E0,1.844606796E0,4.267577799E0
1.344920412E1,-1.924755897E0,3.422755390E0,-1.281749724E0,4.130716897E0
1.345924112E1,-4.503345986E0,2.898823818E0,-4.365193237E0,6.909284811E0
1.346927812E1,-6.190175316E0,2.947250458E0,-6.304699466E0,9.314171518E0
1.347931413E1,-7.878588656E0,3.534212092E0,-7.191520352E0,1.123747210E1
1.348935112E1,-8.838630130E0,4.240787292E0,-6.645627807E0,1.184356485E1
1.349938813E1,-8.220557216E0,4.156054121E0,-4.726528360E0,1.035328050E1
1.350942512E1,-7.705147961E0,3.591836987E0,-2.034510181E0,8.741271630E0
1.351946113E1,-6.097337319E0,3.374249813E0,4.853574908E-1,6.985603487E0
1.352949812E1,-4.459577823E0,3.447705460E0,2.121332417E0,6.022836418E0
1.353953513E1,-3.322751631E0,3.698192577E0,2.835038589E0,5.723176612E0
1.354957212E1,-3.019275876E0,3.844908573E0,2.639238726E0,5.555621459E0
1.355960813E1,-3.174423557E0,3.556468933E0,1.846042872E0,5.112074968E0
1.356964512E1,-2.993700154E0,3.238133065E0,8.414052692E-1,4.489511018E0
1.357968213E1,-2.231130994E0,3.134057888E0,-6.451493230E-1,3.900830938E0
1.358971912E1,4.609829338E-1,2.483388501E0,7.954332903E-1,2.648100797E0
1.359975513E1,3.585202736E0,2.943488359E0,4.156413432E0,6.228448844E0
1.360979212E1,9.568517010E0,3.696808541E0,1.473218146E1,1.795160388E1
1.361982913E1,7.350968660E0,-1.225384027E0,6.802870545E0,1.009045856E1
1.362986612E1,7.731518903E0,-3.688253480E0,-2.010579135E0,8.798978733E0
1.363990212E1,9.970166931E0,-4.557368996E0,-8.229258458E0,1.370746277E1
1.364993912E1,8.911079471E0,-6.247844065E0,-8.581949058E0,1.385975261E1
1.365997612E1,4.831263687E0,-6.596382557E0,-7.561548530E0,1.113689310E1
1.367001312E1,4.118978973E-1,-5.579079884E0,-2.900954251E0,6.301692455E0
1.368004912E1,-2.262897454E0,-3.593407549E0,6.088300739E-1,4.289983305E0
1.369008612E1,-2.564095280E0,-1.433840774E0,8.291889739E-1,3.052546204E0
1.370012312E1,-8.178307575E-1,-1.709193760E-1,-2.083543031E0,2.244818956E0
1.371016012E1,1.469384682E0,1.146716757E0,-6.747198036E0,6.999909428E0
1.372019712E1,2.872588823E0,1.424558319E0,-8.805907942E0,9.371507223E0
1.373023312E1,2.715521209E0,7.316761279E-1,-6.597370151E0,7.171798819E0
1.374027012E1,7.840581170E-1,-1.036649939E0,-2.997652287E0,3.267309209E0
1.375030712E1,-1.111068038E0,-3.796842121E0,1.216267926E0,4.138815041E0
1.376034312E1,-2.240551735E0,-6.556949519E0,5.971845546E0,9.147491366E0
1.377038012E1,-2.730796767E0,-7.141889770E0,7.491051575E0,1.070419050E1
1.378041712E1,-1.779218553E0,-5.942920539E0,6.696360589E0,9.128262065E0
1.379045412E1,1.906386723E-1,-4.220326715E0,5.249006900E0,6.737920608E0
1.380049112E1,9.119509028E-1,-1.736392084E0,4.066730008E0,4.514975623E0
1.381052713E1,3.250850174E-1,-1.157830560E-1,3.137741050E0,3.156660400E0
1.382056412E1,-4.007535428E-2,1.458471000E-1,2.340465009E0,2.345347281E0
1.383060113E1,-4.339348836E-1,-8.448033786E-1,1.918811471E0,2.140988018E0
1.384063712E1,-8.439679576E-1,-2.202648475E0,1.554312712E0,2.824859328E0
1.385067413E1,-1.289973541E0,-3.103844156E0,2.195791738E-1,3.368396546E0
1.386071112E1,-1.635124594E0,-3.300961981E0,-1.319094429E0,3.912798558E0
1.387074813E1,-2.403086789E0,-2.706914692E0,-1.585530850E0,3.951723844E0
1.388078512E1,-3.434786037E0,-1.264787829E0,-1.410016147E0,3.922446801E0
1.389082113E1,-4.286663377E0,6.238464546E-1,-1.873521716E0,4.719613430E0
1.390085812E1,-4.972568085E0,1.696925717E0,-2.634425590E0,5.877600568E0
1.391089513E1,-4.909152693E0,1.074403657E0,-2.173378337E0,5.475189200E0
1.392093212E1,-5.475559609E0,5.446798325E-2,-5.443746078E-1,5.502823230E0
1.393096813E1,-6.077840948E0,2.614699423E-1,-2.363010411E-1,6.088050205E0
1.394100512E1,-5.617810087E0,2.524517816E-1,1.608512016E-1,5.625779518E0
1.395104213E1,-4.039628163E0,-1.397010916E-1,1.413932905E0,4.282209517E0
1.396107912E1,-2.658121139E0,7.443704331E-1,2.062584271E0,3.445859720E0
1.397111512E1,-2.244971353E0,1.610068837E0,1.928408214E0,3.369120994E0
1.398115212E1,-1.676471572E0,2.023751158E0,1.896367811E0,3.240730868E0
1.399118912E1,-9.160155948E-1,2.348895525E0,1.856374172E0,3.130897606E0
1.400122612E1,-2.241474572E-1,2.450700812E0,1.138835295E0,2.711664135E0
1.401126212E1,5.618261345E-1,2.539057503E0,-3.139416862E-1,2.619355071E0
1.402129942E1,1.279298279E0,2.926673521E0,-2.588770530E0,4.111417620E0
1.403133642E1,1.917977073E0,2.680914463E0,-3.875988278E0,5.088145394E0
1.404137342E1,2.423487139E0,2.801028551E0,-4.251414607E0,5.638579344E0
1.405140942E1,2.611816746E0,2.889053705E0,-3.194477752E0,5.037152582E0
1.406144642E1,1.926585637E0,2.563465535E0,-1.517751242E0,3.547767833E0
1.407148342E1,1.042552046E0,2.046627805E0,5.725884466E-1,2.367162366E0
1.408152042E1,-1.253683966E-1,1.068996152E0,2.915055689E0,3.107413663E0
1.409155642E1,-1.233940258E0,8.395139873E-2,4.160773408E0,4.340701758E0
1.410159342E1,-1.459739846E0,-6.334165925E-1,5.423501848E0,5.652117240E0
1.411163042E1,-1.186606170E0,-1.190423525E0,5.504761773E0,5.755653269E0
1.412166742E1,-1.961447760E-1,-5.046661663E-1,2.344731138E0,2.406434047E0
1.413170342E1,1.082185716E0,8.743283093E-1,-1.785819182E0,2.263785782E0
1.414174042E1,2.183976561E0,1.743105272E0,-5.141447368E0,5.851722024E0
1.415177742E1,2.664279427E0,2.456955578E0,-5.890054693E0,6.915761698E0
1.416181442E1,2.741790117E0,3.315974123E0,-5.159531636E0,6.718174167E0
1.417185042E1,3.018280680E0,4.261101689E0,-3.372316139E0,6.216069659E0
1.418188742E1,2.002870897E0,4.692676490E0,-3.285031827E0,6.068289592E0
1.419192442E1,3.300941809E-1,3.933366421E0,-3.948797808E0,5.583308848E0
1.420196142E1,-1.375769444E0,2.389634246E0,-4.579198406E0,5.345292456E0
1.421199742E1,-2.408595158E0,3.732564265E-1,-5.086195273E0,5.640038417E0
1.422203442E1,-1.258260582E0,-1.446082504E0,-3.753594945E0,4.214718177E0
1.423207142E1,6.939745239E-1,-2.955313184E0,-3.242038420E0,4.441428798E0
1.424210842E1,7.422000928E-1,-4.211741248E0,-4.233180649E0,6.017428332E0
1.425214442E1,1.081063654E-1,-4.474177735E0,-5.538602534E0,7.120819575E0
1.426218142E1,9.505427454E-1,-3.010624335E0,-5.715017708E0,6.529074804E0
1.427221842E1,2.742362267E0,-3.110402977E-1,-4.555070456E0,5.325970684E0
1.428225542E1,3.964869757E0,2.012164316E0,-4.694434748E0,6.465811242E0
1.429229142E1,4.361026804E0,3.308179200E0,-5.488861440E0,7.751787168E0
1.430232842E1,4.026072271E0,3.424368637E0,-4.719201799E0,7.085649167E0
1.431236542E1,3.371820002E0,2.912385850E0,-2.510048296E0,5.113854116E0
1.432240242E1,3.128615885E0,2.159304235E0,-8.907531381E-1,3.904391539E0
1.433243842E1,2.799484302E0,1.187699892E0,-7.107699931E-1,3.122969320E0
1.434247542E1,1.973750009E0,-2.519822502E-1,-3.466112494E-2,1.990071744E0
1.435251242E1,6.032762789E-1,-1.704154630E0,8.182348001E-1,1.984337033E0
1.436254942E1,-1.237815354E0,-3.286212380E0,1.670144885E0,3.888542477E0
1.437258542E1,-3.676126354E0,-4.540249518E0,1.860884567E0,6.131122412E0
1.438262242E1,-6.403998052E0,-5.599025906E0,1.712255362E0,8.677102084E0
1.439265942E1,-9.313138697E0,-7.032977192E0,2.431473413E0,1.192096404E1
1.440269642E1,-1.160992384E1,-8.567014099E0,1.595866681E0,1.451657165E1
1.441273242E1,-1.214262740E1,-9.920134646E0,6.370192082E-1,1.569261817E1
1.442276942E1,-9.054615167E0,-1.048194097E1,5.221705373E-1,1.386108958E1
1.443280642E1,-1.384238990E0,-9.555971224E0,1.111907990E-1,9.656348534E0
1.444284342E1,4.473494781E0,-8.564327888E0,-5.643334937E-1,9.678757153E0
1.445287942E1,6.463116326E0,-8.377132788E0,9.050106964E-1,1.061919351E1
1.446291642E1,8.378563601E0,-5.841517541E0,3.834451705E0,1.090993470E1
1.447295342E1,1.082253427E1,-2.901101893E0,5.031329094E0,1.228242291E1
1.448299042E1,9.142918648E0,-2.438201804E0,7.773640491E0,1.224611269E1
1.449302642E1,7.883941782E0,-3.879113030E-1,1.265099018E1,1.491155812E1
1.450306342E1,8.060720068E0,2.487622470E0,1.464326870E1,1.689937252E1
1.451310042E1,7.025237233E0,4.106277359E0,1.237881983E1,1.481386689E1
1.452313742E1,5.249793935E0,4.959083236E0,8.630594383E0,1.125344402E1
1.453317442E1,1.922099945E0,4.342438213E0,4.894495185E0,6.819627625E0
1.454321042E1,-2.467062344E-1,3.782295418E0,1.069413351E0,3.938307696E0
1.455324742E1,-6.510737219E-1,3.999354588E0,-4.821331314E0,6.297933769E0
1.456328442E1,-3.687329035E0,3.606055661E0,-7.981825926E0,9.503135165E0
1.457332142E1,-6.556537875E0,3.981905912E0,-7.460069518E0,1.070029910E1
1.458335742E1,-8.132219236E0,4.472326507E0,-6.021086118E0,1.106291879E1
1.459339442E1,-8.648824832E0,4.833862774E0,-3.826459146E0,1.062121414E1
1.460343142E1,-8.715770189E0,4.732183787E0,-1.343298686E0,1.000812993E1
1.461346842E1,-7.191288217E0,4.395298796E0,2.462540254E-1,8.431720986E0
1.462350442E1,-4.873790779E0,3.926562016E0,2.432129470E0,6.714683878E0
1.463354142E1,-3.377275747E0,3.491306393E0,3.684397241E0,6.096720006E0
1.464357842E1,-2.368946066E0,3.129485366E0,4.256938764E0,5.790260077E0
1.465361542E1,-1.940341650E0,2.914116626E0,4.125187546E0,5.410561313E0
1.466365142E1,-1.959589953E0,2.595512370E0,3.052840940E0,4.460550981E0
1.467368842E1,-1.544397881E0,2.452454392E0,2.427357557E0,3.780444692E0
1.468372542E1,-3.963106821E-1,3.006742954E0,1.237637160E0,3.275562713E0
1.469376242E1,1.145180621E0,3.807677597E0,-3.230387843E-1,3.989260758E0
1.470379842E1,2.035354665E0,3.788025105E0,2.232147093E0,4.845026672E0
1.471383542E1,3.424425063E0,2.956380301E0,1.055232508E1,1.148122102E1
1.472387242E1,5.478363934E0,-4.052912160E0,-2.839664029E0,7.382564606E0
1.473390942E1,8.586023397E0,-4.522160572E0,-3.462317944E0,1.030327033E1
1.474394542E1,1.100249753E1,-2.383559573E0,-7.372946005E0,1.345721520E1
1.475398242E1,8.726643087E0,-3.268205295E0,-1.081346874E1,1.427468289E1
1.476401942E1,5.227446461E0,-4.863486523E0,-1.021074594E1,1.245949559E1
1.477405642E1,7.846947326E-1,-4.810412516E0,-3.827479777E0,6.197210328E0
1.478409242E1,-3.319269906E0,-4.184415455E0,1.552308579E0,5.562063227E0
1.479412942E1,-3.762913653E0,-2.687833473E0,1.922433529E0,5.007965516E0
1.480416642E1,-6.616362785E-1,-1.187984651E0,-1.433991047E0,1.976208597E0
1.481420342E1,2.573924157E0,-8.888709193E-1,-4.775053818E0,5.496936969E0
1.482423942E1,3.052899705E0,-1.100512644E0,-5.750129653E0,6.602674891E0
1.483427642E1,1.786578736E0,-3.232129143E0,-3.773470216E0,5.279924228E0
1.484431342E1,2.761882612E-1,-5.774403784E0,9.170249704E-1,5.853285728E0
1.485435042E1,-1.171846628E0,-6.653675914E0,5.230848956E0,8.544378766E0
1.486438642E1,-2.162850571E0,-5.847482285E0,7.502786937E0,9.755141388E0
1.487442342E1,3.438893706E-3,-4.304811380E0,7.609878691E0,8.743092504E0
1.488446042E1,1.430355248E0,-2.713237286E0,5.727233126E0,6.496827841E0
1.489449742E1,1.403834471E0,-1.790791070E0,3.910902003E0,4.524692073E0
1.490453342E1,1.425622220E0,-2.077888189E0,2.978586856E0,3.901537863E0
1.491457042E1,4.338021518E-1,-3.607322168E0,2.855147456E0,4.620911655E0
1.492460742E1,-4.697907409E-1,-5.345284229E0,2.942546665E0,6.119750625E0
1.493464442E1,-1.208169240E0,-5.745531988E0,1.886133722E0,6.166709913E0
1.494468042E1,-2.051848930E0,-4.497091804E0,4.425766298E-1,4.962841202E0
1.495471742E1,-2.848274639E0,-2.220210587E0,-1.121694767E-1,3.613112988E0
1.496475442E1,-3.590484526E0,6.816099286E-3,-5.119152519E-1,3.626800630E0
1.497479142E1,-3.466510690E0,1.897226182E0,-1.138903269E0,4.112573915E0
1.498482742E1,-3.443161004E0,2.298237587E0,-9.165368740E-1,4.239963861E0
1.499486442E1,-3.406644265E0,2.051467545E0,-8.954728644E-1,4.076225691E0
1.500490142E1,-3.372075233E0,1.273321255E0,-8.271668606E-1,3.698167575E0
1.501493825E1,-4.629727413E0,6.661990070E-1,-5.644716342E-1,4.711350683E0
1.502497425E1,-5.698103467E0,4.633041322E-1,-8.138235144E-1,5.774542627E0
1.503501125E1,-6.664030164E0,5.136550909E-1,-1.447021129E0,6.838640927E0
1.504504825E1,-6.037971123E0,7.104653531E-1,-7.257985067E-1,6.122796728E0
1.505508525E1,-4.499978575E0,1.188774610E0,3.190346110E-1,4.665273339E0
1.506512125E1,-3.142826958E0,1.866586187E0,1.254856772E0,3.864734247E0
1.507515825E1,-2.451540472E0,2.226760054E0,1.646212231E0,3.698449098E0
1.508519525E1,-1.758650680E0,2.338041338E0,9.854286958E-1,3.087127990E0
1.509523225E1,-9.434969236E-1,2.307355735E0,-4.441977704E-1,2.532071996E0
1.510526825E1,4.251010564E-1,2.687865633E0,-2.496832420E0,3.693170007E0
1.511530525E1,1.881900776E0,2.973100998E0,-4.211058294E0,5.487612598E0
1.512534225E1,3.260253958E0,3.229912464E0,-4.252683452E0,6.256748912E0
1.513537925E1,3.214216491E0,2.764731960E0,-3.618086307E0,5.573641448E0
1.514541625E1,2.517930636E0,2.866343120E0,-2.123325294E0,4.366280782E0
1.515545225E1,2.496840021E0,2.989994774E0,-9.915169629E-1,4.019624948E0
1.516548925E1,1.878851161E0,2.199539511E0,2.985589774E-1,2.908125377E0
1.517552625E1,1.580272595E0,1.428503435E0,2.135214876E0,3.016127667E0
1.518556325E1,5.542465351E-1,4.794190586E-1,3.364352231E0,3.443239433E0
1.519559925E1,-5.087480710E-1,-5.719418907E-1,4.114436563E0,4.185036482E0
1.520563625E1,-8.178981467E-1,-1.503403344E0,5.052260957E0,5.334277811E0
1.521567325E1,-6.323367214E-2,-1.248769966E0,3.855965073E0,4.053626965E0
1.522571025E1,1.393573631E0,1.901970613E-1,3.969815040E-1,1.461443362E0
1.523574625E1,3.197001118E0,1.736339459E0,-2.870340861E0,4.634063824E0
1.524578325E1,4.065978933E0,2.833204610E0,-4.365359298E0,6.604210388E0
1.525582025E1,4.049471951E0,3.398091250E0,-5.225850756E0,7.433354784E0
1.526585725E1,3.853184430E0,4.245644574E0,-5.023601414E0,7.622932458E0
1.527589325E1,2.200145428E0,4.494829516E0,-4.141499231E0,6.495856231E0
1.528593025E1,1.298748823E-1,3.960358922E0,-3.439792423E0,5.247235671E0
1.529596725E1,-1.980027580E0,2.412468792E0,-3.461163996E0,4.660490435E0
1.530600425E1,-3.048576566E0,3.027395904E-1,-3.730282096E0,4.827056541E0
1.531604025E1,-1.624995609E0,-1.867586646E0,-3.754603590E0,4.497281259E0
1.532607725E1,7.737909910E-1,-3.191110926E0,-4.160831296E0,5.300420597E0
1.533611425E1,-1.582885314E-1,-4.159862997E0,-5.282163536E0,6.725382296E0
1.534615125E1,-9.739595284E-1,-3.749347528E0,-5.718393890E0,6.906969866E0
1.535618725E1,8.374237539E-1,-1.688958301E0,-4.581446661E0,4.954140914E0
1.536622425E1,3.403604297E0,5.077616823E-1,-4.624379842E0,5.764306815E0
1.537626125E1,4.242769498E0,1.840770730E0,-5.578212742E0,7.246101524E0
1.538629825E1,4.716902966E0,1.986416686E0,-4.620237089E0,6.895042828E0
1.539633425E1,5.191245180E0,1.536199207E0,-1.647768760E0,5.658981923E0
1.540637125E1,4.682051514E0,7.672160894E-1,5.301939769E-1,4.774026871E0
1.541640825E1,3.042699237E0,-4.174105060E-1,5.802391628E-1,3.125528381E0
1.542644525E1,1.152451268E0,-1.799906294E0,1.106258118E-1,2.140103891E0
1.543648125E1,-6.101015144E-1,-3.068662629E0,8.274066695E-1,3.236281196E0
1.544651825E1,-2.370484030E0,-3.965421442E0,2.056643500E0,5.057029190E0
1.545655525E1,-4.336768168E0,-4.567416852E0,2.464631803E0,6.763376728E0
1.546659225E1,-6.335437694E0,-5.017540190E0,2.375654722E0,8.423610609E0
1.547662825E1,-8.655061473E0,-5.933264447E0,2.635853480E0,1.081949350E1
1.548666525E1,-1.056852186E1,-6.972611123E0,2.143977513E0,1.284163540E1
1.549670225E1,-1.134654419E1,-8.376711203E0,1.116202916E0,1.414776536E1
1.550673925E1,-8.925558931E0,-8.636631634E0,6.604124562E-1,1.243757021E1
1.551677525E1,-2.807293258E0,-7.122882226E0,5.179219504E-1,7.673629506E0
1.552681225E1,5.335078499E0,-6.844837766E0,-1.027484283E0,8.739026867E0
1.553684925E1,9.180848367E0,-7.703444082E0,1.559022352E0,1.208559383E1
1.554688625E1,9.904798568E0,-5.705621817E0,1.894200833E0,1.158650732E1
1.555692225E1,1.016041077E1,-3.142051032E0,3.972723152E0,1.135292742E1
1.556695925E1,1.132043754E1,-5.190292668E-1,7.018329917E0,1.332961561E1
1.557699625E1,1.008281003E1,1.539487681E0,1.020329074E1,1.442706562E1
1.558703325E1,7.633883266E0,2.795671917E0,1.233910320E1,1.477651593E1
1.559707025E1,5.680936042E0,3.601018869E0,1.164961357E1,1.345190944E1
1.560710625E1,4.005605847E0,4.639236447E0,6.877689178E0,9.212491598E0
1.561714325E1,8.726106166E-1,4.614850634E0,1.793331685E0,5.027358571E0
1.562718025E1,-3.441610468E-1,3.248092042E0,-1.086559726E0,3.442260998E0
1.563721725E1,-7.091240019E-1,3.000964150E0,-2.923255531E0,4.249007600E0
1.564725325E1,-4.012657589E0,2.740219263E0,-3.121497777E0,5.775289681E0
1.565729025E1,-6.574059057E0,3.268333933E0,-3.650781598E0,8.199296644E0
1.566732725E1,-7.718735136E0,3.892021928E0,-3.091439288E0,9.180615647E0
1.567736425E1,-8.192040346E0,3.806635038E0,-2.198931108E0,9.297058317E0
1.568740025E1,-7.449781927E0,3.440323935E0,-1.126370493E0,8.282740490E0
1.569743725E1,-5.999130408E0,3.093063059E0,9.080170423E-2,6.750174049E0
1.570747425E1,-4.168796665E0,2.855740948E0,1.575948287E0,5.293178157E0
1.571751125E1,-2.754543187E0,2.784141793E0,2.683836609E0,4.747834520E0
1.572754725E1,-1.985427922E0,2.662387560E0,3.247448264E0,4.645013647E0
1.573758425E1,-1.725881275E0,2.826906574E0,3.347037456E0,4.708792487E0
1.574762125E1,-1.790638604E0,3.328163813E0,2.507884827E0,4.535697001E0
1.575765825E1,-1.320128801E0,4.337260503E0,5.466035664E-1,4.566546199E0
1.576769425E1,-6.812959331E-1,4.987396624E0,-8.355282328E-1,5.102587252E0
1.577773125E1,3.915591616E-1,4.828686234E0,1.972070835E0,5.230544207E0
1.578776825E1,5.966074929E0,6.020806621E0,8.576435133E0,1.205816744E1
1.579780525E1,5.847216237E0,8.407173443E-1,6.847833295E0,9.043758301E0
1.580784125E1,1.182446022E0,-4.194877294E0,2.029977858E0,4.807908507E0
1.581787825E1,6.756917862E0,-3.498776795E0,-5.556236567E0,9.421737783E0
1.582791525E1,1.108268976E1,-2.341477162E0,-1.134295517E1,1.603032001E1
1.583795225E1,1.058272709E1,-3.994827089E0,-1.371674814E1,1.777925577E1
1.584798825E1,5.027577521E0,-4.885911765E0,-8.231706687E0,1.081247726E1
1.585802525E1,-7.428466487E-1,-4.496131691E0,-4.810536477E-1,4.582404821E0
1.586806225E1,-2.444931072E0,-2.561012628E0,3.122410235E0,4.720796469E0
1.587809925E1,-8.242859374E-1,-4.541672730E-1,2.498200376E0,2.669591792E0
1.588813525E1,1.894387067E0,9.787753683E-1,-2.141029640E0,3.021706719E0
1.589817225E1,3.311257174E0,8.901999915E-1,-6.579420369E0,7.419275739E0
1.590820925E1,3.074367172E0,-9.936933696E-1,-6.558765664E0,7.311399802E0
1.591824625E1,1.645395667E0,-2.720623489E0,-2.304892596E0,3.927040737E0
1.592828225E1,-1.182172154E0,-5.429373622E0,2.192998523E0,5.973681566E0
1.593831925E1,-2.581862045E0,-8.078263469E0,5.816591445E0,1.028382654E1
1.594835625E1,-8.593421879E-1,-8.043459672E0,8.069045334E0,1.142563806E1
1.595839325E1,1.264358936E0,-6.250564774E0,6.894269543E0,9.391438444E0
1.596842925E1,1.924653278E0,-4.493727901E0,3.614887588E0,6.079908960E0
1.597846625E1,1.024672503E0,-3.339821407E0,2.911000060E0,4.547337916E0
1.598850325E1,-1.901277718E-1,-2.268219151E0,3.776046499E0,4.409024138E0
1.599854025E1,-8.414289504E-2,-1.778323052E0,3.839012533E0,4.231728977E0
1.600857725E1,-7.504076833E-1,-2.494433307E0,3.147760838E0,4.085793376E0
1.601861250E1,-1.815869924E0,-3.361740865E0,2.411660999E0,4.518273342E0
1.602864950E1,-2.146696907E0,-3.709454899E0,1.219033659E0,4.455828354E0
1.603868650E1,-2.262616496E0,-2.907983481E0,-6.596336071E-1,3.743116059E0
1.604872350E1,-2.612266397E0,-1.777932458E0,-2.018445687E0,3.749546979E0
1.605875950E1,-3.258258596E0,-3.974001646E-1,-2.573829725E0,4.171183935E0
1.606879650E1,-3.637606652E0,7.619933563E-1,-3.333122252E0,4.992245985E0
1.607883350E1,-3.633018926E0,1.541749969E0,-2.513472426E0,4.679034422E0
1.608887050E1,-3.947297412E0,1.231032438E0,-8.154281366E-1,4.214441928E0
1.609890650E1,-4.578651692E0,1.907361746E-2,9.486138220E-1,4.675925930E0
1.610894350E1,-4.943322651E0,2.220743269E-1,1.931134332E0,5.311782719E0
1.611898050E1,-5.033220084E0,1.085795202E0,5.983524482E-1,5.183655205E0
1.612901750E1,-4.371801175E0,1.074905933E0,4.173624127E-1,4.521311720E0
1.613905350E1,-3.920324791E0,1.203034215E0,8.240024936E-1,4.182728523E0
1.614909050E1,-3.344476376E0,1.440362173E0,6.183407164E-1,3.693576946E0
1.615912750E1,-2.135082144E0,1.957192887E0,6.110504079E-1,2.960162556E0
1.616916450E1,-1.437555364E0,2.644160035E0,1.403636543E-1,3.012947007E0
1.617920050E1,-8.206326701E-1,2.904231908E0,-5.942572045E-1,3.075897036E0
1.618923750E1,2.377284195E-1,3.292140872E0,-1.222124205E0,3.519700824E0
1.619927450E1,1.737573368E0,3.339486362E0,-2.596150886E0,4.572890748E0
1.620931150E1,2.667312670E0,3.158089360E0,-4.304286300E0,5.967827564E0
1.621934750E1,2.884328570E0,3.179166234E0,-4.793182526E0,6.434364612E0
1.622938450E1,3.143477753E0,3.199947238E0,-3.695070748E0,5.811597245E0
1.623942150E1,2.930480644E0,3.048141825E0,-1.317907444E0,4.428968889E0
1.624945850E1,1.728647739E0,2.189914409E0,5.892869250E-1,2.851527170E0
1.625949450E1,1.289093973E0,1.821181388E0,2.591978313E0,3.420060891E0
1.626953150E1,7.249685676E-1,1.387085853E0,3.630186535E0,3.953206403E0
1.627956850E1,-7.828581221E-2,5.685417348E-1,4.112207605E0,4.152062109E0
1.628960550E1,-8.614920630E-1,-4.492637980E-1,4.733404101E0,4.832092809E0
1.629964150E1,-1.001582506E0,-1.384216624E0,5.005518315E0,5.289086573E0
1.630967850E1,5.098255849E-2,-1.293923920E0,3.207609429E0,3.459132345E0
1.631971550E1,1.435893585E0,-4.326196986E-1,-1.317716825E-1,1.505428167E0
1.632975250E1,2.785358598E0,6.131197375E-1,-3.171520414E0,4.265287806E0
1.633978850E1,3.317294132E0,1.247028081E0,-4.957368833E0,6.093851421E0
1.634982550E1,2.707416383E0,1.747553834E0,-4.832319109E0,5.808214515E0
1.635986250E1,1.940281278E0,2.350460240E0,-3.945666039E0,4.985743201E0
1.636989950E1,1.547487111E0,3.395613200E0,-3.168417882E0,4.895281119E0
1.637993550E1,4.571194226E-1,3.343925568E0,-3.278792848E0,4.705452041E0
1.638997250E1,-8.172884282E-1,1.989566581E0,-4.266747175E0,4.778228439E0
1.640000950E1,-1.002331315E0,2.299429250E-1,-4.686373776E0,4.797878800E0
1.641004650E1,-1.143229697E-1,-1.732386156E0,-4.426794239E0,4.755075054E0
1.642008350E1,6.374437161E-1,-2.828939066E0,-4.169737775E0,5.078970746E0
1.643011950E1,1.015393995E0,-2.862406189E0,-4.239642407E0,5.215262400E0
1.644015650E1,1.437618075E0,-1.899266860E0,-4.408488361E0,5.010861200E0
1.645019350E1,2.766654525E0,-6.363682669E-1,-4.107667242E0,4.993222607E0
1.646023050E1,4.570043421E0,5.167301416E-2,-3.824933315E0,5.959704844E0
1.647026650E1,4.730385768E0,6.802223843E-1,-4.920905011E0,6.859632508E0
1.648030350E1,4.286162855E0,7.142011392E-1,-4.852054632E0,6.513348558E0
1.649034050E1,4.461002789E0,7.526535988E-2,-2.701455731E0,5.215752470E0
1.650037750E1,4.247994570E0,-7.125592411E-1,-3.717460907E-1,4.323354449E0
1.651041350E1,2.925074308E0,-1.377703410E0,-1.382643577E-1,3.236239087E0
1.652045050E1,1.145366855E0,-1.992979601E0,1.569860458E-1,2.304013355E0
1.653048750E1,-6.328730207E-1,-2.274986134E0,1.458960997E0,2.775726457E0
1.654052450E1,-2.453507183E0,-2.336140993E0,3.184848558E0,4.649786293E0
1.655056050E1,-4.228404059E0,-2.379055463E0,3.690306437E0,6.095708932E0
1.656059750E1,-5.793804261E0,-2.854624130E0,2.971515234E0,7.109637791E0
1.657063450E1,-7.468442731E0,-3.994335338E0,1.490787392E0,8.599697592E0
1.658067150E1,-8.686882020E0,-5.710826424E0,3.566404668E-1,1.040205028E1
1.659070750E1,-9.443106514E0,-7.411684393E0,4.760368828E-1,1.201382276E1
1.660074450E1,-8.379112070E0,-9.428392580E0,-8.532584524E-1,1.264247427E1
1.661078150E1,-9.327580735E-1,-9.275135304E0,-3.153737862E0,9.840946856E0
1.662081850E1,4.749429273E0,-8.229278339E0,-2.627557451E0,9.858101163E0
1.663085450E1,5.228498375E0,-7.957647105E0,-9.088618188E-1,9.564903163E0
1.664089150E1,5.852448326E0,-6.071856907E0,1.652316724E0,8.593529441E0
1.665092850E1,7.581864097E0,-2.325092095E0,2.852047555E0,8.427626693E0
1.666096550E1,8.385914136E0,-6.080759293E-1,5.677196163E0,1.014514014E1
1.667100150E1,9.373886005E0,2.031040297E0,1.041420215E1,1.415805318E1
