"Time (s)","Linear Acceleration x (m/s^2)","Linear Acceleration y (m/s^2)","Linear Acceleration z (m/s^2)","Absolute acceleration (m/s^2)"
3.219125094E-3,-1.434830707E-1,-1.145466623E0,-2.656394164E0,2.896396231E0
1.325912506E-2,8.361354661E-1,-5.735732639E-1,-3.414888546E0,3.562242635E0
2.329812502E-2,1.507852491E0,-1.033539805E0,8.389216644E-1,2.011370981E0
3.333712509E-2,6.730086744E-1,-2.680112225E-1,3.264144403E0,3.343562378E0
4.337712505E-2,5.013116187E-1,5.457884645E-1,9.989617109E-1,1.243833947E0
5.341612501E-2,1.321003545E0,1.012793884E0,-4.481516576E-1,1.723845041E0
6.345612509E-2,1.699545854E0,1.195180235E0,-1.544723278E-1,2.083452328E0
7.349512505E-2,1.707381123E0,1.653315428E0,6.601155182E-2,2.377595367E0
8.353512501E-2,5.130615985E-1,2.234977146E0,9.066704285E-1,2.465847990E0
9.357412509E-2,3.574473095E-1,2.725174962E0,9.622213161E-1,2.912081217E0
1.036141251E-1,9.629428625E-1,2.789532341E0,1.038697050E0,3.128520608E0
1.136531250E-1,1.480029684E0,2.440175824E0,6.204942459E-1,2.920609359E0
1.236931251E-1,1.353221118E0,1.767385250E0,-3.814314187E-2,2.226277817E0
1.337321250E-1,3.278218067E-1,1.660187661E0,-8.146411014E-1,1.878118828E0
1.437721250E-1,-1.292282606E0,2.663050050E-1,-5.296864021E-1,1.421787739E0
1.538111251E-1,-3.681574205E0,-1.923494799E0,-2.402644483E-1,4.160714827E0
1.638511250E-1,-4.404349117E0,-3.694418784E0,6.659627795E-1,5.787100113E0
1.738901250E-1,-1.625779721E0,-1.254746990E0,4.582714337E-1,2.104177373E0
1.839291251E-1,-1.929563624E-1,-6.022550261E-1,1.675812591E0,1.791170319E0
1.939691250E-1,2.366169954E0,-2.263854790E0,-1.566048074E-1,3.278463638E0
2.040081250E-1,-5.962610453E-1,-2.653925470E0,-7.855365855E-1,2.831239191E0
2.140481251E-1,-1.235030179E0,-3.508329391E-5,3.467550910E-1,1.282785499E0
2.240871250E-1,1.189382136E-1,2.031983453E-1,2.983611953E-1,3.800727155E-1
2.341271250E-1,6.658224463E-2,-2.552824187E-1,3.802689922E-1,4.628248211E-1
2.441661251E-1,8.599324644E-2,-4.612336332E-1,5.084890759E-1,6.918760316E-1
2.542061250E-1,-8.550968170E-3,-7.555362761E-1,5.804203169E-1,9.527832533E-1
2.642451250E-1,1.175746429E-1,-9.310521483E-1,5.664443020E-1,1.096148278E0
2.742851251E-1,8.798714697E-2,-1.074177954E0,6.464506209E-1,1.256780976E0
2.843241250E-1,-1.780015236E-1,-1.140252076E0,6.206959748E-1,1.310390336E0
2.943641250E-1,-2.192583078E-1,-1.370572146E0,4.820995684E-1,1.469340739E0
3.044031251E-1,-4.071954203E-1,-1.646109320E0,5.250987498E-1,1.775165542E0
3.144431250E-1,-3.629267353E-1,-1.853518830E0,4.100381903E-1,1.932712908E0
3.244821250E-1,-2.420706350E-1,-1.926956350E0,1.457664084E-1,1.947564329E0
3.345211251E-1,6.468891621E-2,-1.487624048E0,4.116208123E-1,1.544875936E0
3.445611250E-1,5.777306342E-1,-9.420782429E-1,1.646534120E0,1.983017577E0
3.546001250E-1,-1.319389129E-1,-4.819737071E-1,-2.545661348E0,2.594243287E0
3.646401251E-1,-9.508870733E-1,6.807556504E-1,-2.978640651E0,3.199986657E0
3.746791250E-1,-5.569373506E-1,9.350586605E-1,-1.323577197E-1,1.096372417E0
3.847191250E-1,5.535611683E-1,8.055527741E-1,-7.165996671E-2,9.800410143E-1
3.947581251E-1,1.228557896E0,7.570764327E-1,-1.714016982E-1,1.453236998E0
4.047981250E-1,1.275862455E-1,9.776445168E-1,2.846529830E-1,1.026203865E0
4.148371251E-1,-3.474003312E-1,7.548661852E-1,-6.822904714E-1,1.075188465E0
4.248771251E-1,-1.202976912E-1,1.048372437E0,6.753651023E-2,1.057410744E0
4.349161250E-1,4.136501616E-1,1.815723013E0,8.479128548E-1,2.046194694E0
4.449561250E-1,1.249938825E-1,2.249882868E0,7.488787095E-1,2.374534841E0
4.549951251E-1,-1.103661954E-3,2.240357169E0,4.421325338E-1,2.283567963E0
4.650351250E-1,1.836724457E-1,1.844971370E0,2.331004214E-1,1.868686900E0
4.750741251E-1,1.028724623E0,2.053911681E0,6.366063217E-1,2.383714570E0
4.851141251E-1,1.008636222E0,1.638579860E0,5.728574185E-1,2.007599713E0
4.951531250E-1,5.704949972E-1,1.115071042E0,5.269101441E-1,1.358853292E0
5.051921251E-1,-1.419747815E0,8.868729258E-1,1.269868913E0,2.101141237E0
5.152321251E-1,-1.079223809E0,-7.463339281E-1,1.562364182E0,2.040274540E0
5.252711250E-1,-1.741373911E0,-3.078083078E0,1.061268471E0,3.692325731E0
5.353111251E-1,-8.880903161E-1,-2.104305325E0,1.339299775E0,2.647740394E0
5.453501251E-1,-2.945610899E-1,-1.280130338E0,1.177236300E0,1.763911909E0
5.553901250E-1,-4.570671996E-1,-1.369995026E0,1.028174985E0,1.772834058E0
5.654291251E-1,-2.507515867E0,-4.129271534E0,3.991806418E-2,4.831160593E0
5.754691251E-1,1.222337043E0,2.000923628E0,-1.249875090E0,2.657064349E0
5.855081250E-1,9.006355172E0,1.294619855E1,1.620475127E0,1.585384591E1
5.955481251E-1,-4.944434792E0,-1.762519782E0,-4.868112548E0,7.159080330E0
6.055871251E-1,3.368630639E-1,-4.173039113E0,-1.825917048E0,4.567461574E0
6.156271250E-1,1.680661979E0,-6.075569304E0,1.542958589E0,6.489829602E0
6.256661251E-1,-2.581908530E0,-5.001588986E0,-2.758950233E-1,5.635446931E0
6.357061251E-1,-1.944459990E0,-3.862232704E0,-1.213002841E0,4.491006792E0
6.457451250E-1,-1.115407549E0,-1.923160923E0,-1.342891135E0,2.597313715E0
6.557851251E-1,-7.290206149E-1,8.714573264E-2,-1.336824649E0,1.525177228E0
6.658241251E-1,-1.339991793E0,1.698412664E0,-3.117513192E-1,2.185720126E0
6.758631250E-1,-1.313066242E0,1.460601141E0,-6.044468549E-1,2.054958552E0
6.859031251E-1,-1.238858351E-1,1.812207082E0,-1.285078690E0,2.225054932E0
6.959421251E-1,2.487497047E0,3.226865480E0,-1.479635582E0,4.334699971E0
7.059821250E-1,1.190583154E0,3.158285242E0,-8.947628662E-2,3.376427094E0
7.160211251E-1,-4.532770345E-1,1.921267594E0,9.270634702E-1,2.180865864E0
7.260611251E-1,-1.449340573E-1,1.274831007E0,1.086873721E0,1.681515525E0
7.361001250E-1,5.828872937E-1,4.209428090E-1,8.267530239E-1,1.095660079E0
7.461401251E-1,6.539742333E-1,-7.125457925E-1,2.723619895E-1,1.004781000E0
7.561791250E-1,4.297542706E-1,-7.811587751E-1,-2.541480589E-1,9.270862963E-1
7.662191250E-1,1.952777070E-1,-3.311558890E-1,-7.006858850E-1,7.992235701E-1
7.762581251E-1,3.286576661E-1,-4.625849247E-2,-1.141401127E0,1.188676677E0
7.862981251E-1,4.210579991E-3,5.015449226E-2,-1.043958374E0,1.045170938E0
7.963371250E-1,-1.261314583E-1,2.755091071E-2,-6.276798892E-1,6.408199753E-1
8.063771251E-1,3.889342734E-1,-2.650227106E-1,-3.750415814E-1,6.017998786E-1
8.164161250E-1,5.665101197E-1,-2.421074724E-1,-7.722300768E-2,6.208970421E-1
8.264551250E-1,3.992464229E-1,-3.676091856E-1,2.948791601E-1,6.176470988E-1
8.364951251E-1,2.343947026E-1,-1.834259856E-1,2.417905168E-1,3.834691941E-1
8.465341250E-1,3.131008565E-2,-1.501950896E-1,4.269127431E-1,4.536445487E-1
8.565741250E-1,-1.853736931E-1,1.702387601E-1,5.526536074E-1,6.072648938E-1
8.666131251E-1,-4.529229856E-1,8.307776624E-1,6.777279621E-1,1.163892583E0
8.766531250E-1,-5.621156448E-1,1.337562275E0,8.836141994E-1,1.698770406E0
8.866913751E-1,5.630283952E-2,1.261459009E0,4.651897862E-1,1.345678408E0
8.967313750E-1,1.308202236E0,1.460388887E0,-1.282032584E0,2.342591799E0
9.067703751E-1,1.388950530E0,1.708480985E0,-1.715216977E0,2.791067919E0
9.168103751E-1,-1.490320199E0,-3.418445992E-1,1.886586589E-1,1.540618095E0
9.268493750E-1,-1.342594389E0,-1.741794911E0,4.075235222E-1,2.236623488E0
9.368893751E-1,-3.167062497E-1,-1.572430310E0,3.414119053E-1,1.639939638E0
9.469283751E-1,-1.876786655E-1,-1.489367688E0,1.551376679E-1,1.509141175E0
9.569683750E-1,-1.786891562E-1,-4.839974284E-1,-1.719147183E-2,5.162159160E-1
9.670073751E-1,-6.542315108E-1,4.191178930E-1,-5.715536356E-2,7.790670147E-1
9.770473751E-1,-4.974179578E-1,6.631508535E-1,-3.314108276E-1,8.927635834E-1
9.870863750E-1,2.956679678E-1,8.076682967E-1,-8.226857007E-2,8.640114249E-1
9.971263751E-1,9.666441500E-1,7.505287206E-1,1.825092153E-1,1.237337418E0
1.007165375E0,1.307539454E0,9.984886712E-1,2.956621937E-1,1.671542755E0
1.017204375E0,2.360913307E0,9.839150709E-1,-1.124162658E-1,2.560202712E0
1.027244375E0,3.361267240E0,1.379755783E0,-5.579893378E-1,3.676029867E0
1.037283375E0,3.352678557E0,2.407907379E0,-7.201114317E-1,4.190111207E0
1.047323375E0,1.174295150E0,2.743851553E0,-7.910616195E-1,3.087631606E0
1.057362375E0,-4.529989994E-1,3.060291170E0,-3.352986779E-1,3.111754383E0
1.067402375E0,6.051277632E-1,3.689471455E0,7.397897243E-1,3.811255444E0
1.077441375E0,1.698665556E0,3.856673756E0,-4.183098078E-3,4.214192049E0
1.087481375E0,2.986644027E0,4.078573835E0,-3.142936885E-1,5.064937077E0
1.097520375E0,2.389925437E0,3.881117456E0,-5.408440590E-1,4.589915968E0
1.107560375E0,1.180400813E-1,3.052015606E0,-1.122035075E0,3.253873911E0
1.117599375E0,-2.093786184E0,2.924234648E0,-9.625631589E-2,3.597826307E0
1.127639375E0,-1.477408962E0,2.233052242E0,1.454408355E0,3.047058126E0
1.137678375E0,1.903378915E0,1.462491546E0,4.628885121E0,5.214241103E0
1.147718375E0,-1.027160785E0,-5.455732870E-1,2.185695424E-1,1.183419679E0
1.157757375E0,-2.563987399E0,-3.461680305E-1,-4.921221711E-1,2.633637773E0
1.167797375E0,-4.693722849E0,1.723945116E0,1.595400731E-1,5.002846588E0
1.177836375E0,-2.230821237E0,1.525802273E0,2.421974611E0,3.629131712E0
1.187876375E0,-2.474923487E0,-7.564373320E-1,-3.722898817E0,4.534029037E0
1.197915375E0,-4.928387693E0,-8.570938166E0,-1.942484216E0,1.007587372E1
1.207954375E0,-4.632644296E0,-9.662196422E0,2.100575970E0,1.091933387E1
1.217994375E0,-3.921101301E0,-7.394077842E0,2.423268015E0,8.713188304E0
1.228033375E0,-2.715887537E0,-7.206589211E0,6.168613708E-1,7.726026865E0
1.238073375E0,1.816570274E0,-2.275029988E0,2.351709570E-1,2.920786604E0
1.248112375E0,1.843009483E0,3.371378245E0,-6.478913748E-1,3.896490531E0
1.258152375E0,-2.432355465E-1,1.849442736E0,-2.533859913E0,3.146434176E0
1.268191375E0,-6.878130935E-1,1.128665233E0,1.215046077E0,1.795357633E0
1.278231375E0,9.957205993E-1,3.443957394E0,5.636993632E-2,3.585453893E0
1.288270375E0,1.254136833E0,2.871514397E0,7.908628142E-1,3.231705141E0
1.298310375E0,-3.932375318E-1,-1.130869049E-1,-3.402921050E0,3.427432870E0
1.308349375E0,-1.409320767E0,-1.435720069E0,-6.244735685E0,6.560807947E0
1.318389375E0,-6.811508491E-1,3.570660710E-2,-3.755836768E0,3.817270133E0
1.328428375E0,2.259077030E0,-2.197230445E0,-4.975456025E0,5.889517239E0
1.338468375E0,4.705927596E-1,-4.373470556E0,4.353019334E0,6.188495744E0
1.348507375E0,-2.955077541E0,-3.096323467E0,8.159271380E0,9.213762084E0
1.358547375E0,-9.528497643E-1,-1.561428189E0,3.361853716E0,3.827275933E0
1.368586375E0,5.331859607E-1,-1.414035670E0,-1.447926716E0,2.092910872E0
1.378626375E0,2.162750438E0,2.298567955E0,5.247291327E-3,3.156094364E0
1.388665375E0,5.838216788E0,1.254392181E1,1.313220901E0,1.389817610E1
1.398704375E0,1.931936497E-2,5.438172512E0,-5.515292609E-1,5.466102637E0
1.408744375E0,-6.815594964E-1,4.475916113E0,-2.600387194E0,5.221145655E0
1.418783375E0,-3.559815587E-1,6.607060742E0,-1.295572104E0,6.742290530E0
1.428823375E0,-9.874896200E-1,6.092182998E0,-9.367458746E-2,6.172406691E0
1.438862375E0,-1.115926928E0,4.816912281E0,4.813445467E-1,4.967859640E0
1.448902375E0,3.118594927E-1,2.817305446E0,1.182265563E0,3.071191654E0
1.458941375E0,7.070086254E-1,3.446884511E0,-1.049737689E0,3.671896409E0
1.468981375E0,5.094011685E-1,6.992077088E-1,1.642418557E-1,8.805432174E-1
1.479020375E0,-3.356890891E-1,-3.443732277E0,5.075705368E0,6.142862862E0
1.489060375E0,-9.492224441E-1,-2.015694280E0,1.082040632E0,2.476864673E0
1.499099375E0,1.084134228E0,2.973092812E0,2.668171626E0,4.139295558E0
1.509139375E0,-1.271295634E0,1.286864576E0,-1.436220590E0,2.309749469E0
1.519178375E0,-2.628166146E0,-2.863592005E-1,-2.307859181E0,3.509340804E0
1.529218375E0,-2.507303906E0,-7.306364930E-1,2.191910648E0,3.409527071E0
1.539257375E0,-2.655324708E0,-2.909045336E0,1.036921835E0,4.072898349E0
1.549297375E0,-2.115019616E0,-5.359951969E0,-9.165609938E-1,5.834593143E0
1.559336375E0,-1.257788566E0,-4.604009897E0,-2.404154636E0,5.344052649E0
1.569376375E0,-8.289056763E-1,-5.283473897E-1,-1.500321277E0,1.793655351E0
1.579415375E0,-6.086092684E-1,1.758482280E0,4.062902713E-1,1.904661900E0
1.589455375E0,-2.424775281E-1,1.757546725E0,-4.403813658E-1,1.828032163E0
1.599494375E0,-9.806567100E-1,-4.241149235E0,-2.284184974E0,4.915947051E0
1.609534375E0,-2.128768613E0,-7.550755740E0,-2.487510204E0,8.230022786E0
1.619573375E0,-9.323958385E-1,-5.239356655E0,-7.403708645E-1,5.372929292E0
1.629612375E0,1.045049757E0,-3.757673963E0,5.577612599E-1,3.939967034E0
1.639652375E0,2.306355569E0,-3.235366747E0,3.389344766E-1,3.987699911E0
1.649691375E0,2.862829528E0,-3.107710919E0,-1.021692762E0,4.347127346E0
1.659731375E0,3.150103818E0,-1.914852029E0,-4.281068176E-1,3.711211096E0
1.669770375E0,2.453018063E0,1.036927682E-1,1.859209340E0,3.079725504E0
1.679810375E0,1.144664969E0,-1.794984108E-1,1.841018068E0,2.175275867E0
1.689849375E0,-2.771691316E-1,-1.872195421E0,2.602689242E-1,1.910413132E0
1.699889375E0,-8.761082017E-1,-3.059423443E0,-2.193927938E-1,3.189948367E0
1.709928375E0,-8.436058688E-1,-2.174975358E0,8.720373702E-1,2.490509555E0
1.719968375E0,-5.795884408E-1,-1.702027413E0,9.709979868E-1,2.043442479E0
1.730007375E0,1.156031080E-1,-8.269155765E-1,3.960319161E-2,8.358958440E-1
1.740047375E0,7.544769068E-1,-7.069739807E-1,-6.635016865E-1,1.228528429E0
1.750086375E0,1.020767294E0,-8.937995374E-1,-7.103226811E-1,1.531470467E0
1.760126375E0,8.800546338E-1,-1.048898102E0,-3.669250613E-1,1.417503929E0
1.770165375E0,7.142324218E-1,-9.255364698E-1,-6.989757023E-3,1.169099896E0
1.780205375E0,4.581654529E-1,-6.522984213E-1,1.850520962E-1,8.183233413E-1
1.790244375E0,1.019008890E-1,-4.436329293E-1,3.469433713E-1,5.723317832E-1
1.800284375E0,-8.477000892E-2,-3.332433450E-1,3.709479457E-1,5.058057531E-1
1.810323375E0,-1.069555146E-1,-3.781926459E-1,4.809580457E-1,6.211197962E-1
1.820363375E0,-1.061268179E-1,-2.138215667E-1,6.606441522E-1,7.024480477E-1
1.830402375E0,-7.778638691E-2,7.499077463E-1,5.220429218E-1,9.170284413E-1
1.840442375E0,-2.795284832E-1,1.521953051E0,1.990286958E-1,1.560156942E0
1.850481375E0,1.477986082E-2,1.963620731E0,4.432575381E-1,2.013082727E0
1.860520375E0,-4.528702144E-1,1.305766870E0,-4.616458619E-1,1.457132613E0
1.870560375E0,-5.153604314E-1,8.319213778E-1,-7.764044040E-1,1.249197083E0
1.880599375E0,-1.769884935E-1,3.781025988E-1,-2.819316888E-1,5.037578577E-1
1.890639208E0,-2.154698968E-4,-4.008745801E-1,7.650555432E-2,4.081097589E-1
1.900678208E0,1.858762613E-1,-8.717298067E-1,1.035888632E0,1.366575317E0
1.910718208E0,2.592290700E-1,-4.721919000E-2,2.059302229E0,2.076091288E0
1.920757208E0,1.792181099E-1,9.256177461E-1,2.409711245E0,2.587584903E0
1.930797208E0,-5.912624799E-1,9.812072253E-1,1.662935268E0,2.019334703E0
1.940836208E0,-1.235396946E0,1.888453605E0,3.529589137E-1,2.284084636E0
1.950876208E0,-9.467682946E-1,3.110570793E0,-1.094949018E0,3.430879510E0
1.960915208E0,-5.513341831E-1,3.864276305E0,-2.803425910E0,4.805808733E0
1.970955208E0,1.767988683E0,5.633109911E0,-2.760540091E0,6.517537330E0
1.980994208E0,4.964366196E0,6.163657023E0,4.562944170E-1,7.927408418E0
1.991034208E0,6.411595339E0,5.083696758E0,5.265959147E0,9.730511459E0
2.001073208E0,3.752525197E0,3.781695494E0,5.101467031E0,7.376152929E0
2.011113208E0,-1.685380974E0,2.100643213E0,3.186703295E-1,2.711966393E0
2.021152208E0,-1.940585625E0,1.353867821E0,-6.468306899E-1,2.453002361E0
2.031192208E0,-1.489190517E0,-1.760304272E-1,-3.169493769E0,3.506332252E0
2.041231208E0,8.029111482E-1,-3.314883032E0,-4.217893689E0,5.424365677E0
2.051271208E0,2.563422266E0,-6.006149991E0,-1.856728220E0,6.789139202E0
2.061310208E0,8.189884331E-1,-8.403541737E0,-5.571747476E-1,8.461719653E0
2.071350208E0,4.084051361E-1,-9.524207395E0,7.961779332E-1,9.566149725E0
2.081389208E0,3.209083805E0,-1.002106344E1,2.659811862E0,1.085331886E1
2.091429208E0,5.354902314E0,-9.489614097E0,2.048064904E0,1.108703407E1
2.101468208E0,5.289088393E0,-9.071928188E0,4.570417643E-2,1.050125830E1
2.111507208E0,3.697187733E0,-8.392149607E0,-1.674293192E-1,9.171990228E0
2.121547208E0,1.599680235E0,-6.312972692E0,-6.622328407E-1,6.546079238E0
2.131586208E0,6.842459265E-2,-4.433521460E0,-1.229122006E0,4.601253674E0
2.141626208E0,-2.871971650E0,-6.380993351E0,-1.121956869E0,7.086895267E0
2.151665208E0,-3.591263375E0,-8.621211357E0,-8.146096726E-1,9.374755826E0
2.161705208E0,-2.834474625E0,-8.717710880E0,-9.112114493E-1,9.212113530E0
2.171744208E0,-2.211495020E0,-7.458872008E0,4.452309734E-1,7.792542106E0
2.181784208E0,-2.480851102E0,-5.272658887E0,4.279596139E-1,5.842833504E0
2.191823208E0,-2.361526972E0,-3.108750554E0,-1.188031429E-1,3.905797465E0
2.201863208E0,-1.501102172E0,-1.150854832E0,6.661702826E-1,2.005382114E0
2.211902208E0,-5.858967094E-1,3.868921334E-1,4.892354373E-1,8.557521779E-1
2.221942208E0,4.886196524E-1,1.497920995E0,3.907997545E-1,1.623342514E0
2.231981208E0,1.420061371E0,2.775093811E0,5.323978291E-1,3.162462238E0
2.242021208E0,1.435643470E0,4.089254360E0,5.109904417E-1,4.363964324E0
2.252060208E0,9.241009784E-1,5.414660273E0,3.850403202E-1,5.506429382E0
2.262100208E0,6.883339342E-1,6.596186090E0,2.883806560E-1,6.638270704E0
2.272139208E0,8.795856871E-1,7.857374373E0,5.286466940E-1,7.924106912E0
2.282179208E0,8.291433656E-1,9.056358222E0,8.305677474E-1,9.132083319E0
2.292218208E0,5.854927399E-1,9.748051674E0,9.280477758E-1,9.809617009E0
2.302258208E0,3.407350901E-1,1.027324566E1,5.193595614E-1,1.029200715E1
2.312297208E0,-2.565394239E-1,1.094227823E1,-8.237155415E-2,1.094559502E1
2.322337208E0,-1.061624275E0,1.149657205E1,-5.415100569E-1,1.155817668E1
2.332376208E0,-1.722627446E0,1.157939085E1,-1.487224683E0,1.180091416E1
2.342416208E0,-2.063986726E0,1.114294297E1,-2.811043078E0,1.167592320E1
2.352455208E0,-1.875379377E0,1.080752563E1,-4.044932465E0,1.169107081E1
2.362495208E0,-1.195699833E0,1.056798860E1,-4.278821091E0,1.146387330E1
2.372534208E0,-6.508573750E-1,1.027231011E1,-3.863019154E0,1.099394775E1
2.382573208E0,5.109845214E-2,9.939175519E0,-3.296415187E0,1.047168440E1
2.392613208E0,4.738563830E-1,9.460715404E0,-2.963854796E0,9.925427501E0
2.402652208E0,1.067617744E0,8.844587274E0,-2.693970711E0,9.307202043E0
2.412692208E0,1.809040084E0,8.452941354E0,-2.167335970E0,8.911912745E0
2.422731208E0,2.923636478E0,7.183328403E0,-6.902376415E-1,7.786159849E0
2.432771208E0,3.427190503E0,4.347562128E0,1.978134544E0,5.878770915E0
2.442810208E0,3.604661977E0,1.597192683E0,5.024723495E0,6.386897418E0
2.452850208E0,3.205379594E0,-2.336258522E0,7.657191437E0,8.623522652E0
2.462889208E0,3.162750176E0,-6.480818186E0,6.716268604E0,9.854555139E0
2.472929208E0,2.881426305E0,-1.195120359E1,4.183685723E0,1.298603524E1
2.482968208E0,2.045017189E0,-1.884193206E1,-2.144822875E0,1.907356192E1
2.493008208E0,-1.622577054E0,-2.629822428E1,-3.996163763E0,2.664955312E1
2.503047208E0,-5.560722551E0,-2.892286865E1,4.330526265E0,2.976923620E1
2.513087208E0,-3.877123223E0,-1.878479190E1,7.571344956E0,2.062100278E1
2.523126208E0,-2.623817864E0,-1.427192139E1,1.589794786E0,1.459793162E1
2.533166208E0,-9.038851804E-1,-1.499238723E1,4.328325373E-1,1.502584531E1
2.543205208E0,7.326711047E-1,-1.608685386E1,1.293208221E0,1.615537253E1
2.553245208E0,9.272534316E-1,-1.567958476E1,8.708041924E-1,1.573109904E1
2.563284208E0,2.197641651E-1,-1.329578253E1,9.194900103E-1,1.332935074E1
2.573324208E0,-7.529601391E-1,-1.006300200E1,1.051791451E0,1.014579832E1
2.583363208E0,-1.728886744E0,-7.002988577E0,9.806382912E-1,7.279598193E0
2.593403208E0,-2.107937469E0,-3.777829315E0,7.769965808E-1,4.395351908E0
2.603442208E0,-2.031569909E0,-8.576561433E-1,5.645627046E-1,2.276308723E0
2.613482208E0,-1.868202358E0,1.449798995E0,7.015892798E-1,2.466642392E0
2.623521208E0,-1.032918393E0,3.200931909E0,6.700716180E-1,3.429559952E0
2.633561208E0,2.344550751E-1,4.740860471E0,-8.336492300E-2,4.747386322E0
2.643600208E0,1.036934699E0,6.152204667E0,-1.354850591E0,6.384393155E0
2.653640208E0,2.158074566E0,7.567760612E0,-1.268051599E0,7.970962387E0
2.663679208E0,2.624946084E0,8.314952912E0,-7.424811977E-1,8.751003497E0
2.673719208E0,2.340264304E0,8.933560261E0,-2.468460560E-2,9.235038997E0
2.683758208E0,2.051313179E0,1.016396822E1,3.250548311E-1,1.037399616E1
2.693797208E0,1.714961892E0,1.120633498E1,4.436048627E-2,1.133688695E1
2.703837208E0,1.119734635E0,1.172231551E1,-3.692295221E-1,1.178146073E1
2.713876208E0,6.026932749E-1,1.202119944E1,-8.933002583E-1,1.206940183E1
2.723916208E0,4.109566417E-1,1.210755580E1,-8.522697613E-1,1.214447021E1
2.733955208E0,3.068263556E-1,1.177754597E1,-6.489773490E-1,1.179940266E1
2.743995208E0,6.956140101E-2,1.107402535E1,-9.832678572E-1,1.111780967E1
2.754034208E0,4.134360074E-1,1.030593277E1,-1.511063928E0,1.042432222E1
2.764074208E0,3.663575891E-1,9.553281505E0,-2.082604553E0,9.784510571E0
2.774113208E0,3.431409270E-2,8.881094949E0,-2.510228975E0,9.229099331E0
2.784153208E0,-1.075175782E-1,8.659471443E0,-2.849002032E0,9.116732873E0
2.794192208E0,-2.938768195E-1,8.681442356E0,-2.961484335E0,9.177374048E0
2.804232208E0,-4.720650885E-1,8.595437415E0,-2.640657552E0,9.004302422E0
2.814271208E0,-3.480826282E-1,8.689700963E0,-2.335558026E0,9.004826241E0
2.824311208E0,2.213586277E-1,9.229701853E0,-1.885769002E0,9.422978333E0
2.834350208E0,8.655976854E-1,8.740070048E0,-6.360811687E-1,8.805832331E0
2.844390208E0,1.808192676E0,7.957616699E0,6.766088051E-1,8.188468951E0
2.854429208E0,3.053028928E0,7.383341185E0,1.473222941E0,8.124352191E0
2.864469208E0,3.658632070E0,6.417491671E0,2.188911611E0,7.704616929E0
2.874508208E0,3.355336994E0,5.047534068E0,3.288678151E0,6.895744375E0
2.884548208E0,3.045581622E0,2.853119057E0,4.249079813E0,5.955714485E0
2.894588250E0,2.653639248E0,-1.768727771E0,4.002637800E0,5.117744478E0
2.904628250E0,2.531435950E0,-8.623571877E0,2.331531487E0,9.284944748E0
2.914667250E0,1.413551374E0,-1.956689676E1,-3.768884245E0,1.997663797E1
2.924707250E0,-3.744818274E0,-3.638741246E1,-1.070403810E1,3.811356557E1
2.934746250E0,-8.711388870E0,-5.075489840E1,-1.335591909E0,5.151438452E1
2.944786250E0,-5.908340106E0,-3.589595164E1,2.156355835E1,4.228965448E1
2.954825250E0,-5.712388215E0,-2.257144525E1,1.059822455E1,2.558170994E1
2.964865250E0,-2.990264331E0,-1.710422143E1,-1.523537647E0,1.743035394E1
2.974904250E0,-2.492565414E0,-1.339454083E1,5.337771142E-1,1.363493764E1
2.984944250E0,-4.009998860E0,-1.150718709E1,4.265985283E0,1.291100600E1
2.994983250E0,-4.190357396E0,-8.521431545E0,3.141611906E0,1.000218056E1
3.005022250E0,-3.550960564E0,-6.371666458E0,2.041536049E0,7.574650079E0
3.015062250E0,-2.122583721E0,-4.285015631E0,6.991775226E-1,4.832760062E0
3.025101250E0,1.295889608E0,-3.047662938E0,-1.649774238E1,1.682685600E1
3.035141250E0,-5.444261218E0,-7.819118965E-1,-1.099629714E1,1.229511762E1
3.045180250E0,-2.490067776E0,-1.584027677E0,1.760263809E1,1.784831782E1
3.055220250E0,3.234192334E0,5.394176892E0,6.684867886E0,9.178485880E0
3.065259250E0,4.208282036E0,8.896525167E0,6.166955438E0,1.161417828E1
3.075299250E0,7.275734290E0,1.046407188E1,8.720099468E0,1.544257895E1
3.085338250E0,7.862527524E0,1.100254080E1,4.441336264E0,1.423378765E1
3.095378250E0,5.686983232E0,1.007499347E1,1.162075639E-2,1.156924400E1
3.105417250E0,3.869454015E0,1.030442652E1,-2.795180751E0,1.135636015E1
3.115457250E0,2.993874401E0,1.057352708E1,-4.598301845E0,1.191247828E1
3.125496250E0,2.670235108E0,1.108440182E1,-4.823830706E0,1.237996211E1
3.135536250E0,1.939262839E0,1.193589091E1,-3.768805892E0,1.266610161E1
3.145575250E0,8.373646970E-1,1.195502533E1,-3.122532442E0,1.238442648E1
3.155615250E0,4.814524278E-2,1.182609657E1,-2.962317563E0,1.219156279E1
3.165654250E0,-5.555484907E-1,1.208066797E1,-3.450264786E0,1.257598902E1
3.175694250E0,-7.151049726E-1,1.189027561E1,-4.094712735E0,1.259590019E1
3.185733250E0,2.745351072E-1,1.151195842E1,-4.193800821E0,1.225514265E1
3.195773250E0,1.185053881E0,1.073086864E1,-4.066026880E0,1.153639757E1
3.205812250E0,1.370542033E0,9.616475873E0,-3.638682539E0,1.037280118E1
3.215852250E0,9.012157072E-1,8.778586242E0,-3.186177045E0,9.382296645E0
3.225891250E0,5.517665116E-1,8.602354086E0,-2.855618742E0,9.080721365E0
3.235931250E0,4.395930880E-1,8.192283590E0,-2.049665579E0,8.456233292E0
3.245970250E0,6.377085949E-1,7.850281116E0,-1.190376893E0,7.965587423E0
3.256010250E0,1.301933582E0,7.970168917E0,-1.166793319E0,8.159658710E0
3.266049250E0,1.838731806E0,7.505930985E0,-8.276068635E-1,7.772056853E0
3.276089250E0,1.918338139E0,6.900671659E0,-4.897667299E-1,7.179078075E0
3.286128250E0,1.833165842E0,6.901578562E0,-3.994629161E-1,7.152052452E0
3.296168250E0,2.079920681E0,7.065654942E0,2.338808785E-1,7.369141745E0
3.306207250E0,3.079593998E0,5.430969912E0,2.108894073E0,6.589898906E0
3.316247250E0,3.129870990E0,1.460155583E0,6.120977027E0,7.028122545E0
3.326286250E0,3.105391914E0,-2.965062831E0,8.095054919E0,9.163240184E0
3.336326250E0,2.353952197E0,-9.152920895E0,1.635087318E0,9.591171065E0
3.346365250E0,-1.381118623E0,-2.085075703E1,-5.118222812E0,2.151412936E1
3.356404250E0,-7.444670876E0,-3.745233544E1,-1.127393464E1,3.981459728E1
3.366444250E0,-8.812100728E0,-4.804776853E1,-7.074464942E0,4.935878072E1
3.376484250E0,-8.830220226E-1,-3.778010462E1,1.902648656E1,4.230984783E1
3.386523250E0,-9.630264777E-1,-2.528742079E1,2.313976421E1,3.429037412E1
3.396562250E0,-3.860911525E0,-1.688928714E1,4.150323849E0,1.781515776E1
3.406602250E0,-4.619184591E0,-1.170491185E1,-1.859458432E0,1.272003984E1
3.416641250E0,-3.775292501E0,-9.210436447E0,7.885788918E-2,9.954455866E0
3.426681250E0,-3.255764759E0,-7.669188754E0,7.766558343E-1,8.367774769E0
3.436720250E0,-3.092271931E0,-6.447376791E0,1.441177275E0,7.294368041E0
3.446760250E0,-2.271449446E0,-4.602894832E0,1.600510247E0,5.376593389E0
3.456799250E0,-1.660830416E0,-2.005865695E0,5.182855010E-1,2.655273003E0
3.466839250E0,-9.607451865E-1,1.158476093E0,-5.732486703E-1,1.610500608E0
3.476878250E0,5.887178448E-1,4.018059247E0,-8.657926170E-1,4.152226591E0
3.486918250E0,2.581569684E0,5.316797764E0,-1.528872061E0,6.104939826E0
3.496957250E0,3.937751248E0,5.976432686E0,-1.833538894E0,7.388199877E0
3.506997250E0,4.360149429E0,6.897071528E0,-1.803506425E0,8.356622173E0
3.517036250E0,4.385522544E0,7.821791142E0,-1.656125016E0,9.118989786E0
3.527076250E0,4.298403416E0,8.676406149E0,-1.329523523E0,9.773634349E0
3.537115250E0,4.098439458E0,9.950790428E0,-8.636432536E-1,1.079635660E1
3.547155250E0,3.535283886E0,1.072858588E1,-6.076251090E-1,1.131238240E1
3.557194250E0,2.796879952E0,1.079635278E1,-3.662573093E-1,1.115875957E1
3.567234250E0,2.249237043E0,1.101886272E1,-3.778137463E-1,1.125242845E1
3.577273250E0,1.970066409E0,1.087670755E1,-5.108906005E-1,1.106548408E1
3.587313250E0,1.462123171E0,1.093450377E1,-1.211091751E0,1.109810435E1
3.597352250E0,8.643431653E-1,1.078814913E1,-6.674685106E-1,1.084328202E1
3.607392250E0,1.115762767E0,1.015532486E1,7.255576015E-2,1.021669291E1
3.617431250E0,1.597080417E0,1.002941560E1,-4.311923202E-1,1.016492843E1
3.627471250E0,1.478892109E0,1.001464553E1,-7.047678262E-1,1.014775565E1
3.637510250E0,7.717203458E-1,9.366634873E0,-6.183863246E-1,9.418694325E0
3.647550250E0,9.256595537E-2,8.957824452E0,-1.089061895E0,9.024258594E0
3.657589250E0,-2.930902228E-2,8.792376900E0,-1.805939451E0,8.975977266E0
3.667629250E0,9.724767476E-2,8.608253342E0,-2.128428597E0,8.868015054E0
3.677668250E0,3.788172747E-1,8.632318727E0,-2.261339318E0,8.931633929E0
3.687708250E0,1.067471198E0,8.812835723E0,-2.295947233E0,9.169347956E0
3.697747250E0,1.695350331E0,8.670537883E0,-2.098649605E0,9.080571022E0
3.707787250E0,1.385462812E0,7.507870506E0,-1.208358178E0,7.729667278E0
3.717826250E0,1.478688333E0,7.091961565E0,4.009499361E-1,7.255563305E0
3.727866250E0,2.562432917E0,6.704259008E0,2.508871252E0,7.603130030E0
3.737905250E0,3.013254998E0,3.762047680E0,6.589894486E0,8.164521894E0
3.747945250E0,1.942992339E0,-9.388195896E-1,9.981832126E0,1.021242254E1
3.757984250E0,3.401648404E-1,-7.750169182E0,4.950986012E0,9.202885252E0
3.768024250E0,-6.768347269E-1,-1.613239782E1,-4.008009052E0,1.663660125E1
3.778063250E0,-4.494457341E0,-2.757613092E1,-7.686084868E0,2.897790614E1
3.788103250E0,-8.728322992E0,-3.683737207E1,-9.547348335E0,3.904263648E1
3.798142250E0,-4.556689257E0,-3.615169014E1,3.631021518E0,3.661819813E1
3.808181250E0,7.452169637E-1,-2.859630867E1,1.576834199E1,3.266412140E1
3.818221250E0,-2.604868500E0,-2.148684756E1,6.574311072E0,2.262059955E1
3.828260250E0,-3.467564943E0,-1.418380619E1,-1.457131403E0,1.467404499E1
3.838300250E0,-3.253379387E0,-1.072447412E1,-9.200219607E-1,1.124478826E1
3.848339250E0,-4.007577235E0,-9.346171957E0,3.734925809E-1,1.017600620E1
3.858379250E0,-4.684752051E0,-8.624165955E0,3.855904701E-1,9.822006933E0
3.868418250E0,-4.093601180E0,-7.435047528E0,1.118968211E0,8.560934074E0
3.878458250E0,-2.316900438E0,-4.754804910E0,9.904540122E-1,5.381189137E0
3.888495958E0,-1.428600791E0,-1.458776810E0,4.624720734E-1,2.093516281E0
3.898535958E0,-2.311880895E-1,2.165481234E0,2.083474034E-1,2.187730684E0
3.908574958E0,1.663118578E0,4.706896918E0,4.742529704E-1,5.014554605E0
3.918614958E0,3.145944985E0,6.119262038E0,-1.858326995E-1,6.883085902E0
3.928653958E0,3.356715767E0,6.427089876E0,-6.292136870E-1,7.278113415E0
3.938693958E0,3.486758136E0,6.615593584E0,-4.818088156E-1,7.493710729E0
3.948732958E0,3.953510664E0,7.786035419E0,-2.290728593E-1,8.735277241E0
3.958772958E0,4.480185750E0,9.433541638E0,2.874297891E-1,1.044731487E1
3.968811958E0,4.291046742E0,1.088901711E1,8.100832698E-1,1.173200796E1
3.978851958E0,3.507214912E0,1.157181870E1,1.162371581E0,1.214737223E1
3.988890958E0,2.562089100E0,1.176575096E1,1.232363849E0,1.210437594E1
3.998930958E0,1.407375983E0,1.133703311E1,7.949875132E-1,1.145168250E1
4.008969958E0,7.755232286E-1,1.059824560E1,7.907650195E-2,1.062687627E1
4.019009958E0,1.403449870E0,1.040922734E1,-8.441964376E-1,1.053728394E1
4.029048958E0,2.223568497E0,1.009116220E1,-1.551476812E0,1.044906176E1
4.039088958E0,2.742509032E0,9.629503469E0,-1.870672222E0,1.018568149E1
4.049127958E0,2.965301982E0,9.147635597E0,-1.935214958E0,9.809042246E0
4.059167958E0,2.462212810E0,9.124862446E0,-2.004588078E0,9.661468830E0
4.069206958E0,1.512774092E0,9.162568216E0,-1.858468937E0,9.470746991E0
4.079246958E0,6.933486526E-1,9.022266031E0,-1.446983122E0,9.163829813E0
4.089285958E0,2.965634689E-1,9.099037049E0,-1.115959234E0,9.172011236E0
4.099325958E0,3.934725899E-1,9.162950624E0,-8.932908297E-1,9.214795349E0
4.109364958E0,1.001131320E0,9.124577102E0,-6.362730304E-1,9.201359388E0
4.119404958E0,1.628015988E0,8.940596216E0,-1.443146910E-1,9.088758082E0
4.129443958E0,1.723432461E0,8.101297991E0,5.595188233E-1,8.301464322E0
4.139483958E0,1.857720347E0,7.228471831E0,1.005842568E0,7.530846511E0
4.149522958E0,2.716218781E0,6.442183294E0,1.071635731E0,7.073045539E0
4.159562958E0,3.562840644E0,3.625117584E0,2.719032462E0,5.764412241E0
4.169601958E0,3.168100963E0,-7.862785971E-1,4.101416568E0,5.241823691E0
4.179641958E0,1.522143232E0,-7.569507760E0,2.945907937E0,8.263942239E0
4.189680958E0,-2.260760151E-1,-1.710057745E1,1.437295893E0,1.716236228E1
4.199720958E0,-5.742276258E0,-3.240075042E1,-2.921565979E0,3.303510121E1
4.209759958E0,-1.334057337E1,-4.464514744E1,-9.431288121E0,4.754060668E1
4.219799958E0,-1.124182173E1,-3.229191970E1,4.551313035E0,3.449436308E1
4.229838958E0,-6.158245425E0,-1.940229998E1,1.167028113E1,2.346420024E1
4.239878958E0,-6.211543381E0,-1.752153254E1,1.127350779E0,1.862413202E1
4.249917958E0,-5.210840369E0,-1.306226345E1,-3.423646506E0,1.447400909E1
4.259957958E0,-4.230597642E0,-1.112628660E1,-1.621003715E0,1.201332023E1
4.269996958E0,-3.777938073E0,-9.840073400E0,-2.191665065E-1,1.054267018E1
4.280036958E0,-2.912883448E0,-7.871992412E0,1.625230082E0,8.549533750E0
4.290075958E0,-1.735958513E0,-5.905490173E0,1.618814079E0,6.364662219E0
4.300115958E0,5.513096979E-1,-4.803778265E0,1.225213800E0,4.988123581E0
4.310154958E0,2.250903938E0,-2.781048616E0,5.055461723E-1,3.613360883E0
4.320194958E0,3.339533724E0,-4.896937859E-1,1.232446148E-1,3.377495334E0
4.330233958E0,4.122681722E0,1.451412826E0,1.582957491E-1,4.373575347E0
4.340273958E0,3.861392166E0,4.021371694E0,-1.637403108E-2,5.575127611E0
4.350312958E0,3.668687527E0,6.353076990E0,4.550022554E-1,7.350366144E0
4.360352958E0,3.756766475E0,8.140852650E0,1.243034433E0,9.051624761E0
4.370391958E0,3.849634585E0,1.000426672E1,2.200154053E0,1.094283862E1
4.380431958E0,3.701175241E0,1.179773991E1,3.015683931E0,1.272712516E1
4.390470958E0,3.762656375E0,1.309626150E1,3.002684986E0,1.395298410E1
4.400510958E0,3.950500517E0,1.334366889E1,2.648686949E0,1.416599789E1
4.410549958E0,3.712367105E0,1.243645233E1,2.213061197E0,1.316604177E1
4.420588958E0,3.610394295E0,1.149505996E1,1.893607925E0,1.219660205E1
4.430628958E0,3.688630333E0,1.049008497E1,6.473755773E-1,1.113853544E1
4.440668958E0,3.612172725E0,9.938258675E0,-1.007858761E0,1.062226702E1
4.450707958E0,3.128572031E0,9.335513653E0,-1.717619598E0,9.994498246E0
4.460746958E0,2.732780435E0,8.552963240E0,-2.067266576E0,9.213840686E0
4.470786958E0,1.837979123E0,8.382705184E0,-2.654545859E0,8.983013257E0
4.480825958E0,4.321891974E-1,8.384966887E0,-2.994145712E0,8.913998303E0
4.490865958E0,-6.266955104E-1,8.511845035E0,-3.490104790E0,9.220904761E0
4.500904958E0,-1.303459267E0,8.510344055E0,-3.920712461E0,9.460282670E0
4.510944958E0,-1.786514709E0,8.784590163E0,-4.150006346E0,9.878421524E0
4.520983958E0,-1.423575110E0,9.441106181E0,-3.581327786E0,1.019739970E1
4.531023958E0,-7.941707303E-1,9.523853638E0,-2.783424339E0,9.953991477E0
4.541062958E0,-1.312258449E-1,8.926955246E0,-1.940770251E0,9.136429246E0
4.551102958E0,5.646368180E-1,8.556712475E0,-1.354468183E0,8.681631596E0
4.561141958E0,1.299894804E0,7.710523891E0,-5.837668611E-1,7.841089779E0
4.571181958E0,2.105864192E0,6.527419910E0,1.466184355E0,7.013670312E0
4.581220958E0,1.962753882E0,3.679231811E0,5.864505869E0,7.195941815E0
4.591260958E0,5.058592176E-1,-1.352958578E0,8.775442779E0,8.893524972E0
4.601299958E0,-6.474333917E-1,-6.709367135E0,4.781821970E0,8.264417627E0
4.611339958E0,-1.565813162E0,-1.458148234E1,-1.841223305E0,1.478044320E1
4.621378958E0,-2.356813824E0,-2.826756417E1,-6.802748923E0,2.916996998E1
4.631418958E0,-1.585358211E0,-4.132476627E1,-9.486629094E0,4.242930355E1
4.641457958E0,5.199490923E0,-4.019415333E1,4.258852850E0,4.075220847E1
4.651497958E0,4.850436707E0,-2.824351107E1,2.085457644E1,3.544200914E1
4.661536958E0,-2.014795563E0,-2.095607942E1,1.446356037E1,2.554234219E1
4.671576958E0,-4.866436443E0,-1.378144407E1,-7.351546365E-1,1.463389411E1
4.681615958E0,-3.448556814E0,-8.251775501E0,-1.968998415E0,9.157581437E0
4.691655958E0,-3.260525269E0,-7.066671188E0,-9.021800593E-2,7.783123152E0
4.701694958E0,-2.843844203E0,-6.819960203E0,-7.336672510E-1,7.425467975E0
4.711734958E0,-2.356507576E0,-6.039807733E0,-8.295807374E-1,6.536100490E0
4.721773958E0,-2.419171456E0,-4.128751132E0,-2.897191568E-1,4.794049815E0
4.731813958E0,-1.280920882E0,-1.243993961E0,-3.477510180E-1,1.819123429E0
4.741852958E0,2.188429362E0,9.245775265E-1,-9.808903647E0,1.009250501E1
4.751892958E0,1.931008617E0,3.073719885E0,-8.885460480E0,9.598330905E0
4.761931958E0,4.255609399E-1,6.994362180E0,2.207715088E0,7.346850368E0
4.771971958E0,3.117885659E0,8.771978304E0,4.392823085E0,1.029396469E1
4.782010958E0,3.346666158E0,7.708075077E0,2.213966346E-1,8.406165132E0
4.792050958E0,2.910014804E0,8.385897764E0,2.624863054E0,9.256423365E0
4.802089958E0,2.549125239E0,8.526798120E0,5.409640000E-1,8.916107206E0
4.812129958E0,3.723523884E0,9.588018059E0,-3.407009570E-1,1.029129718E1
4.822168958E0,4.830026416E0,1.073810983E1,-4.327804971E-1,1.178233665E1
4.832208958E0,4.866124787E0,1.114755058E1,-1.458693779E0,1.225050374E1
4.842247958E0,4.469188891E0,1.135211893E1,-1.609858922E0,1.230592943E1
4.852287958E0,3.801150935E0,1.126050125E1,-1.721174120E0,1.200875002E1
4.862326958E0,3.124495352E0,1.099693800E1,-1.641553169E0,1.154945078E1
4.872366958E0,2.566438844E0,1.061500138E1,-1.542708328E0,1.102927068E1
4.882405958E0,2.093066391E0,1.054389573E1,-1.441645637E0,1.084587508E1
4.892446083E0,1.539120330E0,1.082162678E1,-1.342495425E0,1.101266505E1
4.902485083E0,8.067600779E-1,1.087576732E1,-1.268302590E0,1.097915152E1
4.912525083E0,-7.494800225E-2,1.056743428E1,-1.232550375E0,1.063933574E1
4.922564083E0,-9.811319424E-1,1.008468582E1,-1.459906638E0,1.023693486E1
4.932604083E0,-1.434540539E0,9.591597140E0,-1.846293279E0,9.872458717E0
4.942643083E0,-1.372709011E0,8.868233414E0,-2.189362432E0,9.237055904E0
4.952683083E0,-9.702651845E-1,8.298362022E0,-2.512091314E0,8.724381327E0
4.962722083E0,5.137509853E-2,7.750272093E0,-2.031883466E0,8.012359661E0
4.972762083E0,8.975300610E-1,7.489877454E0,-1.221652407E0,7.641744506E0
4.982801083E0,1.616485864E0,5.656896969E0,7.239659894E-1,5.927700787E0
4.992841083E0,2.148829679E0,6.082922763E-1,4.770208231E0,5.267103098E0
5.002880083E0,1.753420345E0,-6.232714394E0,6.133778336E0,8.918769439E0
5.012920083E0,-3.471617648E-1,-1.516210384E1,1.772014345E0,1.526924847E1
5.022959083E0,-3.130893083E0,-2.480113827E1,-2.275286096E0,2.510131227E1
5.032999083E0,-5.022755907E0,-3.380685142E1,-7.312616773E0,3.495147556E1
5.043038083E0,-2.271896758E0,-3.210090988E1,6.344492108E-2,3.218126714E1
5.053078083E0,4.884155846E-1,-2.596459385E1,1.656067830E1,3.080023943E1
5.063117083E0,-9.327927914E-1,-2.338159335E1,1.198201023E1,2.628949561E1
5.073157083E0,-1.238488222E0,-1.703012201E1,-2.524142717E0,1.726065483E1
5.083196083E0,-5.099646208E-1,-1.245177671E1,-6.821503868E0,1.420703073E1
5.093236083E0,-5.702885905E-1,-1.057271666E1,-5.161577577E0,1.177919563E1
5.103275083E0,-9.904453875E-1,-8.975875976E0,-2.578073049E0,9.391155001E0
5.113315083E0,-1.736316509E0,-6.796641507E0,-1.097677183E0,7.100283514E0
5.123354083E0,-2.013864540E0,-3.962239972E0,-1.279303249E0,4.625106786E0
5.133394083E0,-1.643547655E0,-1.175513710E0,-1.932006006E0,2.795662458E0
5.143433083E0,-7.019751960E-1,1.160044316E0,-1.199619953E0,1.810403276E0
5.153473083E0,4.526206845E-1,3.460464084E0,-1.475369453E-1,3.493056586E0
5.163512083E0,1.763653265E0,5.085650312E0,4.412781825E-1,5.400836821E0
5.173552083E0,2.838740169E0,5.998645089E0,6.498572087E-1,6.668170892E0
5.183591083E0,3.475655443E0,6.555414625E0,4.454624866E-1,7.433174187E0
5.193631083E0,3.848014614E0,7.746770196E0,-2.719532691E-2,8.649878873E0
5.203670083E0,4.136930217E0,9.186624246E0,-4.571043660E-1,1.008549459E1
5.213710083E0,4.280098415E0,9.851235734E0,-2.670423388E-3,1.074086100E1
5.223749083E0,4.047626862E0,1.046900108E1,6.499618739E-1,1.124302972E1
5.233789083E0,3.520062999E0,1.118806594E1,8.798731508E-1,1.176171075E1
5.243828083E0,3.491684707E0,1.151511357E1,1.066640308E0,1.208004239E1
5.253868083E0,3.663882285E0,1.117247492E1,1.440971453E0,1.184586966E1
5.263907083E0,3.458270794E0,1.038822765E1,1.492863738E0,1.105004763E1
5.273947083E0,3.626843682E0,1.007950752E1,1.009458632E0,1.075962238E1
5.283986083E0,3.885047077E0,1.006334348E1,1.957250190E-1,1.078901205E1
5.294026083E0,4.028169375E0,9.925685992E0,-7.567922580E-1,1.073862773E1
5.304065083E0,4.127397794E0,9.470226485E0,-2.035471902E0,1.052918554E1
5.314105083E0,3.455514124E0,8.605307515E0,-3.551812795E0,9.930119305E0
5.324144083E0,1.729299996E0,7.946002960E0,-4.088776057E0,9.102061918E0
5.334184083E0,-4.545379134E-1,7.577309700E0,-4.134258332E0,8.643744499E0
5.344223083E0,-1.607117601E0,7.232353213E0,-3.678213518E0,8.271578729E0
5.354263083E0,-2.004948559E0,7.084764227E0,-3.591971473E0,8.192433212E0
5.364302083E0,-2.180622306E0,5.863546341E0,-3.528760148E0,7.182509138E0
5.374342083E0,-2.146287894E0,5.144224795E0,-3.741216390E0,6.713143864E0
5.384381083E0,-1.788225019E0,4.408423457E0,-2.840419489E0,5.540751661E0
5.394421083E0,-1.775308520E0,2.384017995E0,9.136267148E-1,3.109658489E0
5.404460083E0,-3.237583719E0,-3.542816269E-1,6.134758914E0,6.945698722E0
5.414500083E0,-3.111801339E0,-3.350463340E0,6.055751921E0,7.588217412E0
5.424539083E0,-1.480898873E0,-7.315870163E0,-6.021468526E-1,7.488497750E0
5.434579083E0,-1.178161475E0,-1.484163432E1,-4.769201925E0,1.563353641E1
5.444618083E0,-8.609634747E-1,-2.483011005E1,-7.695011228E0,2.600939871E1
5.454658083E0,2.952190771E0,-3.180433676E1,-5.846089479E0,3.247164962E1
5.464697083E0,7.289545999E0,-3.052058056E1,7.021345326E0,3.215497798E1
5.474737083E0,-1.632495832E0,-2.763971354E1,1.293986251E1,3.056237637E1
5.484776083E0,-1.254908724E1,-1.985984109E1,5.342529021E0,2.409222894E1
5.494816083E0,-1.773322162E1,-1.321433432E1,3.966965691E0,2.246825755E1
5.504855083E0,-1.437221049E1,-1.489658060E1,3.515900366E0,2.099595445E1
5.514895083E0,-4.565961772E0,-1.342726770E1,1.345822052E0,1.424607882E1
5.524934083E0,4.156284939E-1,-9.466117646E0,-3.473772347E-2,9.475301422E0
5.534974083E0,-8.801989138E-2,-5.520573229E0,1.971388757E-1,5.524793210E0
5.545013083E0,-8.166111745E-1,-1.514679700E0,2.325146766E-1,1.736424913E0
5.555053083E0,-2.716528684E-2,1.663569691E0,6.972117618E-2,1.665251666E0
5.565092083E0,1.392687193E0,3.856221181E0,-4.732677877E-1,4.127226892E0
5.575132083E0,2.155449604E0,5.610109304E0,-1.248706816E0,6.138286252E0
5.585171083E0,3.274195182E0,6.418286308E0,-1.574097789E0,7.375129631E0
5.595211083E0,4.524228147E0,7.003444660E0,-2.101429664E0,8.598423348E0
5.605250083E0,4.925059458E0,7.313473390E0,-2.454081672E0,9.152356010E0
5.615290083E0,5.271333908E0,8.119388691E0,-2.467387011E0,9.989966594E0
5.625329083E0,5.954461189E0,9.379345551E0,-1.953453008E0,1.128023535E1
5.635369083E0,6.363338853E0,1.055972882E1,-1.389627053E0,1.240689395E1
5.645408083E0,5.887359127E0,1.146211909E1,-1.146604929E0,1.293660985E1
5.655448083E0,5.114603970E0,1.180409817E1,-8.793207351E-1,1.289453808E1
5.665487083E0,4.362283663E0,1.181347945E1,-6.199579100E-1,1.260841636E1
5.675527083E0,3.522842765E0,1.201941253E1,-5.120704955E-1,1.253550617E1
5.685566083E0,2.594932911E0,1.195842140E1,-7.189636964E-1,1.225783129E1
5.695606083E0,1.515542749E0,1.140373815E1,-1.081053549E0,1.155468694E1
5.705645083E0,9.523848376E-1,1.078432388E1,-1.489886920E0,1.092833206E1
5.715685083E0,5.751088889E-1,1.007179622E1,-2.195514287E0,1.032434561E1
5.725724083E0,1.500584109E-1,9.467217507E0,-3.083578876E0,9.957870432E0
5.735764083E0,-4.084461397E-1,9.020860360E0,-3.716999561E0,9.765184874E0
5.745803083E0,-1.006781192E0,8.719997726E0,-3.957085066E0,9.628628715E0
5.755843083E0,-1.526424271E0,8.289290652E0,-3.290432900E0,9.048163307E0
5.765882083E0,-2.157296301E0,7.460351354E0,-2.231459461E0,8.080233968E0
5.775922083E0,-2.378083217E0,7.413375408E0,-1.556228260E0,7.939474865E0
5.785961083E0,-1.907366277E0,7.392165218E0,-6.287054908E-1,7.660119015E0
5.796001083E0,-1.450651373E0,6.478779847E0,1.541498539E0,6.815804828E0
5.806040083E0,5.488781333E-3,5.549406434E0,5.243272535E0,7.634647914E0
5.816080083E0,1.355838478E0,3.591190284E0,8.119598022E0,8.981248113E0
5.826119083E0,1.021127044E0,-3.605235296E-1,8.739540875E0,8.806375665E0
5.836159083E0,2.014679788E0,-4.824363388E0,3.055566620E0,6.055568026E0
5.846198083E0,4.508595909E0,-1.301840465E1,-2.210658722E0,1.395325441E1
5.856238083E0,6.609325368E0,-2.522872878E1,-2.941970422E0,2.624551633E1
5.866277083E0,7.207158730E0,-3.831631300E1,-3.594339010E0,3.915357266E1
5.876317083E0,1.201759230E0,-3.848442045E1,1.702325621E0,3.854079339E1
5.886356083E0,-6.947525983E0,-2.536297383E1,1.359467348E1,2.960344078E1
5.896396708E0,-6.613949347E0,-1.864556736E1,1.261988884E1,2.346621193E1
5.906435708E0,-6.499498871E0,-1.638059458E1,4.337895511E0,1.814895870E1
5.916475708E0,-6.055399919E0,-1.293681611E1,1.153967012E-1,1.428434093E1
5.926514708E0,-4.958991435E0,-1.006677697E1,-2.188710760E-1,1.122405894E1
5.936554708E0,-4.317100181E0,-7.524689437E0,1.441191016E-1,8.676351503E0
5.946593708E0,-3.584955983E0,-5.914435828E0,9.002161988E-1,6.974442614E0
5.956633708E0,-2.544183757E0,-4.321995762E0,1.157215872E0,5.147005627E0
5.966672708E0,-1.188192812E0,-2.433583088E0,5.809910417E-1,2.769779665E0
5.976712708E0,4.114355287E-1,-6.085051149E-1,-2.362337981E-1,7.715983907E-1
5.986751708E0,1.996558974E0,1.385884250E0,-7.738345528E-1,2.550635765E0
5.996791708E0,3.696802694E0,2.879525083E0,-9.233050261E-1,4.776034655E0
6.006830708E0,4.198708682E0,4.010443833E0,-1.826709931E0,6.086845119E0
6.016870708E0,3.886909415E0,5.202133280E0,-3.039692599E0,7.170075771E0
6.026909708E0,3.728323571E0,6.741326262E0,-3.445587598E0,8.439072835E0
6.036949708E0,3.645010104E0,8.287907785E0,-2.963340826E0,9.526641746E0
6.046988708E0,3.064873048E0,9.948932183E0,-2.185189420E0,1.063718718E1
6.057028708E0,2.404941964E0,1.138494520E1,-1.720830889E0,1.176273701E1
6.067067708E0,1.821237960E0,1.205792113E1,-1.668803533E0,1.230834168E1
6.077107708E0,1.301554098E0,1.261919185E1,-1.914336305E0,1.282975953E1
6.087146708E0,9.305327694E-1,1.312959063E1,-2.034870370E0,1.331888654E1
6.097186708E0,7.393219471E-1,1.392602584E1,-2.204779785E0,1.411884721E1
6.107225708E0,3.896162049E-1,1.431491713E1,-2.373812265E0,1.451563426E1
6.117265708E0,2.946050902E-1,1.407391128E1,-2.634061309E0,1.432131453E1
6.127304708E0,-3.917429835E-2,1.295978748E1,-3.113617777E0,1.332862491E1
6.137344708E0,-3.007392579E-1,1.056620403E1,-3.874123601E0,1.125806135E1
6.147383708E0,-4.177348803E-1,8.293433404E0,-4.104819648E0,9.263103389E0
6.157423708E0,-7.654473066E-2,6.740770776E0,-4.267052985E0,7.978194716E0
6.167462708E0,-1.355118540E-1,5.983209025E0,-4.568171142E0,7.528966814E0
6.177502708E0,-2.533057675E-1,6.475162759E0,-3.654743087E0,7.439693784E0
6.187541708E0,1.241204546E-1,7.564181532E0,-2.054470090E0,7.839202477E0
6.197581708E0,7.055238712E-1,7.994483979E0,-1.080590596E0,8.097975923E0
6.207620708E0,1.527703349E0,8.118057280E0,-4.570460035E-1,8.273186966E0
6.217660708E0,2.306720874E0,8.136182479E0,6.313180268E-2,8.457092417E0
6.227699708E0,3.306025085E0,7.548075376E0,1.475038501E0,8.371319032E0
6.237739708E0,3.713779500E0,5.080108906E0,4.432607540E0,7.697251086E0
6.247778708E0,3.547521524E0,2.350095958E0,6.760213353E0,7.988012553E0
6.257818708E0,2.760698551E0,-3.685422843E0,8.038345113E0,9.263843164E0
6.267857708E0,1.524905456E0,-1.312314582E1,7.103196405E0,1.499992307E1
6.277897708E0,8.335824256E-1,-2.719242260E1,5.484444161E-1,2.721072395E1
6.287936708E0,-2.463201282E0,-3.922456803E1,-7.808566495E0,4.007003629E1
6.297976708E0,-1.055431196E1,-3.941660930E1,-8.018403769E0,4.158554303E1
6.308015708E0,-1.269373683E1,-2.431102465E1,3.102926143E0,2.760045335E1
6.318055708E0,-6.242906676E0,-1.480168497E1,1.141744168E1,1.970841791E1
6.328094708E0,-5.432148710E0,-1.314937293E1,9.106229124E0,1.689194059E1
6.338134708E0,-4.403998576E0,-1.338729145E1,4.406416107E0,1.476588226E1
6.348173708E0,-3.424786713E0,-1.270282808E1,3.472487129E0,1.360695308E1
6.358213708E0,-3.141748146E0,-1.087890844E1,3.149292809E0,1.175326659E1
6.368252708E0,-2.179924441E0,-9.298945166E0,2.056854439E0,9.770010335E0
6.378292708E0,-1.398571685E0,-7.433861128E0,1.259748552E0,7.668458805E0
6.388331708E0,-6.038844989E-1,-5.118639134E0,1.349029103E0,5.327759622E0
6.398371708E0,-1.359449865E-1,-2.670226922E0,1.028434017E0,2.864658685E0
6.408410708E0,6.933901678E-1,-4.422389531E-1,2.550220715E-1,8.610467312E-1
6.418450708E0,1.845792465E0,1.607322984E0,-8.779274167E-1,2.600229519E0
6.428489708E0,2.705832080E0,3.159793239E0,-1.620462555E0,4.464495430E0
6.438529708E0,3.210693836E0,4.638325451E0,-1.808315906E0,5.923902794E0
6.448568708E0,3.322435296E0,6.388409960E0,-1.719024830E0,7.403067234E0
6.458608708E0,3.141569222E0,7.929985097E0,-1.537964189E0,8.667148012E0
6.468647708E0,3.477628586E0,9.754260832E0,-1.391145136E0,1.044867407E1
6.478687708E0,4.325092447E0,1.113839735E1,-1.348538668E0,1.202451150E1
6.488726708E0,4.645833568E0,1.229633667E1,-1.648862189E0,1.324773232E1
6.498766708E0,4.357520521E0,1.334335664E1,-2.098033016E0,1.419277613E1
6.508805708E0,3.878430953E0,1.402234117E1,-2.300054317E0,1.472951216E1
6.518845708E0,3.557572303E0,1.404677552E1,-1.895435326E0,1.461372294E1
6.528884708E0,3.420214190E0,1.353848642E1,-1.356563825E0,1.402956681E1
6.538924708E0,3.332201900E0,1.287977535E1,-9.445315884E-1,1.333732817E1
6.548964708E0,2.994786567E0,1.200726085E1,-9.339317559E-1,1.241028961E1
6.559003708E0,2.639427883E0,1.066856772E1,-1.668306520E0,1.111612178E1
6.569043708E0,1.839403651E0,8.840112984E0,-2.881948754E0,9.478218819E0
6.579082708E0,8.299966206E-1,7.618559468E0,-4.099547798E0,8.691238974E0
6.589122708E0,-4.727057241E-1,6.832654508E0,-5.331285410E0,8.679356108E0
6.599161708E0,-1.854656113E0,6.530091503E0,-5.576979564E0,8.785473545E0
6.609201708E0,-2.411705146E0,6.965865775E0,-4.564867465E0,8.670503023E0
6.619240708E0,-2.159138466E0,7.637362944E0,-3.286053920E0,8.590072294E0
6.629280708E0,-1.787700232E0,8.083674483E0,-2.354043413E0,8.607158977E0
6.639319708E0,-1.349934983E0,7.973439265E0,-1.907473866E0,8.308821500E0
6.649359708E0,-2.813811003E-1,7.476578547E0,-9.493274747E-1,7.541858176E0
6.659398708E0,1.165547423E0,6.664352930E0,5.073740119E-1,6.784506553E0
6.669438708E0,1.726657493E0,4.916951124E0,1.544764647E0,5.435444073E0
6.679477708E0,8.324501123E-1,7.861078584E-1,2.885867558E0,3.104701324E0
6.689517708E0,-8.173485084E-1,-3.758445795E0,3.528725649E0,5.219758432E0
6.699556708E0,-3.222697292E0,-1.020285805E1,2.448844175E0,1.097638046E1
6.709596708E0,-6.061225500E0,-1.856469218E1,-3.183740218E-1,1.953170787E1
6.719635708E0,-8.493900515E0,-2.761100839E1,-6.395310844E0,2.958739818E1
6.729675708E0,-9.292097492E0,-3.444617194E1,-1.110557459E1,3.736596880E1
6.739714708E0,-3.858256012E0,-2.988159918E1,-5.069539479E0,3.055317233E1
6.749754708E0,1.258815775E0,-2.023256133E1,8.018767465E0,2.180004098E1
6.759793708E0,-2.323372136E0,-1.438533632E1,1.140480936E1,1.850420589E1
6.769833708E0,-9.000804995E0,-1.176077264E1,1.708789133E0,1.490805903E1
6.779872708E0,-9.226940213E0,-8.816420651E0,-4.736128904E0,1.361236995E1
6.789912708E0,-7.343636252E0,-6.357457724E0,-5.479826322E0,1.115234319E1
6.799951708E0,-5.276847832E0,-4.020113373E0,-3.086123584E0,7.316460439E0
6.809991708E0,-3.269378538E0,-1.782340674E0,2.369782948E-1,3.731183863E0
6.820030708E0,-2.028557569E0,-2.679328698E-1,1.094415021E0,2.320469365E0
6.830070708E0,-5.731559920E-1,1.279943227E0,-2.573260206E-1,1.425825774E0
6.840109708E0,8.782597578E-1,2.881469282E0,-1.724265689E0,3.470921721E0
6.850149708E0,1.790912400E0,4.563219720E0,-1.856116309E0,5.241708614E0
6.860188708E0,2.157420262E0,5.752670853E0,-1.634170914E0,6.357530866E0
6.870228708E0,2.808471765E0,6.265309113E0,-1.401744091E0,7.007602902E0
6.880267708E0,3.580006607E0,6.734483850E0,-1.277750521E0,7.733198978E0
6.890307458E0,3.673634271E0,7.483363656E0,-1.332706016E0,8.442299787E0
6.900346458E0,3.108744122E0,8.510969122E0,-1.049095738E0,9.121484927E0
6.910386458E0,2.430772039E0,9.109895913E0,-5.082255127E-1,9.442306361E0
6.920425458E0,1.900952613E0,9.545834491E0,3.559346348E-3,9.733272299E0
6.930465458E0,1.231151429E0,9.755816776E0,4.243141674E-2,9.833285068E0
6.940504458E0,7.574726547E-1,9.588219788E0,-3.532770753E-1,9.624579379E0
6.950544458E0,8.782745221E-1,9.778280609E0,-9.388119882E-1,9.862428999E0
6.960583458E0,9.230571042E-1,9.842597058E0,-1.619182892E0,1.001750990E1
6.970623458E0,7.014287737E-1,9.593665300E0,-2.043613565E0,9.833960170E0
6.980662458E0,4.568654342E-1,9.205300838E0,-2.059381021E0,9.443904898E0
6.990702458E0,1.675270042E-1,8.527838924E0,-1.848375619E0,8.727462085E0
7.000741458E0,2.515295661E-1,7.685006642E0,-1.217024848E0,7.784840633E0
7.010781458E0,7.727402464E-1,6.806785841E0,-4.936103971E-1,6.868268501E0
7.020820458E0,1.432705391E0,5.620923729E0,3.903326350E-1,5.813758498E0
7.030860458E0,2.312734004E0,4.350096311E0,1.669897547E0,5.201983690E0
7.040899458E0,3.188101364E0,2.969569865E0,2.594763926E0,5.071009300E0
7.050939458E0,3.524917065E0,1.053969977E0,3.445084738E0,5.040287876E0
7.060978458E0,3.130569732E0,-6.060656565E-1,3.429904781E0,4.683164446E0
7.071018458E0,2.947968204E0,-1.470275359E0,1.859450245E0,3.782827167E0
7.081057458E0,2.678201355E0,-3.017659121E0,6.507664508E-1,4.086872403E0
7.091097458E0,1.658330293E0,-5.126479665E0,2.025569057E-1,5.391834791E0
7.101136458E0,7.446107537E-1,-7.900108164E0,-4.854466608E-1,7.949956770E0
7.111176458E0,-2.492147630E-1,-1.258881206E1,-9.413432479E-1,1.262641771E1
7.121215458E0,-2.030351788E0,-1.751235475E1,-1.233107030E0,1.767273182E1
7.131255458E0,-4.266290508E0,-2.066585170E1,-1.196802253E0,2.113553872E1
7.141294458E0,-4.382886327E0,-2.005245539E1,-3.128576124E-1,2.052823762E1
7.151334458E0,-1.123898437E0,-1.599093496E1,6.734325975E-1,1.604452119E1
7.161374458E0,1.772931334E0,-1.265928621E1,2.958137974E0,1.312064759E1
7.171413458E0,8.940099641E-1,-1.189495572E1,4.618489941E0,1.279139065E1
7.181453458E0,-1.317079113E-1,-1.041058389E1,4.654777762E0,1.140458504E1
7.191492458E0,-9.253225348E-1,-9.084439475E0,4.678926178E0,1.026039047E1
7.201532458E0,-9.687303635E-1,-8.206556643E0,5.058383576E0,9.688821129E0
7.211571458E0,-4.054532058E-1,-7.183893244E0,4.803160799E0,8.651188826E0
7.221611458E0,6.651013385E-1,-5.589156391E0,3.845081358E0,6.816573891E0
7.231650458E0,1.738399433E0,-4.300356971E0,3.277527803E0,5.679550261E0
7.241690458E0,2.473180432E0,-2.746679267E0,2.976611959E0,4.745638756E0
7.251729458E0,3.062748755E0,-8.262618577E-1,1.336163475E0,3.442160865E0
7.261769458E0,3.728558337E0,-4.131385303E-1,-1.037945799E1,1.103657460E1
7.271808458E0,3.136244747E0,8.719104856E-1,-1.887220310E1,1.915088272E1
7.281848458E0,-2.538778591E0,8.435041857E0,-3.145037790E0,9.353426675E0
7.291887458E0,2.998883126E0,9.422964610E0,1.115073965E0,9.951329157E0
7.301927458E0,4.822146124E0,6.223893285E0,-8.657812588E0,1.170246383E1
7.311966458E0,2.249337323E0,5.708462394E0,6.824670720E0,9.177264937E0
7.322006458E0,2.361890084E0,8.119516745E0,6.096501752E0,1.042460601E1
7.332045458E0,2.863172467E0,9.160875447E0,8.059575183E0,1.253300234E1
7.342085458E0,3.242739209E0,1.110816841E1,4.305523571E0,1.234683345E1
7.352124458E0,1.406384003E0,1.296450619E1,2.742864543E0,1.332590119E1
7.362164458E0,4.746776976E-1,1.516484501E1,1.237469053E0,1.522265328E1
7.372203458E0,1.686155000E0,1.527354592E1,4.676895440E-2,1.536640853E1
7.382243458E0,3.783554909E0,1.287983733E1,1.159173958E-1,1.342456459E1
7.392282458E0,3.707363935E0,1.122219847E1,-5.266489197E-1,1.183045413E1
7.402322458E0,3.248382064E0,1.066800405E1,-1.147129571E0,1.121045060E1
7.412361458E0,3.173730662E0,1.043245482E1,-1.869597942E0,1.106363757E1
7.422401458E0,2.293612147E0,9.910377982E0,-3.045775457E0,1.061852139E1
7.432440458E0,9.131807184E-1,9.253282505E0,-4.012811370E0,1.012718081E1
7.442480458E0,3.846780851E-2,8.300407963E0,-4.598912294E0,9.489375449E0
7.452519458E0,-2.927762273E-1,7.674995039E0,-5.737317819E0,9.586870320E0
7.462559458E0,-2.794698648E-1,8.262968241E0,-7.357924508E0,1.106769175E1
7.472598458E0,-2.014204994E-1,9.344437673E0,-8.501181468E0,1.263444387E1
7.482638458E0,-9.048580840E-1,8.999530887E0,-9.292524923E0,1.296770387E1
7.492677458E0,-1.584240223E0,7.202843485E0,-9.285019437E0,1.185758649E1
7.502717458E0,-2.526699705E0,4.329611760E0,-7.774187790E0,9.250283519E0
7.512756458E0,-3.669720730E0,2.228023052E-2,-6.391868003E0,7.370435754E0
7.522796458E0,-5.446038187E0,-7.880441054E0,-5.253260164E0,1.092508240E1
7.532835458E0,-7.838405421E0,-1.923675361E1,-6.622796184E-1,2.078297147E1
7.542875458E0,-9.681028549E0,-3.267789441E1,1.894781578E1,3.899470245E1
7.552914458E0,-1.055976157E1,-3.462235089E1,2.096983675E1,4.183240130E1
7.562954458E0,-5.567263831E0,-2.594786380E1,1.028580080E1,2.846197042E1
7.572993458E0,3.934700755E0,-1.779512843E1,-2.854233536E0,1.844708961E1
7.583033458E0,1.331059937E1,-1.558966745E1,-2.678712986E0,2.067329896E1
7.593073458E0,7.768361624E0,-1.617128648E1,3.995642191E0,1.837996478E1
7.603112458E0,2.435726385E0,-1.289881623E1,-1.205740745E0,1.318203451E1
7.613152458E0,2.191409396E0,-9.909786243E0,-4.432927383E0,1.107506134E1
7.623191458E0,1.136840225E0,-9.252973187E0,-3.702282704E0,1.003079337E1
7.633231458E0,6.091051854E-1,-8.424203458E0,-3.087843835E0,8.992941264E0
7.643270458E0,5.809569816E-1,-7.225117868E0,-2.336577780E0,7.615736008E0
7.653310458E0,4.362872185E-1,-5.460850938E0,-1.696145698E0,5.734819067E0
7.663349458E0,2.315497398E-1,-2.862761700E0,-1.137592762E0,3.089196842E0
7.673389458E0,-1.655680043E-1,8.628794611E-2,1.625285850E-1,2.475356835E-1
7.683428458E0,-3.265865824E-1,2.117880805E0,1.740192189E0,2.760497556E0
7.693468458E0,-5.107825001E-1,3.154281653E0,3.212175520E0,4.530834700E0
7.703507458E0,-4.011223559E-1,3.789904400E0,4.267872180E0,5.721801067E0
7.713547458E0,1.267003924E-1,4.596287479E0,4.165985032E0,6.204622701E0
7.723586458E0,6.172711144E-1,6.429270303E0,3.338118698E0,7.270459180E0
7.733626458E0,7.711908804E-1,7.875966765E0,2.737253555E0,8.373657796E0
7.743665458E0,1.110158503E0,7.950241606E0,1.928907566E0,8.255875356E0
7.753705458E0,-3.530890873E-1,9.781227021E0,2.923309618E-1,9.791962589E0
7.763744458E0,8.251071788E-1,1.174738018E1,6.078876489E-1,1.179200027E1
7.773784458E0,2.713400424E0,1.151401664E1,8.805895078E-1,1.186214815E1
7.783823458E0,3.557988332E0,1.238450800E1,-7.432740802E-1,1.290688869E1
7.793863458E0,3.869886416E0,1.289489508E1,-1.335001194E0,1.352910079E1
7.803902458E0,3.780008572E0,1.239983472E1,-1.814118975E0,1.308951464E1
7.813942458E0,4.243671724E0,1.174609730E1,-1.643431734E0,1.259684164E1
7.823981458E0,4.523846324E0,1.042823547E1,-1.802573794E0,1.150923772E1
7.834021458E0,5.048553237E0,9.459950588E0,-3.004663099E0,1.113582306E1
7.844060458E0,4.446686759E0,8.706461422E0,-4.053579912E0,1.058333613E1
7.854100458E0,1.506172878E0,7.881545593E0,-3.031145723E0,8.577596521E0
7.864139458E0,9.779833630E-2,7.933959450E0,-1.478534697E0,8.071142541E0
7.874179458E0,-1.122132066E0,8.008000402E0,-1.043167831E0,8.153247816E0
7.884218458E0,-2.448150841E0,7.014803461E0,-2.017154914E-1,7.432469259E0
7.894258458E0,-3.054821977E0,5.641283734E0,1.077176991E0,6.505100287E0
7.904297458E0,-1.560647293E0,4.247453118E0,1.540064802E0,4.779987192E0
7.914337458E0,3.027319890E-1,2.688922809E0,-6.564635392E-1,2.784402433E0
7.924376458E0,8.949170865E-2,-1.311179638E-1,-2.528586894E0,2.533565149E0
7.934416458E0,-1.489784009E0,-4.183002183E0,-1.327425542E0,4.634546605E0
7.944455458E0,-2.807359332E0,-1.010295486E1,5.283731174E-1,1.049905431E1
7.954495458E0,-3.852011186E0,-1.965097621E1,-9.834513867E-1,2.004909057E1
7.964535458E0,-4.135770714E0,-3.101104501E1,-2.499180661E0,3.138527387E1
7.974574458E0,3.180943202E0,-3.208632224E1,5.767040386E0,3.275529315E1
7.984614458E0,5.082150169E0,-2.284774256E1,1.187530206E1,2.624634050E1
7.994653458E0,-1.129682576E0,-1.946981310E1,4.242288272E0,1.995862757E1
8.004693458E0,-4.631884158E0,-1.523121325E1,5.112419450E-1,1.592813788E1
8.014732458E0,-6.495082469E0,-1.290996687E1,3.500753154E0,1.486972136E1
8.024772458E0,-7.430215974E0,-1.105894421E1,5.212867014E0,1.430672356E1
8.034811458E0,-6.368986679E0,-8.798415320E0,3.539598547E0,1.142387243E1
8.044851458E0,-4.515185721E0,-6.782861373E0,1.812191441E0,8.347343788E0
8.054890458E0,-2.258391444E0,-4.902986804E0,1.283017547E0,5.548490384E0
8.064930458E0,-1.442135341E-1,-3.023343199E0,9.471493869E-1,3.171512826E0
8.074969458E0,6.092415133E0,-1.860018010E0,-6.829897546E0,9.339415915E0
8.085009458E0,1.140618111E1,-6.550208849E-1,-2.288926247E1,2.558218827E1
8.095048458E0,-9.492780657E-1,-7.805489105E-1,-1.679498909E1,1.683989442E1
8.105088458E0,4.557781810E-1,1.384043546E0,1.140268799E1,1.149541664E1
8.115127458E0,9.403051332E0,5.405743854E0,2.041099964E1,2.311381291E1
8.125167458E0,2.837322804E0,8.465391830E0,1.748323912E1,1.963101907E1
8.135206458E0,-2.545292974E-3,1.092177789E1,1.087425991E1,1.541216297E1
8.145246458E0,-3.356972753E-1,1.230717390E1,5.621579202E0,1.353445140E1
8.155285458E0,6.431190236E-1,1.249369891E1,2.394544153E0,1.273734494E1
8.165325458E0,1.815940091E0,1.111402031E1,5.439517810E-1,1.127452746E1
8.175364458E0,2.171908347E0,1.126064041E1,-2.013512099E0,1.164360079E1
8.185404458E0,2.556135173E0,1.238669252E1,-3.635426225E0,1.315979873E1
8.195443458E0,2.992273726E0,1.320069978E1,-4.268988413E0,1.419283055E1
8.205483458E0,3.185044439E0,1.331215707E1,-4.268847495E0,1.433809935E1
8.215522458E0,3.029285724E0,1.306456491E1,-4.510531045E0,1.414935753E1
8.225562458E0,2.756889090E0,1.282384440E1,-4.533155091E0,1.387807327E1
8.235601458E0,2.511786674E0,1.225293396E1,-4.429307372E0,1.326884421E1
8.245641458E0,2.537241358E0,1.087932710E1,-4.185519994E0,1.192962403E1
8.255680458E0,1.829456222E0,9.041308658E0,-2.999897034E0,9.700080130E0
8.265720458E0,7.073044945E-1,7.997982953E0,-2.317670224E0,8.357009407E0
8.275759458E0,-1.972616673E-1,7.544014485E0,-2.527650170E0,7.958648258E0
8.285799458E0,-7.438966624E-1,7.045643431E0,-2.640989674E0,7.561038292E0
8.295839458E0,-8.545855511E-1,6.444301155E0,-2.060157238E0,6.819353466E0
8.305878458E0,-8.684164088E-1,5.913806083E0,-1.406384003E0,6.140453193E0
8.315918458E0,-6.655270158E-1,5.024900665E0,-2.387517554E-1,5.074401965E0
8.325957458E0,-5.014005695E-1,3.286341603E0,2.891524154E0,4.405945483E0
8.335997458E0,-3.581479521E-1,4.456911492E-1,9.091784747E0,9.109745356E0
8.346036458E0,-7.043460958E-1,-2.717050256E0,9.243736925E0,9.660493665E0
8.356076458E0,-1.702622367E0,-8.011625676E0,4.133337688E0,9.174396402E0
8.366115458E0,-4.069870840E0,-1.667410025E1,2.688298327E-1,1.716571400E1
8.376155458E0,-7.701147881E0,-3.083054380E1,-5.886719441E0,3.231847112E1
8.386194458E0,-5.738589004E0,-3.952161594E1,-5.508544337E0,4.031418598E1
8.396234458E0,5.509341313E0,-2.863808352E1,6.239484301E0,2.982320965E1
8.406273458E0,7.022553361E0,-2.004321445E1,1.232594112E1,2.455555998E1
8.416313458E0,9.807622522E-2,-1.655456211E1,4.406383363E0,1.713123930E1
8.426352458E0,-2.669171207E0,-1.386080833E1,-1.521396396E0,1.419722260E1
8.436392458E0,-3.606195409E0,-1.167717617E1,-2.335777881E0,1.244254584E1
8.446431458E0,-3.284591532E0,-9.133477734E0,-3.639508751E0,1.036604944E1
8.456471458E0,-2.950936250E0,-7.178779854E0,-3.532960787E0,8.527878802E0
8.466510458E0,-3.146024508E0,-5.679022833E0,-2.528623146E0,6.967259544E0
8.476550458E0,-2.951673584E0,-4.330845523E0,-1.670459465E0,5.500821276E0
8.486589458E0,-2.134278444E0,-2.483484980E0,-8.959326017E-1,3.394928181E0
8.496629458E0,-5.598270446E-1,1.195697129E-1,-1.656393403E-1,5.959359254E-1
8.506668458E0,1.155069066E0,3.091614119E0,8.592337221E-1,3.410358486E0
8.516708458E0,2.396766533E0,5.045503914E0,1.883805068E0,5.894940296E0
8.526747458E0,3.294664530E0,6.198522216E0,2.754275385E0,7.540724430E0
8.536787458E0,3.499113595E0,7.291341094E0,1.402420176E0,8.208180873E0
8.546826458E0,4.556143420E0,8.148907775E0,8.754065359E-1,9.377071898E0
8.556866458E0,6.284860448E0,9.056196839E0,2.507550951E0,1.130495395E1
8.566905458E0,4.393293494E0,1.061912835E1,3.826436049E0,1.211232956E1
8.576945458E0,3.281286393E0,1.030624150E1,5.034460278E0,1.193026590E1
8.586984458E0,1.760477204E0,1.051418720E1,4.139004225E0,1.143585451E1
8.597024458E0,-2.908827527E-1,1.145056967E1,2.914509559E0,1.181924382E1
8.607063458E0,-9.245016588E-1,1.231015481E1,1.894701355E0,1.248937580E1
8.617103458E0,-1.183006040E0,1.280420477E1,5.729628146E-1,1.287149756E1
8.627143458E0,6.197025329E-2,1.217316858E1,-1.174095760E0,1.222981498E1
8.637182458E0,7.362182450E-1,1.179629565E1,-2.812633520E0,1.214930104E1
8.647222458E0,7.428298379E-1,1.102284467E1,-3.163548905E0,1.149186419E1
8.657261458E0,9.320778231E-1,9.939363799E0,-3.681563095E0,1.064018931E1
8.667301458E0,5.391226387E-1,8.601502731E0,-5.036328464E0,9.982039213E0
8.677340458E0,3.709898264E-1,7.819345252E0,-5.455059856E0,9.541355860E0
8.687380458E0,7.371137461E-1,7.921886119E0,-5.143903198E0,9.474141463E0
8.697419458E0,1.355632803E0,7.885142215E0,-4.013341128E0,8.950984028E0
8.707459458E0,1.552858217E0,6.895553007E0,-2.239481402E0,7.414532815E0
8.717498458E0,1.636598824E0,5.841087186E0,-2.669196935E-1,6.071902613E0
8.727538458E0,2.260048252E0,5.647116916E0,1.685321333E0,6.311739504E0
8.737577458E0,1.571385120E0,4.142057641E0,2.999188936E0,5.349862331E0
8.747617458E0,9.397843071E-1,1.052783577E0,3.901635920E0,4.149013215E0
8.757656458E0,7.019413552E-1,-2.933920560E0,4.424098088E0,5.354741395E0
8.767696458E0,-1.348006133E-1,-8.468878525E0,3.400576317E0,9.127102167E0
8.777735458E0,-1.717820157E0,-1.494373372E1,-6.574474794E-1,1.505650427E1
8.787775458E0,-4.656680446E0,-2.575521675E1,-5.870384075E0,2.682307350E1
8.797814458E0,-6.541629229E0,-3.605288623E1,-5.626120734E0,3.707096914E1
8.807854458E0,-5.024103836E-1,-2.903912767E1,6.818033545E0,2.983301750E1
8.817893458E0,1.404777481E0,-2.030231627E1,1.288698965E1,2.408800423E1
8.827933458E0,-3.809301369E0,-1.675270671E1,2.749266660E0,1.739892026E1
8.837972458E0,-4.867392755E0,-1.236160329E1,-5.331491232E-2,1.328546539E1
8.848012458E0,-5.480910981E0,-9.485168459E0,1.604400692E0,1.107171655E1
8.858051458E0,-4.842685930E0,-8.146268342E0,2.284700114E0,9.748494731E0
8.868091458E0,-3.679905410E0,-7.355362258E0,2.751137184E0,8.672474478E0
8.878130458E0,-1.990133761E0,-6.715007944E0,1.857534113E0,7.245853784E0
8.888170458E0,-4.240649298E-2,-5.054220359E0,9.665856779E-2,5.055322406E0
8.898210458E0,1.101329427E0,-2.782629118E0,-9.771482344E-1,3.148137543E0
8.908249458E0,2.461639783E0,-5.818868351E-1,-1.038350310E0,2.734306873E0
8.918289458E0,3.867426785E0,1.592879777E0,-5.496521585E-1,4.218574809E0
8.928328458E0,4.671168092E0,3.523286569E0,6.986089540E-1,5.892487935E0
8.938368458E0,3.810983028E0,6.441564658E0,-8.090137410E-1,7.528070810E0
8.948407458E0,2.032555603E0,7.902941140E0,-2.475129309E0,8.527251963E0
8.958447458E0,6.833680402E-1,8.415815628E0,-3.053396133E0,8.978650929E0
8.968486458E0,7.766917216E-1,9.751261210E0,-2.748270879E0,1.016087290E1
8.978526458E0,1.400555206E0,1.080781566E1,-1.353454569E0,1.098190664E1
8.988565458E0,1.550567570E0,1.106991359E1,-6.595109618E-1,1.119741941E1
8.998605458E0,1.290660296E0,1.136047109E1,-2.751671912E-1,1.143686252E1
9.008644458E0,1.117578474E0,1.170897216E1,4.757779974E-1,1.177180425E1
9.018684458E0,4.350639810E-1,1.145234020E1,9.619956136E-1,1.150090485E1
9.028723458E0,-7.397985683E-1,1.134656524E1,5.243147112E-1,1.138273915E1
9.038763458E0,-1.139766976E0,1.150319461E1,-1.369705881E-1,1.156033373E1
9.048802458E0,-1.310151113E0,1.111397704E1,-8.018446161E-1,1.121962282E1
9.058842458E0,-1.056963751E0,1.047988041E1,-1.741183877E0,1.067599116E1
9.068881458E0,-5.328056724E-1,9.255765232E0,-2.250430167E0,9.540309631E0
9.078921458E0,-1.991671287E-3,7.932621022E0,-2.552625382E0,8.333209261E0
9.088960458E0,5.564144634E-1,7.399573056E0,-2.955440653E0,7.987359258E0
9.099000458E0,1.548161733E0,7.046243940E0,-3.246901257E0,7.911303697E0
9.109039458E0,2.317444083E0,6.353461152E0,-3.182406760E0,7.474271100E0
9.119079458E0,2.934594744E0,6.057065206E0,-2.821710738E0,7.298077604E0
9.129118458E0,3.223246931E0,5.936458197E0,-1.693374703E0,6.964077439E0
9.139158458E0,3.459350482E0,5.296691528E0,1.087949024E-1,6.327233458E0
9.149197458E0,3.705556560E0,4.214539141E0,2.060093211E0,5.978082772E0
9.159237458E0,3.458921296E0,2.097442448E0,3.141179797E0,5.121563421E0
9.169277458E0,2.603505806E0,-1.581175990E0,3.477339149E0,4.622796507E0
9.179316458E0,1.402618981E0,-5.614363153E0,3.507628895E0,6.766969343E0
9.189356458E0,-1.147038135E0,-1.227822199E1,3.121852410E0,1.272070730E1
9.199395458E0,-3.801628360E0,-2.273951762E1,2.180310796E0,2.315797476E1
9.209435458E0,-4.144617844E0,-3.101285297E1,2.875826134E0,3.142045962E1
9.219474458E0,-2.782860083E0,-2.861161434E1,4.500319467E0,2.909676375E1
9.229514458E0,-1.470092634E0,-2.090058467E1,3.355094042E0,2.121914861E1
9.239553458E0,5.097364332E-1,-1.700781020E1,1.121660269E0,1.705237699E1
9.249593458E0,1.412319950E0,-1.367525981E1,1.897642504E0,1.387834376E1
9.259632458E0,3.994474210E-1,-1.062892243E1,2.836054835E0,1.100803149E1
9.269672458E0,-1.346286028E0,-8.231725983E0,4.319240262E0,9.393063141E0
9.279711458E0,-2.134721225E0,-6.744241099E0,6.286271966E0,9.463563702E0
9.289751458E0,-1.212979379E0,-5.772778258E0,6.633813508E0,8.877148723E0
9.299790458E0,2.213764800E-1,-4.444668007E0,4.781329050E0,6.531859515E0
9.309830458E0,1.075944837E0,-2.770628877E0,2.917930765E0,4.165136446E0
9.319869458E0,1.272458353E0,-7.212634063E-1,2.913802046E0,3.260308808E0
9.329909458E0,1.678637088E0,1.374445927E0,2.430246667E0,3.257763487E0
9.339948458E0,2.060863144E0,2.504560100E0,9.116437778E-1,3.369135285E0
9.349988458E0,2.062600644E0,3.686586438E0,-8.847854698E-1,4.316026681E0
9.360027458E0,2.228271851E0,5.137042075E0,-2.960799626E0,6.334092765E0
9.370067458E0,2.138818807E0,5.626441746E0,-4.783153381E0,7.688299479E0
9.380107458E0,1.723793088E0,6.750192980E0,-5.588567576E0,8.931329992E0
9.390146458E0,1.239377584E0,8.283257495E0,-5.431440613E0,9.982432501E0
9.400186458E0,7.210551723E-1,9.619390710E0,-4.953746483E0,1.084399384E1
9.410225458E0,1.044434995E0,1.113537434E1,-4.219970327E0,1.195389291E1
9.420265458E0,1.258060607E0,1.214308231E1,-3.925259256E0,1.282360421E1
9.430304458E0,1.241603034E0,1.309077798E1,-3.790107298E0,1.368484415E1
9.440344458E0,1.367033704E0,1.376971807E1,-3.739593202E0,1.433382273E1
9.450383458E0,1.674452528E0,1.419748399E1,-3.301876486E0,1.467224357E1
9.460423458E0,2.303754728E0,1.409895841E1,-2.589879162E0,1.451879431E1
9.470462458E0,2.916033343E0,1.327767838E1,-1.776436886E0,1.370969444E1
9.480502458E0,3.411885417E0,1.209530472E1,-9.397178681E-1,1.260239771E1
9.490541458E0,3.786346662E0,1.065550504E1,-1.858919026E-1,1.130976413E1
9.500581458E0,3.708854097E0,9.239201240E0,3.538343149E-1,9.962110067E0
9.510620458E0,3.326939406E0,8.188178844E0,8.756316537E-1,8.881527425E0
9.520660458E0,1.947692331E0,7.247202802E0,1.377318664E0,7.629709075E0
9.530699458E0,3.098783098E-2,6.325583382E0,1.521522696E0,6.506073830E0
9.540739458E0,-1.607101083E0,5.460948002E0,1.418618279E0,5.866617832E0
9.550778458E0,-2.598727754E0,5.339908299E0,1.472587933E0,6.118539188E0
9.560818458E0,-2.953935580E0,5.222733021E0,1.787854452E0,6.260918396E0
9.570857458E0,-2.240556559E0,4.153186061E0,2.429231005E0,5.307561722E0
9.580897458E0,-1.186379006E0,1.401384049E0,3.404260063E0,3.867862326E0
9.590936458E0,1.557052863E-1,-3.194722751E0,3.206642300E0,4.529133739E0
9.600976458E0,1.722192998E0,-1.032309785E1,-7.970940457E-1,1.049607817E1
9.611016458E0,1.027949136E0,-2.222639170E1,-6.399455935E0,2.315215333E1
9.621055458E0,-2.493529912E0,-3.889301219E1,-1.076995961E1,4.043360136E1
9.631095458E0,-6.031480713E0,-4.475962189E1,-4.586444861E0,4.539645347E1
9.641134458E0,-6.137881912E0,-2.911281662E1,1.606426957E1,3.381257817E1
9.651174458E0,-8.011115214E0,-1.853255237E1,1.881815378E1,2.759993435E1
9.661213458E0,-7.660599779E0,-1.519499326E1,3.434955021E0,1.736005544E1
9.671253458E0,-5.478346392E0,-1.222653728E1,-2.834292192E0,1.369429463E1
9.681292458E0,-3.028881389E0,-1.050251148E1,-3.447228327E0,1.146125006E1
9.691332458E0,-1.577982241E0,-8.707125666E0,-3.333275449E0,9.455939431E0
9.701371458E0,-1.334767013E0,-6.353080498E0,-3.021106639E0,7.160329610E0
9.711411458E0,-1.844604896E0,-3.287215762E0,-2.784635298E0,4.686421708E0
9.721450458E0,-1.918432133E0,-3.548049527E-1,-1.905308204E0,2.726988771E0
9.731490458E0,-1.357081450E0,2.393792201E0,-1.159351860E0,2.985968502E0
9.741529458E0,-6.060234104E-1,4.640780112E0,-1.670064193E-1,4.683160852E0
9.751569458E0,9.780396424E-1,5.763677067E0,7.228900286E-1,5.890594611E0
9.761608458E0,2.320522349E0,6.792383564E0,1.002759404E0,7.247539229E0
9.771648458E0,3.432160637E0,7.568820128E0,1.173143833E0,8.393034685E0
9.781687458E0,4.043253145E0,8.367875476E0,6.136693758E-1,9.313743934E0
9.791727458E0,4.257644230E0,8.677449292E0,4.475101449E-1,9.676049087E0
9.801766458E0,4.116577814E0,9.429992963E0,8.871405821E-1,1.032753594E1
9.811806458E0,3.682156003E0,1.039885906E1,1.600564188E0,1.114703316E1
9.821845458E0,3.412619242E0,1.159764351E1,2.510468711E0,1.234721662E1
9.831885458E0,2.998517675E0,1.277459213E1,2.828321015E0,1.342314092E1
9.841925458E0,2.647985283E0,1.382399894E1,1.670898591E0,1.417415517E1
9.851964458E0,2.630138412E0,1.427356445E1,-3.862144411E-2,1.451391615E1
9.862004458E0,2.772181021E0,1.413412941E1,-1.853051053E0,1.452213483E1
9.872043458E0,3.049920548E0,1.399580066E1,-2.756547028E0,1.458708343E1
9.882083458E0,3.362890719E0,1.342992701E1,-2.525080318E0,1.407295293E1
9.892122875E0,3.244168853E0,1.191909770E1,-2.297948735E0,1.256463648E1
9.902162875E0,2.621249474E0,1.006415391E1,-2.011088428E0,1.059257378E1
9.912201875E0,2.199853214E0,9.045012869E0,-1.773481704E0,9.476119951E0
9.922241875E0,1.743701980E0,8.868215287E0,-2.090762150E0,9.276692587E0
9.932280875E0,1.092054135E0,7.810948650E0,-1.846326901E0,8.100149633E0
9.942320875E0,4.131737597E-1,6.197083216E0,-1.581321147E0,6.408988182E0
9.952359875E0,-1.044115372E-2,5.178981230E0,-1.347588349E0,5.351443726E0
9.962399875E0,-1.308574703E-1,4.747736796E0,-6.452532573E-1,4.793170154E0
9.972438875E0,1.564166732E-2,4.340910335E0,-1.487350398E-1,4.343485848E0
9.982478875E0,1.978083819E-2,2.949989879E0,3.803609397E-1,2.974475754E0
9.992517875E0,-4.076835166E-1,-4.408093089E-1,1.357263299E0,1.484143645E0
1.000255788E1,-7.997622033E-1,-6.686999781E0,7.335098147E-1,6.774483176E0
1.001259688E1,-1.460800239E0,-1.776736001E1,-3.372298597E0,1.814346761E1
1.002263688E1,-3.897361313E0,-3.568341471E1,-5.940121477E0,3.638379521E1
1.003267688E1,-4.446867145E0,-4.882088738E1,1.175604342E0,4.903708512E1
1.004271588E1,-2.205507325E0,-3.462733272E1,1.371555414E1,3.730995657E1
1.005275588E1,-5.306158755E0,-1.925622834E1,1.133311899E1,2.296513089E1
1.006279488E1,-6.973456630E0,-1.452450473E1,6.477092341E0,1.736499526E1
1.007283488E1,-7.456785137E0,-1.307021800E1,3.019223835E0,1.534763681E1
1.008287388E1,-6.451559304E0,-1.263955185E1,-5.174364853E-1,1.420030384E1
1.009291388E1,-4.049216720E0,-1.255326098E1,-9.943818793E-2,1.319054227E1
1.010295288E1,-1.229691233E0,-1.120558770E1,2.269596756E-1,1.127514288E1
1.011299288E1,1.262607695E0,-8.578731920E0,8.102562743E-1,8.708922710E0
1.012303188E1,2.992693264E0,-4.851403252E0,1.289223343E0,5.844178583E0
1.013307188E1,3.789695070E0,-8.552008975E-1,2.342569276E-1,3.892047482E0
1.014311088E1,3.166960756E0,1.371705337E0,-1.276412678E0,3.679734404E0
1.015315088E1,1.998463120E0,2.485460170E0,-1.606332466E0,3.570948206E0
1.016318988E1,1.892544317E0,3.436349582E0,-3.905231812E-1,3.942427018E0
1.017322988E1,1.646154051E0,5.387283025E0,3.603791765E-1,5.644689070E0
1.018326888E1,2.141779837E0,7.837353507E0,5.923392447E-1,8.146299567E0
1.019330888E1,3.092786486E0,9.209459962E0,4.353538567E-1,9.724660098E0
1.020334788E1,3.743462305E0,9.459806746E0,4.024024576E-1,1.018152157E1
1.021338788E1,4.284031837E0,9.090950934E0,5.140100169E-1,1.006292820E1
1.022342788E1,4.050177417E0,9.887586704E0,5.269884602E-1,1.069794489E1
1.023346688E1,3.669095955E0,1.101307164E1,4.276589209E-1,1.161606233E1
1.024350688E1,2.988958940E0,1.169347704E1,5.359914547E-1,1.208133137E1
1.025354588E1,1.862793683E0,1.251588090E1,6.048932533E-1,1.266819525E1
1.026358588E1,9.422986829E-1,1.297869270E1,6.248632854E-1,1.302784883E1
1.027362488E1,9.686351269E-1,1.282872799E1,3.143012899E-1,1.286908315E1
1.028366488E1,1.338487451E0,1.226635682E1,-3.724846671E-1,1.234478850E1
1.029370388E1,1.632277439E0,1.137980433E1,-9.977057290E-1,1.153948408E1
1.030374388E1,1.814315296E0,1.083031340E1,-1.243798664E0,1.105144622E1
1.031378288E1,2.189495164E0,1.062002063E1,-1.173330944E0,1.090666919E1
1.032382288E1,2.532481724E0,1.035927691E1,-1.255213598E0,1.073795339E1
1.033386187E1,2.363370015E0,9.673676845E0,-1.521565965E0,1.007376318E1
1.034390188E1,2.277385539E0,8.640245798E0,-2.171612039E0,9.195446220E0
1.035394088E1,2.095326779E0,8.032042399E0,-3.149749476E0,8.878345633E0
1.036398088E1,2.204285842E0,7.730787417E0,-3.381215016E0,8.721041517E0
1.037401988E1,2.279197737E0,7.231649793E0,-2.766466244E0,8.071235131E0
1.038405988E1,1.927154425E0,6.575424966E0,-1.681749269E0,7.055382220E0
1.039409887E1,1.854146382E0,6.430818645E0,-7.558707368E-1,6.735326854E0
1.040413888E1,2.365737991E0,6.381082229E0,2.297797877E-1,6.809385097E0
1.041417888E1,2.241258371E0,2.844863958E0,2.575085122E0,4.443821937E0
1.042421787E1,2.327598065E0,-4.162390164E0,6.256196812E0,7.866587772E0
1.043425788E1,2.221915782E0,-1.435430866E1,5.528360551E0,1.554174563E1
1.044429688E1,2.080006635E-1,-2.892417608E1,9.686431669E-2,2.892508616E1
1.045433688E1,-5.570492079E0,-4.720247632E1,-6.818661536E0,4.801664605E1
1.046437588E1,-5.789190223E0,-4.241182447E1,-3.249535135E0,4.292827806E1
1.047441588E1,2.476916511E0,-2.045794343E1,1.165228107E1,2.367357638E1
1.048445487E1,-4.744260480E-1,-1.490537131E1,1.618848548E1,2.201050286E1
1.049449488E1,-6.000555959E0,-1.564445820E1,6.698283153E0,1.804501985E1
1.050453388E1,-6.233757538E0,-1.645195400E1,6.342651697E-1,1.760479525E1
1.051457387E1,-4.121672493E0,-1.462334606E1,-3.048499090E0,1.549592788E1
1.052461288E1,-2.637029940E0,-1.067116155E1,-3.120534448E0,1.142651963E1
1.053465288E1,-2.327055297E0,-6.366494011E0,-8.797259472E-1,6.835301755E0
1.054469187E1,-2.085227760E0,-2.191039413E0,5.732586837E-1,3.078547391E0
1.055473188E1,-1.920526898E0,1.032370362E0,8.248228580E-1,2.331211033E0
1.056477088E1,-9.522007965E-1,3.531874375E0,9.487784942E-1,3.779021512E0
1.057481087E1,1.230975281E0,4.335361912E0,5.018197417E-1,4.534587755E0
1.058484988E1,3.652705332E0,4.909568430E0,-3.506908518E-1,6.129363954E0
1.059488988E1,4.784092737E0,5.774493831E0,-1.179942976E0,7.591086072E0
1.060492988E1,4.376540928E0,6.503170338E0,-9.431256254E-1,7.895240394E0
1.061496888E1,3.735175631E0,6.794734145E0,-4.131589955E-1,7.764705368E0
1.062500888E1,2.631607817E0,7.070608118E0,-3.372504785E-1,7.551992899E0
1.063504787E1,1.874592195E0,8.454643478E0,-1.862817657E-1,8.661973975E0
1.064508788E1,1.464690537E0,9.985518211E0,2.622803664E-1,1.009577552E1
1.065512688E1,1.185763440E0,1.077996888E1,4.589175510E-1,1.085469342E1
1.066516687E1,1.035220003E0,1.153578231E1,3.045528120E-1,1.158614286E1
1.067520588E1,1.073128818E0,1.244447237E1,2.820480484E-1,1.249384045E1
1.068524588E1,1.039854506E0,1.293456493E1,3.665221151E-1,1.298147164E1
1.069528487E1,9.135831530E-1,1.327093186E1,2.859387126E-1,1.330541347E1
1.070532488E1,1.006463762E0,1.403930511E1,-7.663492396E-2,1.407554370E1
1.071536388E1,1.128829248E0,1.454827483E1,-8.595458172E-1,1.461729712E1
1.072540387E1,8.486377633E-1,1.437088434E1,-1.555710781E0,1.447973546E1
1.073544288E1,7.523217693E-2,1.314311407E1,-2.257029335E0,1.333571478E1
1.074548288E1,-2.943892548E-1,1.065943788E1,-2.800016983E0,1.102498871E1
1.075552287E1,1.266544917E-1,8.793438755E0,-3.165748628E0,9.346794684E0
1.076556188E1,8.401251675E-1,7.948554685E0,-3.412730924E0,8.690918492E0
1.077560188E1,1.257385985E0,7.112585279E0,-2.983186861E0,7.814684428E0
1.078564087E1,1.654100271E0,6.368857455E0,-2.309507949E0,6.973680517E0
1.079568088E1,1.954376283E0,6.226673051E0,-1.277495583E0,6.650040519E0
1.080571988E1,1.987407935E0,6.047019689E0,-1.099644917E0,6.459524469E0
1.081575987E1,2.041376128E0,5.264920097E0,-1.402934146E0,5.818489868E0
1.082579888E1,1.767567976E0,3.426382418E0,-1.536096881E0,4.150179111E0
1.083583888E1,1.153215353E0,-1.803977126E-1,-1.657269316E0,2.027064520E0
1.084587787E1,-3.547100817E-1,-7.518918820E0,-3.365327547E0,8.245325279E0
1.085591788E1,-3.570779409E0,-1.962070400E1,-5.056649877E0,2.057406618E1
1.086595688E1,-8.045407380E0,-3.386293323E1,-6.760078282E0,3.545596544E1
1.087599687E1,-7.830647335E0,-4.146466441E1,1.364990394E0,4.221967114E1
1.088603588E1,3.603127960E0,-2.997631471E1,2.351204707E1,3.826719656E1
1.089607538E1,9.667062474E0,-1.590252272E1,1.829932916E1,2.609995735E1
1.090611438E1,4.361918212E0,-1.285054980E1,-1.716648960E0,1.367881005E1
1.091615438E1,2.724091473E0,-1.138495104E1,-6.668196305E0,1.347229107E1
1.092619438E1,3.143768067E0,-1.050761727E1,-3.340269889E0,1.146519521E1
1.093623338E1,1.997125423E0,-1.059199727E1,-1.025676543E0,1.082732323E1
1.094627338E1,9.469996981E-1,-9.649490422E0,-2.714523089E-1,9.699647426E0
1.095631238E1,-2.215751208E-1,-7.147118935E0,-2.505272291E0,7.576727120E0
1.096635237E1,-2.637667871E0,-4.297780103E0,-5.428355622E0,7.409132903E0
1.097639138E1,-4.155199842E0,-2.344042336E0,-6.142048638E0,7.777209118E0
1.098643138E1,-4.743236779E0,-5.701719385E-1,-4.876515289E0,6.826697045E0
1.099647038E1,-4.515800848E0,1.091662883E0,-2.047428288E0,5.077021543E0
1.100651038E1,-3.607905135E0,2.233134103E0,1.540524977E0,4.514098425E0
1.101654938E1,-1.687064680E0,2.883372551E0,5.647812735E0,6.561845258E0
1.102658938E1,5.453108932E-1,4.019135134E0,8.415467134E0,9.341889438E0
1.103662838E1,1.872732196E0,5.286041409E0,7.307536712E0,9.211376252E0
1.104666838E1,2.497900706E0,5.935410376E0,4.481108440E0,7.845313067E0
1.105670738E1,2.980022932E0,7.333986592E0,3.130940738E0,8.512971626E0
1.106674738E1,3.992032120E0,7.716816080E0,2.393729635E0,9.011964959E0
1.107678738E1,4.028614056E0,7.655746005E0,1.386474234E0,8.761420484E0
1.108682638E1,3.776796112E0,8.103439826E0,4.458478546E-1,8.951463913E0
1.109686638E1,3.264656035E0,8.836782995E0,-5.463164681E-1,9.436375067E0
1.110690538E1,2.643399897E0,9.547913176E0,-1.337388613E0,9.996940399E0
1.111694538E1,2.250763751E0,9.898989944E0,-1.807495980E0,1.031130356E1
1.112698438E1,1.780702869E0,9.900199149E0,-1.982590853E0,1.025258564E1
1.113702438E1,1.278560945E0,9.373411211E0,-2.153360540E0,9.702191373E0
1.114706338E1,1.202781031E0,9.322249829E0,-2.252392493E0,9.665624450E0
1.115710338E1,1.622946160E0,9.981370196E0,-1.800475813E0,1.027148570E1
1.116714238E1,1.703814176E0,1.070848900E1,-1.900769595E0,1.100852599E1
1.117718238E1,1.328300285E0,1.095161740E1,-1.941111875E0,1.120134905E1
1.118722138E1,1.203975909E0,1.117835137E1,-1.281718442E0,1.131582518E1
1.119726138E1,8.358135769E-1,1.048894945E1,6.805936825E-1,1.054418572E1
1.120730038E1,2.271991190E-1,8.933616979E0,3.383501862E0,9.555585624E0
1.121734038E1,-5.937541978E-1,7.305042289E0,5.627634578E0,9.240479308E0
1.122737938E1,-1.370366909E0,5.010213629E0,6.478920180E0,8.304008235E0
1.123741938E1,-4.953261164E-1,1.943614483E0,3.425733962E0,3.969715153E0
1.124745938E1,6.948845699E-1,-2.338681024E0,-2.904359962E0,3.793099034E0
1.125749838E1,-6.282592021E-1,-8.027218446E0,-7.806645100E0,1.121492993E1
1.126753838E1,-3.499415019E0,-1.621240878E1,-1.191965202E1,2.042464707E1
1.127757738E1,-6.495749636E0,-2.694160277E1,-1.231560675E1,3.032686751E1
1.128761738E1,-5.617040008E0,-3.160862344E1,1.832008678E0,3.215606428E1
1.129765638E1,4.412332320E-1,-2.375915274E1,2.317037555E1,3.318973228E1
1.130769638E1,2.399412837E0,-1.613467122E1,9.647648549E0,1.895156774E1
1.131773538E1,1.542377960E0,-1.237001860E1,-6.643505268E0,1.412559564E1
1.132777538E1,2.615565688E0,-7.534295243E0,-3.921586035E0,8.887385764E0
1.133781438E1,1.484774992E0,-4.819537096E0,-2.917012167E-1,5.051493264E0
1.134785438E1,3.590652341E-1,-6.187629438E0,-7.660542476E-1,6.245200158E0
1.135789338E1,1.054099054E0,-7.231073257E0,-1.418034580E0,7.443814032E0
1.136793338E1,1.434126995E0,-7.520965930E0,-1.877128133E0,7.883226420E0
1.137797338E1,1.500372294E0,-6.505810356E0,-2.563754972E0,7.151889608E0
1.138801238E1,9.774933663E-1,-4.364879242E0,-1.994527944E0,4.897530581E0
1.139805238E1,-3.420730792E-1,-1.171920011E0,-3.914839518E-1,1.282057014E0
1.140809138E1,-1.117659604E0,1.768596209E0,1.250562138E0,2.437416912E0
1.141813138E1,-1.216917990E0,3.686370091E0,2.539741042E0,4.639019121E0
1.142817038E1,-4.305072458E-1,4.706723841E0,3.031239864E0,5.614890997E0
1.143821038E1,5.154509170E-1,4.904422295E0,2.396103605E0,5.482732912E0
1.144824938E1,8.338652846E-1,4.831915652E0,1.286508481E0,5.069304119E0
1.145828938E1,1.054577649E0,4.972288588E0,7.418824428E-1,5.136747744E0
1.146832838E1,1.520563460E0,5.612476841E0,1.086181703E0,5.915386735E0
1.147836838E1,1.798543747E0,6.723401037E0,1.588247028E0,7.138726059E0
1.148840738E1,2.062982321E0,7.111106519E0,1.728658556E0,7.603419782E0
1.149844738E1,1.891537280E0,8.033952684E0,1.065235223E0,8.322081176E0
1.150848738E1,1.992729486E0,8.786571200E0,1.664941667E-1,9.011244341E0
1.151852638E1,2.011049982E0,9.676680560E0,-4.802545891E-1,9.895105515E0
1.152856638E1,1.857399919E0,1.025379665E1,-8.744955397E-1,1.045729519E1
1.153860538E1,1.981921347E0,1.072672413E1,-1.309798526E0,1.098663711E1
1.154864538E1,1.848590797E0,1.080868338E1,-1.914337474E0,1.113146946E1
1.155868438E1,2.224956480E0,1.054730349E1,-1.916840082E0,1.094853041E1
1.156872438E1,3.210601742E0,1.035370919E1,-9.318040272E-1,1.088005130E1
1.157876338E1,3.894241531E0,1.019238685E1,-3.968884601E-1,1.091821356E1
1.158880338E1,3.015598854E0,9.901241122E0,4.405415064E-1,1.035965680E1
1.159884238E1,6.711765955E-1,9.779015020E0,1.435284451E0,9.906546029E0
1.160888238E1,-3.920718163E-1,9.428849832E0,2.898186471E0,9.872001534E0
1.161892138E1,-1.202952062E0,7.852669703E0,4.482601234E0,9.121690028E0
1.162896138E1,-1.524680046E0,5.887643886E0,4.638801999E0,7.649018484E0
1.163900038E1,-3.641083114E-1,3.963483090E0,1.774516222E0,4.357829837E0
1.164904038E1,9.015690252E-1,8.921266490E-1,-1.684128647E0,2.108318279E0
1.165908038E1,2.348590154E0,-4.704070959E0,-3.324451416E0,6.220621875E0
1.166911938E1,2.601168966E0,-1.349194609E1,-2.525311868E0,1.397053647E1
1.167915938E1,9.899868196E-1,-2.549173654E1,-2.506429455E0,2.563378423E1
1.168919838E1,-3.369545143E0,-3.607996586E1,-1.458613672E0,3.626631115E1
1.169923838E1,-8.292141169E0,-2.986623503E1,6.686763554E0,3.170905875E1
1.170927738E1,-4.032838961E0,-1.855373216E1,8.638032042E0,2.085953894E1
1.171931738E1,-1.255328057E0,-1.622570535E1,1.077744756E0,1.630984047E1
1.172935638E1,-1.218493595E0,-1.612733764E1,-2.393582578E-1,1.617507460E1
1.173939638E1,-1.337715764E0,-1.552201633E1,2.633535644E0,1.580056912E1
1.174943538E1,-1.546410492E0,-1.407544091E1,3.571692744E0,1.460364376E1
1.175947538E1,-1.890349857E0,-1.143897815E1,2.204753327E0,1.180188887E1
1.176951438E1,-2.682687923E0,-7.407644552E0,2.249410705E-1,7.881662946E0
1.177955438E1,-2.845191402E0,-3.054518799E0,-9.315797134E-1,4.277036353E0
1.178959338E1,-1.992820849E0,6.861356735E-1,-1.591696447E0,2.641138898E0
1.179963338E1,-1.187926033E0,3.960510365E0,-1.957354855E0,4.574718422E0
1.180967338E1,1.830865547E-1,5.566855695E0,-1.746416404E0,5.837240210E0
1.181971238E1,1.451968896E0,6.230515257E0,-1.553562368E0,6.583395026E0
1.182975238E1,2.591355292E0,6.375706299E0,-1.309977450E0,7.005768622E0
1.183979138E1,3.162971200E0,6.570050206E0,-7.791508412E-1,7.333281840E0
1.184983138E1,3.231357896E0,6.807543055E0,3.926580727E-2,7.535639197E0
1.185987038E1,3.286559705E0,7.158436806E0,7.482260871E-1,7.912302729E0
1.186991038E1,3.260349560E0,7.811338075E0,8.826798874E-1,8.510346971E0
1.187994938E1,2.855659672E0,8.668067434E0,8.850157770E-1,9.169156893E0
1.188998938E1,1.990198811E0,9.449010447E0,9.052038737E-1,9.698664021E0
1.190002871E1,7.083241028E-1,9.889862441E0,8.034360089E-1,9.947693781E0
1.191006871E1,-1.903502584E-1,1.016826124E1,5.702373543E-1,1.018601691E1
1.192010771E1,-4.147522156E-1,1.073520493E1,1.136236793E-1,1.074381472E1
1.193014771E1,-4.150591944E-1,1.130436823E1,-4.159838585E-1,1.131963152E1
1.194018771E1,-3.545807120E-1,1.190134439E1,-8.762964821E-1,1.193882830E1
1.195022671E1,-6.720216644E-1,1.197505088E1,-1.329798342E0,1.206738664E1
1.196026671E1,-1.112786242E0,1.117567569E1,-1.592105021E0,1.134322788E1
1.197030571E1,-1.205537993E0,1.058287444E1,-2.052698969E0,1.084730964E1
1.198034571E1,-1.031386130E0,1.036793664E1,-2.425985801E0,1.069781635E1
1.199038471E1,-6.446363761E-1,9.783096961E0,-2.710651647E0,1.017212734E1
1.200042471E1,1.020822988E-1,8.959383320E0,-2.808497785E0,9.389815231E0
1.201046371E1,1.151588657E0,8.448431396E0,-2.713508597E0,8.947920340E0
1.202050371E1,2.110664172E0,8.120367515E0,-2.540255013E0,8.766308650E0
1.203054271E1,2.785458878E0,8.365550623E0,-2.705467506E0,9.222839737E0
1.204058271E1,3.605675884E0,8.117777783E0,-2.670582433E0,9.275301895E0
1.205062171E1,4.351249674E0,6.311086380E0,-8.854600923E-1,7.716684819E0
1.206066171E1,4.243194591E0,2.381028314E0,2.162295086E0,5.324426373E0
1.207070171E1,3.102598991E0,-3.085982666E0,7.352105944E0,8.555867654E0
1.208074071E1,1.662253482E0,-9.910941653E0,1.087159241E1,1.480477533E1
1.209078071E1,7.171478435E-2,-1.979794013E1,5.479847957E0,2.054245141E1
1.210081971E1,-4.386499614E0,-3.559163915E1,-4.390805796E0,3.612873277E1
1.211085971E1,-7.956101686E0,-4.478949882E1,-5.391114120E0,4.580898242E1
1.212089871E1,-5.461647913E0,-2.874755509E1,8.566410667E0,3.048991494E1
1.213093871E1,-4.069994508E0,-1.765498471E1,1.050373004E1,2.094258067E1
1.214097771E1,-5.524900169E0,-1.519763152E1,-6.800851209E-1,1.618502522E1
1.215101771E1,-3.671083131E0,-1.376899067E1,-3.627717256E0,1.470449890E1
1.216105671E1,-1.391989181E0,-1.240698821E1,-6.662902236E-2,1.248500820E1
1.217109671E1,3.191840073E-1,-1.143934769E1,2.885068243E0,1.180187158E1
1.218113671E1,1.751333328E0,-9.636200870E0,1.798091172E0,9.957744097E0
1.219117571E1,1.999735328E0,-7.123578629E0,-9.067395718E-1,7.454293429E0
1.220121571E1,4.996909167E-1,-3.993848850E0,-2.190603211E0,4.582495180E0
1.221125471E1,-1.459996393E0,4.275396377E-1,-2.455321282E0,2.888422096E0
1.222129471E1,-2.259658535E0,4.328666266E0,-1.708090537E0,5.173101740E0
1.223133371E1,-3.150171353E-1,6.580628988E0,-4.230922455E-1,6.601736190E0
1.224137371E1,1.613200313E0,7.830395905E0,1.986469457E-1,7.997310541E0
1.225141271E1,2.456758820E0,8.644322476E0,-1.384035945E-3,8.986655490E0
1.226145271E1,3.627031670E0,8.551955765E0,-6.388726294E-1,9.311254715E0
1.227149171E1,4.554451820E0,8.382880601E0,-1.105580353E0,9.604063019E0
1.228153171E1,4.553982581E0,8.949212088E0,-1.127958890E0,1.010442703E1
1.229157071E1,4.095776344E0,9.828914573E0,-9.587007076E-1,1.069121380E1
1.230161071E1,3.557164167E0,1.059935072E1,-8.590898806E-1,1.121328177E1
1.231165071E1,2.839172278E0,1.088367743E1,-5.316113055E-1,1.126045933E1
1.232168971E1,2.286736699E0,1.103359303E1,-1.206590492E-1,1.126871325E1
1.233172971E1,2.012089325E0,1.129906831E1,1.680478084E-1,1.147805246E1
1.234176871E1,1.641009817E0,1.156257659E1,5.762770164E-1,1.169265521E1
1.235180871E1,9.870962486E-1,1.129281647E1,1.149453254E0,1.139400305E1
1.236184771E1,3.476204789E-1,1.052932798E1,1.460907535E0,1.063587507E1
1.237188771E1,-2.069959657E-1,9.830142488E0,7.584177840E-1,9.861528594E0
1.238192671E1,-7.091995771E-1,9.143702175E0,-4.222421334E-1,9.180879148E0
1.239196671E1,-9.321147336E-1,8.695750492E0,-1.411088673E0,8.858672911E0
1.240200571E1,-1.210885271E0,8.334387887E0,-2.199351815E0,8.704333001E0
1.241204571E1,-1.273019978E0,8.192118698E0,-2.762281977E0,8.738511907E0
1.242208471E1,-1.142612889E0,8.415219212E0,-3.246792791E0,9.091927300E0
1.243212471E1,-7.704870949E-1,8.406209822E0,-3.150026050E0,9.010032078E0
1.244216471E1,-2.678811950E-1,8.631236992E0,-2.830058223E0,9.087312138E0
1.245220371E1,2.390149532E-1,8.999902185E0,-2.337699276E0,9.301623804E0
1.246224371E1,6.850956000E-1,9.079320238E0,-1.793483128E0,9.280085866E0
1.247228271E1,1.314527900E0,6.510751837E0,-6.334195161E-1,6.672262987E0
1.248232271E1,2.184790348E0,2.195809572E0,1.733173776E0,3.549476000E0
1.249236171E1,2.656806977E0,-3.409647102E0,5.566783774E0,7.047935745E0
1.250240171E1,1.032042187E0,-1.003593407E1,6.476647952E0,1.198883032E1
1.251244071E1,-2.231472909E0,-1.768469792E1,-1.087400921E0,1.785806408E1
1.252248071E1,-6.946302745E0,-2.991656319E1,-1.158809735E1,3.282584157E1
1.253251971E1,-9.645573957E0,-3.845232158E1,-1.185981512E1,4.137962478E1
1.254255971E1,-4.102200680E0,-3.254003109E1,6.291053819E0,3.339549419E1
1.255259971E1,3.381659989E0,-2.407115783E1,2.001359246E1,3.148650738E1
1.256263871E1,1.985122697E0,-1.574426198E1,4.957762350E0,1.662533925E1
1.257267871E1,2.949486872E-1,-1.046359826E1,-6.593274177E0,1.237114173E1
1.258271771E1,1.434779252E0,-8.528397333E0,-3.250994015E0,9.239107893E0
1.259275771E1,1.993072864E0,-8.183877633E0,1.294230899E0,8.521926200E0
1.260279671E1,3.496396394E0,-7.488206320E0,1.842659381E0,8.467196421E0
1.261283671E1,3.770521465E0,-5.983825321E0,-1.803170941E-1,7.074992003E0
1.262287571E1,1.495022822E0,-4.297618135E0,-3.430749119E0,5.698653735E0
1.263291571E1,-7.217938949E-1,-1.891114672E0,-4.963375677E0,5.360261117E0
1.264295471E1,-1.936263656E0,3.607527405E-1,-3.739680911E0,4.226638475E0
1.265299471E1,-2.333268256E0,2.114207000E0,-8.677741653E-1,3.266044089E0
1.266303471E1,-1.466758551E0,3.479132490E0,1.830573771E0,4.196039068E0
1.267307371E1,4.456394014E-1,4.361411258E0,3.779343744E0,5.788258959E0
1.268311371E1,1.516740405E0,4.864412137E0,4.436073185E0,6.755867983E0
1.269315271E1,1.551120863E0,5.511111850E0,3.897186774E0,6.925777538E0
1.270319271E1,1.686829476E0,6.114277287E0,3.292222148E0,7.146223275E0
1.271323171E1,1.403324301E0,7.411061080E0,2.842613364E0,8.060620086E0
1.272327171E1,1.028066373E0,8.851823203E0,3.484937021E0,9.568515064E0
1.273331071E1,9.430996053E-1,9.715605474E0,3.649765937E0,1.042128677E1
1.274335071E1,9.920273517E-1,1.006273303E1,2.634079435E0,1.044897549E1
1.275338971E1,1.135442156E0,9.713084155E0,1.112497682E0,9.842300736E0
1.276342971E1,9.259554228E-1,9.883445706E0,-5.102736827E-1,9.939832579E0
1.277346971E1,1.126316991E0,9.900917187E0,-1.756915226E0,1.011847331E1
1.278350871E1,1.829105974E0,1.000474853E1,-2.743789573E0,1.053418260E1
1.279354871E1,2.288723144E0,9.729295560E0,-3.289797308E0,1.052236723E1
1.280358771E1,2.279773688E0,9.375847161E0,-3.499417065E0,1.026400496E1
1.281362771E1,2.777587941E0,9.294429361E0,-3.583667842E0,1.034137743E1
1.282366671E1,3.210746461E0,9.100303556E0,-3.216013632E0,1.017188091E1
1.283370671E1,2.682606062E0,8.621445830E0,-2.424962538E0,9.349125456E0
1.284374571E1,2.311966996E0,8.824618447E0,-1.828928949E0,9.303981042E0
1.285378571E1,1.989480042E0,9.132884826E0,-1.557868404E0,9.475999686E0
1.286382471E1,1.623251384E0,9.289087930E0,-1.027384441E0,9.485653294E0
1.287386471E1,1.121200093E0,9.405735789E0,-7.957515981E-1,9.505691768E0
1.288390471E1,5.149664752E-1,9.142215228E0,-2.713225007E-1,9.160726262E0
1.289394371E1,-1.088741907E0,6.047076407E0,3.749938096E0,7.198230876E0
1.290398363E1,-1.868255129E0,1.715568395E0,9.123410583E0,9.469433605E0
1.291402263E1,-1.079486495E0,-3.119480780E0,8.009215454E0,8.662793061E0
1.292406263E1,-1.518157916E-1,-9.820388163E0,1.477629987E0,9.932092533E0
1.293410162E1,-1.403397976E0,-1.992454872E1,-6.013871824E0,2.085962180E1
1.294414163E1,-6.910121929E0,-3.434110917E1,-1.144617958E1,3.685209073E1
1.295418063E1,-7.632738966E0,-3.711526450E1,-2.621349462E0,3.798253594E1
1.296422062E1,1.416048135E0,-2.460906191E1,1.504881052E1,2.888040545E1
1.297425963E1,5.053802868E0,-2.065504839E1,6.010154749E0,2.209737331E1
1.298429963E1,2.082716966E0,-1.680650928E1,-5.495344248E0,1.780436105E1
1.299433963E1,1.766302346E0,-1.395998997E1,-1.468859602E0,1.414774514E1
1.300437863E1,6.732747227E-1,-1.330360844E1,4.745482695E0,1.414068253E1
1.301441863E1,-1.042077617E0,-1.203899837E1,5.814343191E0,1.341007063E1
1.302445762E1,-1.800790978E0,-8.885181568E0,2.788724840E0,9.485055924E0
1.303449763E1,-1.163670467E0,-5.294683009E0,3.876201117E-1,5.434891579E0
1.304453663E1,-7.252652407E-1,-2.188310518E0,-1.103025924E0,2.555656233E0
1.305457662E1,-4.096483272E-1,5.374883419E-1,-1.373467687E0,1.530724978E0
1.306461563E1,1.084755567E0,1.471723130E0,-1.053936882E1,1.069677328E1
1.307465563E1,-1.296283856E-2,4.147779141E0,-3.063094910E0,5.156237995E0
1.308469462E1,3.369545143E0,5.541717930E0,6.673689179E0,9.306051760E0
1.309473463E1,1.821789791E0,5.092648260E0,6.196372780E0,8.224902429E0
1.310477463E1,-9.021696804E-1,6.834761260E0,1.367923942E0,7.028448443E0
1.311481362E1,2.328509938E0,9.116113842E0,5.518005717E-1,9.424965463E0
1.312485363E1,4.804558868E0,1.022721287E1,8.670596355E-1,1.133276054E1
1.313489263E1,4.765829251E0,1.143909509E1,9.548900040E-1,1.242891145E1
1.314493263E1,3.175658781E0,1.145862947E1,4.293329787E-1,1.189829084E1
1.315497163E1,1.041411327E0,1.115116182E1,-9.271959827E-1,1.123799982E1
1.316501163E1,-5.406595793E-1,1.138159825E1,-2.664348131E0,1.170178800E1
1.317505062E1,-7.987673727E-1,1.181210886E1,-2.714552910E0,1.214630571E1
1.318509063E1,-1.151060508E0,1.193587921E1,-2.671481735E0,1.228523372E1
1.319512963E1,-1.613722470E0,1.154116994E1,-2.591405286E0,1.193809386E1
1.320516962E1,-2.064571886E0,1.081575851E1,-2.574568228E0,1.130802772E1
1.321520963E1,-2.521387217E0,9.974420196E0,-2.672209713E0,1.062954169E1
1.322524863E1,-2.638404036E0,9.694221037E0,-2.731322140E0,1.041149451E1
1.323528863E1,-2.329042035E0,9.411245620E0,-2.723301514E0,1.007037001E1
1.324532763E1,-1.492016623E0,9.032557715E0,-2.715716506E0,9.549258014E0
1.325536763E1,-8.542907783E-1,8.717840104E0,-2.573060231E0,9.129687166E0
1.326540662E1,2.357334226E-2,8.682856797E0,-2.280235180E0,8.977306407E0
1.327544663E1,1.155865311E0,8.520557386E0,-1.712853971E0,8.767541931E0
1.328548563E1,2.030694434E0,8.385976117E0,-1.159347328E0,8.705883157E0
1.329552562E1,2.390619355E0,8.712026802E0,-9.953428692E-1,9.088739149E0
1.330556563E1,2.348138456E0,9.159280327E0,-9.367678016E-1,9.501773741E0
1.331560463E1,2.265784517E0,5.470498259E0,5.304950720E-1,5.944876424E0
1.332564463E1,2.304762349E0,-3.723108147E0,7.395554264E0,8.594631268E0
1.333568363E1,1.705899146E0,-1.328314319E1,1.867914675E1,2.298396198E1
1.334572363E1,2.521624614E0,-2.070948596E1,1.077647926E1,2.348135228E1
1.335576262E1,1.409055157E0,-3.055279171E1,-7.148946775E0,3.140964752E1
1.336580263E1,-4.294322352E0,-3.872134963E1,-1.516999056E1,4.180804630E1
1.337584163E1,-7.416422392E0,-3.132386637E1,-7.561207053E0,3.306599126E1
1.338588162E1,-1.881246180E0,-2.165244538E1,3.140300961E0,2.195971239E1
1.339592063E1,4.491448656E0,-1.706036731E1,8.217620745E0,1.946171972E1
1.340596063E1,4.532479153E0,-1.383671313E1,8.055442371E0,1.663995641E1
1.341600063E1,1.472199532E0,-1.248095432E1,4.683049049E0,1.341165689E1
1.342603963E1,4.148172659E-1,-1.115809545E1,1.868423383E0,1.132105001E1
1.343607963E1,5.556493552E-1,-8.284860801E0,6.312361658E-1,8.327432005E0
1.344611862E1,3.317024575E-1,-4.843794855E0,1.885352461E-1,4.858798273E0
1.345615863E1,5.399025111E-1,-1.709068630E0,9.179742658E-1,2.013724672E0
1.346619763E1,1.365507142E0,1.129810118E0,1.003063533E0,2.036471730E0
1.347623763E1,1.680079889E0,3.591651045E0,-5.227288367E-1,3.999483854E0
1.348627663E1,-6.848419771E-2,4.939212644E0,-2.370385796E0,5.478981698E0
1.349631663E1,1.451618210E0,6.787575399E0,5.949004567E0,9.141609845E0
1.350635663E1,-1.306936167E0,7.613205172E0,9.560616252E0,1.229123095E1
1.351639563E1,-2.366882876E0,5.278990837E0,-1.017434001E1,1.170414770E1
1.352643563E1,2.858304660E-1,8.289027527E0,-9.032281727E0,1.226261757E1
1.353647462E1,2.540736531E0,1.178646063E1,-3.329647837E0,1.250849915E1
1.354651463E1,4.766362225E0,1.251472900E1,-2.895289176E0,1.370107114E1
1.355655363E1,6.155210720E0,1.255721136E1,-2.842630321E0,1.427062449E1
1.356659363E1,4.768655210E0,1.284265606E1,-4.200112891E0,1.432881138E1
1.357663263E1,1.294284254E0,1.235449190E1,-4.579569705E0,1.323937690E1
1.358667263E1,9.587635651E-2,1.144465462E1,-4.143727605E0,1.217209063E1
1.359671263E1,-1.515900891E-1,1.127606770E1,-3.335780396E0,1.176010686E1
1.360675163E1,1.250340821E-1,1.193293221E1,-2.627865014E0,1.221949996E1
1.361679163E1,1.528390543E-1,1.149988859E1,-2.903517963E0,1.186175425E1
1.362683062E1,1.250506005E-1,9.659796140E0,-3.256326676E0,1.019465362E1
1.363687063E1,8.172340491E-1,8.614133887E0,-3.147894740E0,9.207628109E0
1.364690963E1,1.440918974E0,8.802497261E0,-3.086132355E0,9.438454240E0
1.365694963E1,1.678636357E0,9.203634381E0,-2.824214516E0,9.772455857E0
1.366698863E1,1.897366515E0,9.380142526E0,-2.553956208E0,9.905037396E0
1.367702863E1,2.229041930E0,8.955361605E0,-2.145474401E0,9.474713178E0
1.368706762E1,2.938468817E0,7.183621933E0,-1.009794920E0,7.826794289E0
1.369710763E1,3.492898589E0,5.239101716E0,6.243352818E-1,6.327584207E0
1.370714763E1,3.295036413E0,2.494874772E0,4.204883634E0,5.895991135E0
1.371718662E1,2.042394567E0,-1.500072185E0,1.054655271E1,1.084672144E1
1.372722663E1,1.155236589E0,-6.844866418E0,1.187053541E1,1.375123190E1
1.373726563E1,6.515021767E-1,-1.627081194E1,3.153838434E0,1.658645451E1
1.374730563E1,-3.347145630E0,-2.649327570E1,-3.650018536E0,2.695217387E1
1.375734463E1,-9.767191949E0,-3.392617905E1,-7.305937498E0,3.605218976E1
1.376738463E1,-1.042055690E1,-3.164226598E1,1.843901914E0,3.336496630E1
1.377742362E1,-1.439572799E0,-2.154690782E1,1.144290631E1,2.443934760E1
1.378746363E1,4.943660036E-1,-1.934411433E1,7.705885879E0,2.082834209E1
1.379750363E1,-1.414072361E0,-1.842370646E1,2.808779036E0,1.869015248E1
1.380754262E1,-1.645619762E0,-1.669485319E1,7.090322006E-1,1.679073894E1
1.381758263E1,-5.067565459E-1,-1.241097718E1,-3.170449497E-1,1.242536415E1
1.382762163E1,1.776364673E0,-8.713296232E0,2.193120876E0,9.158972751E0
1.383766163E1,3.391761639E0,-7.286339970E0,2.233152084E0,8.341568522E0
1.384770063E1,4.626453849E0,-5.361785071E0,1.083571506E0,7.164282349E0
1.385774063E1,4.908668543E0,-3.296140952E0,1.052563575E0,6.005619212E0
1.386777962E1,4.158020832E0,-1.495934696E0,9.919145004E-1,4.528890838E0
1.387781963E1,3.243632078E0,-2.089122444E-1,-1.243478821E0,3.480090942E0
1.388785963E1,-1.670820677E0,1.654501829E0,-2.335471341E0,3.314128003E0
1.389789883E1,-3.374371435E0,6.002602485E0,2.600846785E0,7.360843917E0
1.390793883E1,-3.865680807E0,4.640251524E0,4.957000458E-1,6.059797096E0
1.391797783E1,-3.687437793E0,5.277754151E0,-4.621331103E0,7.925186908E0
1.392801783E1,2.803258680E0,8.997478514E0,-4.713576778E0,1.053710989E1
1.393805683E1,2.600677800E0,8.710767311E0,-4.232610546E0,1.002776068E1
1.394809683E1,3.413765296E-1,8.736831860E0,-4.188108557E0,9.694793560E0
1.395813583E1,-4.740672483E-1,9.227827236E0,-4.099390508E0,1.010853787E1
1.396817583E1,-1.288898530E0,1.000910471E1,-3.863139022E0,1.080589097E1
1.397821583E1,-1.438727146E0,1.094962818E1,-3.927434128E0,1.172130675E1
1.398825483E1,-1.060889133E0,1.180157452E1,-3.824443903E0,1.245106493E1
1.399829483E1,-5.194629841E-1,1.269838303E1,-3.740553900E0,1.324803823E1
1.400833383E1,-3.540588480E-1,1.367462363E1,-3.639360816E0,1.415505691E1
1.401837383E1,-1.024679373E0,1.403393269E1,-3.638393687E0,1.453406837E1
1.402841283E1,-2.226271373E0,1.277870623E1,-3.679161059E0,1.348287222E1
1.403845283E1,-1.933133203E0,1.090140502E1,-3.695822700E0,1.167204956E1
1.404849183E1,-3.968939419E-1,1.018357042E1,-2.988777968E0,1.062051906E1
1.405853183E1,1.081395757E0,9.622906641E0,-2.664344623E0,1.004333019E1
1.406857083E1,2.018363534E0,8.918559229E0,-2.332682950E0,9.436943352E0
1.407861083E1,3.005995387E0,7.996092548E0,-8.435776560E-1,8.584004168E0
1.408865083E1,3.901045936E0,7.012306700E0,1.222920595E0,8.117027747E0
1.409868983E1,5.172793121E0,6.140151801E0,5.094022940E0,9.508329114E0
1.410872983E1,6.763380790E0,5.267449602E0,8.169288830E0,1.184173235E1
1.411876883E1,6.643126368E0,4.449722925E0,4.526526688E0,9.188068671E0
1.412880883E1,4.311850843E0,3.663583492E0,5.214633165E-1,5.682061746E0
1.413884783E1,3.029008566E0,3.473098163E0,-2.460654527E-1,4.614959583E0
1.414888783E1,-7.347427002E-1,-3.220798409E-1,4.870709004E0,4.936333504E0
1.415892683E1,-4.674306000E0,-6.244523431E0,4.700255651E0,9.106899179E0
1.416896683E1,-5.078847662E0,-1.665907758E1,-1.003037454E1,2.009795942E1
1.417900683E1,-8.560188060E0,-3.138152460E1,-1.890270685E1,3.762165908E1
1.418904583E1,-8.855677103E0,-4.064378082E1,-9.780817716E0,4.273177192E1
1.419908583E1,-1.535111625E0,-3.965499327E1,1.548582090E1,4.259912801E1
1.420912483E1,1.268490578E0,-2.893434790E1,1.435888936E1,3.232620084E1
1.421916483E1,1.030084540E0,-1.650368198E1,-4.843260127E0,1.723048930E1
1.422920383E1,8.084848604E-1,-9.669817098E0,-3.184638058E0,1.021278268E1
1.423924383E1,-5.493622828E-1,-5.995227392E0,2.206633937E-1,6.024387332E0
1.424928283E1,-2.179969611E0,-4.141950637E0,9.125946812E-1,4.768736901E0
1.425932283E1,-1.845893476E0,-2.614156217E0,1.722066552E0,3.634095301E0
1.426936283E1,3.948104328E-1,-5.137217492E-1,2.405649915E0,2.491372479E0
1.427940183E1,2.766369181E0,1.250019516E0,1.799890507E0,3.529157558E0
1.428944183E1,3.934728237E0,2.156649014E0,4.372256966E-1,4.508257710E0
1.429948083E1,4.593816445E0,2.672169367E0,-9.798342991E-1,5.404046069E0
1.430952083E1,4.763247705E0,2.854969701E0,-1.642304975E0,5.791074712E0
1.431955983E1,3.876152585E0,3.278986976E0,-7.548486435E-1,5.132846279E0
1.432959983E1,2.784038297E0,4.086910796E0,7.499773282E-1,5.001617247E0
1.433963883E1,1.815157295E0,5.143029624E0,1.720181263E0,5.718791244E0
1.434967883E1,8.731196898E-1,5.647571245E0,2.845417689E0,6.383870361E0
1.435971883E1,-7.527527091E-1,6.286994682E0,2.636289098E0,6.858786990E0
1.436975783E1,-2.129831052E0,7.759204300E0,1.220374133E0,8.138227369E0
1.437979783E1,-1.927986337E0,8.748894666E0,-1.129278606E-1,8.959522414E0
1.438983683E1,-1.409487705E0,9.240619190E0,-1.352883880E0,9.444892450E0
1.439987683E1,-8.356726590E-1,9.661090128E0,-2.335416523E0,9.974426379E0
1.440991583E1,-5.320871226E-1,9.889386477E0,-2.609624625E0,1.024173922E1
1.441995583E1,-6.770391601E-1,1.006656179E1,-2.105246288E0,1.030660517E1
1.442999483E1,-8.715865499E-1,1.023892952E1,-1.377214145E0,1.036783775E1
1.444003483E1,-5.677178621E-1,1.037102397E1,-9.214366946E-1,1.042734325E1
1.445007483E1,-2.774783032E-1,1.040155111E1,-1.397690948E0,1.049870467E1
1.446011383E1,1.194070141E-1,1.031078712E1,-2.372484362E0,1.058089180E1
1.447015383E1,6.152862771E-1,1.003394134E1,-3.237375850E0,1.056121009E1
1.448019283E1,1.219890568E0,9.802962291E0,-3.845669881E0,1.060072542E1
1.449023283E1,1.959717861E0,9.705563466E0,-4.142694402E0,1.073314368E1
1.450027183E1,2.628882137E0,9.678528280E0,-4.077856382E0,1.082653424E1
1.451031183E1,2.801535505E0,9.734373867E0,-3.801571934E0,1.081936158E1
1.452035083E1,2.647166673E0,9.929543985E0,-3.810683066E0,1.096013871E1
1.453039083E1,2.760280475E0,1.059259368E1,-4.302841453E0,1.176165948E1
1.454043083E1,2.899192193E0,9.751895049E0,-1.719735121E0,1.031805511E1
1.455046983E1,4.432873589E-1,3.558233623E0,1.485005665E1,1.527683582E1
1.456050983E1,-2.280219538E0,-3.006855805E0,1.809770313E1,1.848695328E1
1.457054883E1,-2.002538337E0,-1.025433927E1,1.574684265E0,1.056604298E1
1.458058883E1,-6.230363814E0,-2.249617989E1,-1.062537200E1,2.564749643E1
1.459062783E1,-1.515170164E1,-4.151692916E1,-1.646285555E1,4.716200889E1
1.460066783E1,-1.038151271E1,-4.215776997E1,4.030910257E0,4.360391739E1
1.461070683E1,8.709537350E-1,-2.865272962E1,1.692268059E1,3.328835523E1
1.462074683E1,3.939393146E0,-2.488237013E1,3.881551319E0,2.548955869E1
1.463078683E1,7.030603223E0,-2.031648291E1,-1.921727916E0,2.158429748E1
1.464082583E1,6.274257692E0,-1.622350562E1,4.667703617E-1,1.740075627E1
1.465086583E1,5.177486681E0,-1.286019186E1,4.699465107E0,1.463816502E1
1.466090483E1,2.980028195E0,-8.842920232E0,5.898427321E0,1.103944071E1
1.467094483E1,-1.058636640E0,-5.512563713E0,4.413588887E0,7.140646826E0
1.468098383E1,-2.541841362E0,-2.269813102E0,3.243513672E0,4.704613690E0
1.469102383E1,-2.235403262E0,9.115984619E-1,2.543226568E0,3.506571099E0
1.470106383E1,2.468764615E-1,2.389961105E0,1.605239621E0,2.889577186E0
1.471110283E1,2.972678245E0,3.777251610E0,1.112813432E0,4.933842256E0
1.472114283E1,4.459449184E0,4.798007063E0,2.166078380E-1,6.553966567E0
1.473118183E1,3.910095672E0,6.150977336E0,-1.321231002E0,7.407362669E0
1.474122183E1,2.636488780E0,7.804302705E0,-1.804335560E0,8.432902265E0
1.475126083E1,1.482663416E0,9.346368424E0,-2.117115989E0,9.697168331E0
1.476130083E1,2.462144105E-1,1.034769358E1,-2.652873555E0,1.068518236E1
1.477133983E1,-1.622331617E0,1.015924016E1,-3.188410097E0,1.077070468E1
1.478137983E1,-2.992327813E0,9.705985050E0,-3.591891366E0,1.077320078E1
1.479141983E1,-3.550285795E0,9.442187916E0,-3.248819436E0,1.059784269E1
1.480145883E1,-3.322455761E0,9.858711984E0,-1.787219006E0,1.055590195E1
1.481149883E1,-2.960480368E0,1.043656658E1,-5.966710813E-1,1.086473112E1
1.482153783E1,-3.200753277E0,1.080461723E1,-1.514218354E-1,1.126976058E1
1.483157783E1,-3.327907121E0,1.096806211E1,1.333779126E-1,1.146259752E1
1.484161683E1,-3.369406857E0,1.079700766E1,-6.980024515E-1,1.133205562E1
1.485165683E1,-3.082978367E0,1.044558766E1,-2.066308363E0,1.108533660E1
1.486169583E1,-1.551046019E0,1.004767528E1,-3.170170877E0,1.064948382E1
1.487173583E1,-5.640428871E-2,9.438648596E0,-4.122886959E0,1.029997406E1
1.488177583E1,1.127368467E0,8.858756247E0,-4.430040028E0,9.968639654E0
1.489181483E1,2.557653695E0,8.582234402E0,-3.904515089E0,9.769420547E0
1.490185500E1,3.664122605E0,8.383775225E0,-2.517457888E0,9.489524525E0
1.491189400E1,4.681997135E0,8.429422098E0,2.266725773E-1,9.645083439E0
1.492193400E1,4.889882609E0,8.342900848E0,3.471067425E0,1.027439806E1
1.493197300E1,4.396852694E0,7.992867808E0,4.893666927E0,1.035211212E1
1.494201300E1,4.211450642E0,7.463731045E0,4.527006744E0,9.692130193E0
1.495205200E1,4.732041408E0,7.072638856E0,2.950971041E0,9.006812220E0
1.496209200E1,6.553310797E0,5.070742251E0,4.658338131E0,9.505704788E0
1.497213200E1,3.207516459E0,9.721557355E-1,4.101690218E0,5.296896379E0
1.498217100E1,3.798898003E-1,-1.920931964E0,-1.032909476E0,2.213864913E0
1.499221100E1,-5.487696674E-1,-7.259677836E0,1.254311957E0,7.387649756E0
1.500225000E1,-4.022671530E0,-1.674310558E1,-7.840311613E0,1.892046397E1
1.501229000E1,-1.221309571E1,-2.945357597E1,-1.697057864E1,3.612026279E1
1.502232900E1,-1.667251565E1,-3.814999714E1,-7.512941211E0,4.230649295E1
1.503236900E1,-8.076243841E0,-3.767989270E1,1.248119054E1,4.050654448E1
1.504240800E1,-1.444725366E0,-2.923192674E1,1.134536422E1,3.138964896E1
1.505244800E1,-1.425177831E0,-1.793233335E1,1.561007774E-1,1.798955471E1
1.506248800E1,1.594286471E-1,-1.229883460E1,8.145551473E-1,1.232681021E1
1.507252700E1,3.017612343E0,-1.018603444E1,4.755421207E0,1.163938627E1
1.508256700E1,3.402357086E0,-7.068709527E0,5.461957816E0,9.559062261E0
1.509260600E1,3.091101319E-1,-3.652553889E0,3.485864974E0,5.058453677E0
1.510264600E1,-6.508825180E-1,-1.171851599E0,1.437169594E0,1.965283863E0
1.511268500E1,-2.667853537E-1,6.115444976E-1,7.398393526E-1,9.962546688E-1
1.512272500E1,7.488309816E-2,2.388105783E0,-2.338650911E-1,2.400697730E0
1.513276500E1,2.757198992E-1,4.732371483E0,-4.099541366E-1,4.758090343E0
1.514280400E1,5.791368896E-1,6.104225923E0,-1.602971486E0,6.337703941E0
1.515284400E1,1.658275622E0,7.101454520E0,-3.137115982E0,7.938641636E0
1.516288300E1,2.166642052E0,7.770492350E0,-3.398204101E0,8.753438196E0
1.517292300E1,1.323394179E0,8.287424805E0,-2.724720633E0,8.823654831E0
1.518296200E1,-4.794389391E-1,9.033024908E0,-7.449224833E-1,9.076359963E0
1.519300200E1,-2.748678722E0,9.084716048E0,1.229841214E0,9.570778955E0
1.520304100E1,-3.651635292E0,8.899542330E0,7.128825921E-1,9.645957473E0
1.521308100E1,-3.963167925E0,8.662013227E0,-1.055917246E0,9.583951919E0
1.522312100E1,-3.775878099E0,8.834916564E0,-2.009378117E0,9.815834479E0
1.523316000E1,-3.187269305E0,8.754603302E0,-1.611624781E0,9.455109679E0
1.524320000E1,-2.581603013E0,8.574475731E0,-8.488385421E-1,8.994822681E0
1.525323900E1,-1.960142807E0,8.482889038E0,-1.169101653E0,8.784552632E0
1.526327900E1,-1.009531723E0,8.600468944E0,-2.444481128E0,8.997928003E0
1.527331800E1,-4.009106867E-1,8.432130529E0,-2.997474532E0,8.958035957E0
1.528335800E1,7.222284892E-1,8.186997122E0,-3.260498080E0,8.841910630E0
1.529339800E1,1.230722097E0,8.056120064E0,-3.047757663E0,8.700837554E0
1.530343700E1,1.014316061E0,8.243917428E0,-2.866662378E0,8.786851815E0
1.531347700E1,1.215367455E0,8.617208353E0,-2.768306363E0,9.132191301E0
1.532351600E1,1.554941726E0,8.823664182E0,-3.079896592E0,9.474210066E0
1.533355600E1,1.597766587E0,8.893175297E0,-3.362428205E0,9.640920514E0
1.534359500E1,1.683854997E0,8.976420352E0,-3.223164485E0,9.685054428E0
1.535363500E1,2.122829450E0,9.163552303E0,-2.880812932E0,9.837488441E0
1.536367400E1,2.241831106E0,9.059523904E0,-2.321544004E0,9.617190164E0
1.537371400E1,2.229259446E0,8.545077685E0,-1.349938199E0,8.933660138E0
1.538375400E1,3.039656053E0,6.889742044E0,-1.511087170E-1,7.531990985E0
1.539379300E1,2.583341390E0,2.170467739E0,1.246721394E0,3.597067859E0
1.540383300E1,-1.621994233E0,-3.883983176E0,2.193956004E0,4.746539113E0
1.541387200E1,-6.703430457E0,-7.543575944E0,2.727525835E0,1.045375124E1
1.542391200E1,-1.231552723E1,-1.072749830E1,4.197781021E0,1.686335661E1
1.543395100E1,-1.309882141E1,-1.701890705E1,-5.188409865E-1,2.148235358E1
1.544399100E1,-3.412539135E0,-1.934600883E1,-5.389220792E0,2.037049783E1
1.545403100E1,1.344780955E0,-1.415230607E1,-8.288284931E-1,1.424019520E1
1.546407000E1,-3.107881366E-1,-8.296710184E0,3.553318161E0,9.030950066E0
1.547411000E1,7.645135063E-1,-4.146571106E0,2.322043356E0,4.813566057E0
1.548414900E1,1.784010639E0,-1.082764006E-1,1.625374509E0,2.415835266E0
1.549418900E1,-9.062926984E-1,4.548014036E0,-6.186178744E-1,4.678513247E0
1.550422800E1,-4.008947238E0,6.626641898E0,-2.290616034E0,8.076568740E0
1.551426800E1,-2.203636947E0,5.378814502E0,-2.373156500E0,6.278497672E0
1.552430700E1,1.107354179E0,1.200997045E0,-1.760017174E0,2.401309566E0
1.553434700E1,2.060487460E0,-2.815898021E0,8.567094791E-1,3.592887609E0
1.554438700E1,2.768430617E0,-6.076256352E0,2.536208155E0,7.142650148E0
1.555442600E1,2.491672837E0,-7.617601109E0,2.874391227E0,8.514599527E0
1.556446600E1,2.137948449E0,-6.639389412E0,4.214610477E0,8.149555621E0
1.557450500E1,3.145663734E0,-4.681069767E0,3.852252384E0,6.829894796E0
1.558454500E1,2.994112091E0,-2.588293982E0,3.519232110E0,5.296127604E0
1.559458400E1,3.094727177E0,-1.129921215E0,4.072340704E0,5.238131065E0
1.560462400E1,3.802595197E0,-1.780830338E0,3.812669365E0,5.671643026E0
1.561466400E1,4.627578853E0,-3.023521539E0,3.800987213E0,6.708477646E0
1.562470300E1,4.539251691E0,-3.641691517E0,3.416707615E0,6.748378616E0
1.563474300E1,3.502904345E0,-3.167264811E0,2.803249616E0,5.491822434E0
1.564478200E1,3.124072013E0,-1.823815559E0,2.635448560E0,4.475680759E0
1.565482200E1,4.217086188E0,-1.774420620E0,2.528556196E0,5.227425838E0
1.566486100E1,4.889168664E0,-2.448569502E0,2.652395838E0,6.077389777E0
1.567490100E1,4.053978692E0,-2.476148479E0,2.958689658E0,5.596418410E0
1.568494100E1,3.454944605E0,-3.271139427E0,3.355620584E0,5.822128896E0
1.569498000E1,2.982704465E0,-3.432026736E0,3.332817612E0,5.637641943E0
1.570502000E1,2.730663158E0,-3.211526479E0,3.170388101E0,5.274635942E0
1.571505900E1,2.953917453E0,-3.956933039E0,3.124897056E0,5.843622935E0
1.572509900E1,2.567987772E0,-4.609127380E0,3.555980691E0,6.362673579E0
1.573513800E1,2.222835987E0,-4.649012992E0,3.488452367E0,6.222830669E0
1.574517800E1,1.949641208E0,-4.648436456E0,3.275398832E0,6.011430764E0
1.575521700E1,1.832318288E0,-4.559805531E0,3.116596056E0,5.819139779E0
1.576525700E1,1.907423142E0,-4.889141182E0,2.445971584E0,5.790055399E0
1.577529700E1,1.893730571E0,-5.383318028E0,2.557681469E0,6.253643975E0
1.578533600E1,1.024657592E0,-5.802879140E0,3.184750032E0,6.698205899E0
1.579537600E1,5.048325196E-2,-5.772658390E0,2.599818552E0,6.331286595E0
1.580541500E1,1.962334344E-1,-5.722792751E0,1.277386240E0,5.866905490E0
1.581545500E1,-1.118066789E0,-5.784599574E0,1.014719372E0,5.978404552E0
1.582549400E1,-2.429324999E0,-6.189911022E0,1.525568969E0,6.822314790E0
1.583553400E1,-1.998092991E0,-6.212190667E0,2.639833680E-1,6.530955191E0
1.584557400E1,-6.370110952E-1,-5.897276589E0,-7.637785113E-1,5.980552811E0
1.585561300E1,-4.341350229E-2,-5.058088292E0,-1.234513285E0,5.206742259E0
1.586565300E1,-9.351762626E-3,-3.713513451E0,-7.068055809E-1,3.780190966E0
1.587569200E1,6.545149545E-1,-2.163261631E0,-1.533461541E-2,2.260160582E0
1.588573200E1,1.660024231E0,-4.957947707E-1,4.746617639E-1,1.796328671E0
1.589577100E1,2.838524699E0,1.437826236E0,9.120697474E-1,3.310051053E0
1.590581071E1,3.997066281E0,3.272284312E0,1.318410012E0,5.331283938E0
1.591585071E1,4.576442614E0,4.587545307E0,2.056657241E0,6.798473207E0
1.592588971E1,4.826530366E0,5.558198308E0,2.241117307E0,7.694905496E0
1.593592971E1,4.613164297E0,6.758134668E0,1.118576594E0,8.258624741E0
1.594596871E1,4.319107822E0,7.769005988E0,-1.165285760E0,8.964933760E0
1.595600871E1,4.213309472E0,8.467680430E0,-3.182878631E0,9.979193602E0
1.596604771E1,3.392858869E0,8.798650378E0,-4.287081453E0,1.035889990E1
1.597608771E1,2.245081134E0,9.332015848E0,-4.454184936E0,1.058143055E1
1.598612671E1,1.158988236E0,1.004983641E1,-3.049206603E0,1.056598914E1
1.599616671E1,1.144344688E-1,1.079475064E1,-5.275334573E-1,1.080823890E1
1.600620671E1,-1.219818428E0,1.134046192E1,1.904616040E0,1.156380542E1
1.601624571E1,-2.677178677E0,1.100484110E1,3.307142488E0,1.179877132E1
1.602628571E1,-3.569077869E0,1.027356609E1,3.171932058E0,1.132897303E1
1.603632471E1,-3.524721183E0,9.870310521E0,1.951045125E0,1.066082859E1
1.604636471E1,-2.734324392E0,9.564951378E0,7.907599032E-2,9.948420868E0
1.605640371E1,-1.591173121E0,8.757533927E0,-1.149194077E0,8.974791329E0
1.606644371E1,-5.744409176E-1,7.809330141E0,-1.383206810E0,7.951658990E0
1.607648371E1,4.636923143E-1,7.137953424E0,-1.134675002E0,7.242435848E0
1.608652271E1,1.627896997E0,6.726785406E0,-1.246389565E0,7.032295321E0
1.609656271E1,2.606153133E0,6.806467168E0,-2.044861361E0,7.569774597E0
1.610660171E1,3.199918587E0,7.369433582E0,-2.749722158E0,8.491701963E0
1.611664171E1,3.337600927E0,8.192991103E0,-3.128065077E0,9.383468137E0
1.612668071E1,3.331394400E0,9.184943756E0,-3.479755218E0,1.037159953E1
1.613672071E1,3.223279090E0,1.007119161E1,-3.687323772E0,1.119887428E1
1.614676071E1,2.712910427E0,1.069336694E1,-3.458267870E0,1.156147032E1
1.615679971E1,2.152333038E0,1.063582916E1,-3.516799668E0,1.140707147E1
1.616683971E1,4.688766749E-1,9.436387478E0,-2.696746969E0,9.825359952E0
1.617687871E1,-1.209309593E0,7.633578041E0,-8.674654323E-1,7.777302854E0
1.618691871E1,-1.737219611E0,4.747590031E0,2.332799748E0,5.567719259E0
1.619695771E1,-2.497113963E0,9.507607734E-1,7.333460927E0,7.805073565E0
1.620699771E1,-3.508104274E0,-5.710979036E0,9.535020066E0,1.165498541E1
1.621703771E1,8.788970861E-2,-1.550426419E1,2.173802406E0,1.565616011E1
1.622707671E1,4.247083866E0,-2.395176704E1,-4.243684003E0,2.469278680E1
1.623711671E1,4.996379117E0,-2.409842691E1,2.613003731E0,2.474925801E1
1.624715571E1,5.391015303E0,-1.329541766E1,7.183821908E0,1.604488934E1
1.625719571E1,2.219170222E0,-4.072899697E0,2.976036301E0,5.510900152E0
1.626723471E1,-4.452351760E-1,-6.167467654E-2,-6.602842560E-1,7.987574266E-1
1.627727471E1,-3.248302250E0,1.640394251E0,-5.313955432E0,6.440534383E0
1.628731471E1,-5.375679225E0,1.308980500E0,-5.544990617E0,7.833152496E0
1.629735371E1,-5.718298581E0,-1.299775813E0,-2.153688569E0,6.247137767E0
1.630739371E1,-3.241746644E0,-5.753342698E0,-4.359303921E-2,6.603921097E0
1.631743271E1,-4.121284238E-1,-1.064061686E1,3.716563359E-1,1.065507886E1
1.632747271E1,1.444701831E0,-1.395932924E1,1.058100450E0,1.407372064E1
1.633751171E1,2.358780243E0,-1.472360359E1,1.495535331E0,1.498615938E1
1.634755171E1,1.782654377E0,-1.323724371E1,2.137507277E0,1.352669269E1
1.635759071E1,8.168362923E-1,-1.108114843E1,3.408988121E0,1.162240389E1
1.636763071E1,1.362378004E0,-9.921781222E0,4.122187340E0,1.083006209E1
1.637767071E1,2.417666236E0,-1.016861909E1,4.462460208E0,1.136483503E1
1.638770971E1,3.436593703E0,-1.119089599E1,4.162427878E0,1.242465835E1
1.639774971E1,3.399301624E0,-1.240617544E1,2.748145456E0,1.315373499E1
1.640778871E1,3.145497381E0,-1.373986218E1,2.580784695E0,1.432963420E1
1.641782871E1,2.135266331E0,-1.501410028E1,2.821947550E0,1.542549700E1
1.642786771E1,5.520067591E-1,-1.555620383E1,1.498993082E0,1.563800401E1
1.643790771E1,-6.072955453E-1,-1.505890399E1,7.677993491E-1,1.509068962E1
1.644794771E1,-1.066841672E0,-1.380655319E1,1.134988412E0,1.389414484E1
1.645798671E1,-4.034831692E-1,-1.138273144E1,9.140371893E-1,1.142649718E1
1.646802671E1,-2.765893802E-2,-7.250988289E0,4.360483597E-1,7.264140304E0
1.647806571E1,-7.129284927E-1,-2.646467931E0,9.682872176E-1,2.906826393E0
1.648810571E1,-1.549977732E0,6.573287809E-1,2.951957467E0,3.398317964E0
1.649814471E1,-1.116151607E0,2.558193101E0,3.528767164E0,4.499149259E0
1.650818471E1,1.008607132E0,3.106809863E0,1.343471910E0,3.531921948E0
1.651822471E1,3.295176162E0,3.852266709E0,-1.246032154E0,5.220224216E0
1.652826371E1,4.315071489E0,5.882163291E0,-3.312324876E0,8.011940028E0
1.653830371E1,4.668375462E0,7.982749786E0,-2.851982943E0,9.677387577E0
1.654834271E1,4.888638029E0,1.009235620E1,-8.673566010E-1,1.124752163E1
1.655838271E1,4.365018990E0,1.184947608E1,3.995496742E-1,1.263420413E1
1.656842171E1,3.577844015E0,1.269154763E1,1.088931137E0,1.323110427E1
1.657846171E1,2.817612424E0,1.246867750E1,1.598325289E0,1.288260463E1
1.658850171E1,1.663916723E0,1.202392308E1,1.541088649E0,1.223594292E1
1.659854071E1,3.404231411E-1,1.162855891E1,9.597051861E-1,1.167305891E1
1.660858071E1,-9.086435714E-1,9.842239208E0,1.486525941E-1,9.885211347E0
1.661861971E1,-1.283376712E0,8.366181538E0,1.005771305E0,8.523592272E0
1.662865971E1,-1.888788065E-1,8.227658660E0,1.829238852E0,8.430667649E0
1.663869871E1,1.686876546E0,8.480762991E0,3.064022863E-1,8.652327765E0
1.664873871E1,2.689644648E0,8.405352620E0,-1.519559786E0,8.955065770E0
1.665877871E1,3.176570070E0,8.156493368E0,-2.955762250E0,9.238804681E0
1.666881771E1,3.799449103E0,8.550371754E0,-3.932778776E0,1.014945415E1
1.667885771E1,4.164448968E0,9.186333055E0,-4.476670403E0,1.103503186E1
1.668889671E1,4.120807689E0,9.527521597E0,-4.339785916E0,1.125115397E1
