"Time (s)","Linear Acceleration x (m/s^2)","Linear Acceleration y (m/s^2)","Linear Acceleration z (m/s^2)","Absolute acceleration (m/s^2)"
4.262499977E-3,6.601734513E-1,5.480373037E-1,-8.815028429E-1,1.230130535E0
1.430249994E-2,5.665343857E-1,-6.096950233E-2,-1.523373632E-1,5.898179063E-1
2.434250002E-2,5.561678571E-1,-8.242814058E-1,-1.060123587E-1,1.000000571E0
3.438349999E-2,1.978978443E-1,-7.894331700E-1,-8.216383182E-2,8.179970549E-1
4.442349996E-2,-1.475340217E-1,-6.521370381E-1,-1.666502508E-1,6.890727902E-1
5.446350004E-2,-9.816247165E-2,-1.044863523E0,3.940328993E-2,1.050203919E0
6.450450001E-2,-4.240698999E-1,-4.947592288E-1,2.197688428E-1,6.876920232E-1
7.454449998E-2,-2.132409382E-1,2.255610216E-1,2.109406435E-1,3.752937879E-1
8.458449994E-2,6.637583792E-2,2.506169254E-1,1.799515700E-1,3.155901816E-1
9.462550003E-2,3.039675057E-2,5.780498922E-1,3.727354395E-1,6.884746533E-1
1.046655000E-1,-1.220898628E-1,6.536187226E-1,4.423161729E-1,7.986031342E-1
1.147055000E-1,-1.394473225E-1,8.589793682E-1,1.524871616E-1,8.834836983E-1
1.247464999E-1,-1.021783394E-1,1.366605395E0,-4.381903410E-2,1.371120282E0
1.347865000E-1,-3.079079443E-1,1.675706171E0,-3.198543541E-1,1.733523949E0
1.448265000E-1,-5.138498032E-1,1.544032137E0,-4.555495183E-1,1.689852723E0
1.548675000E-1,-7.237654299E-1,1.669625652E0,-6.713888495E-1,1.939651825E0
1.649075000E-1,-3.190556610E-1,1.250700717E0,2.140303123E-1,1.308379827E0
1.749475000E-1,4.609120363E-1,1.561275576E0,3.996584324E-1,1.676230352E0
1.849875000E-1,-3.223768795E-1,1.299643081E0,3.035336423E-1,1.373000970E0
1.950284999E-1,-1.344947308E-1,2.693707001E-1,2.494854891E-1,3.910145982E-1
2.050685000E-1,4.127590460E-1,-6.992340213E-1,2.558741570E-3,8.119758578E-1
2.151085000E-1,6.593060169E-1,-2.613986063E-1,-2.037981234E-2,7.095273018E-1
2.251495000E-1,8.976201081E-1,9.097560042E-1,-2.715353394E-1,1.306563924E0
2.351895000E-1,-5.203147772E-1,1.791652949E0,1.151948261E-1,1.869229148E0
2.452295000E-1,-1.017641811E0,6.003505880E-1,9.184876513E-1,1.496541095E0
2.552705000E-1,-5.185398549E-2,6.790628815E-1,4.804715574E-1,8.334675460E-1
2.653104999E-1,3.331682083E-1,6.050418091E-1,-2.762190322E-1,7.438908519E-1
2.753505000E-1,9.782713383E-2,-1.213355720E-1,-1.372318125E-1,2.076656917E-1
2.853915000E-1,5.369650161E-1,-6.230208278E-1,-5.158915778E-1,9.708916008E-1
2.954315000E-1,8.228807053E-1,-2.021598798E0,-9.792625145E-1,2.392268678E0
3.054715000E-1,1.194083882E0,-2.909704902E0,-2.738580727E-1,3.157089985E0
3.155125000E-1,1.245774730E0,-3.326106178E0,4.689949349E-2,3.552060888E0
3.255525000E-1,1.355018553E0,-2.693912238E0,-2.045564342E-1,3.022429778E0
3.355924999E-1,1.183289337E0,3.873768675E-1,-1.585740034E-1,1.255141509E0
3.456325000E-1,2.171604438E0,8.068245435E-1,-1.738681269E-1,2.323157723E0
3.556735000E-1,2.284305426E0,1.081254255E0,5.148286271E-1,2.579187965E0
3.657135000E-1,9.264047813E-1,2.432746936E0,1.025856564E0,2.798010930E0
3.757535000E-1,7.537718788E-1,2.195134218E0,1.614779938E0,2.827419412E0
3.857945000E-1,1.758076483E-1,1.422363274E0,1.347528123E0,1.967195378E0
3.958345000E-1,-5.468994355E-1,9.571874481E-1,3.338255815E-1,1.151844747E0
4.058744999E-1,-6.803442988E-1,3.503639925E-1,2.542275810E-1,8.063838757E-1
4.159152916E-1,-9.140501994E-1,-8.259016693E-2,-1.181665273E-1,9.253497884E-1
4.259552916E-1,-5.676029643E-1,-2.611442524E-1,4.807288349E-1,7.883334690E-1
4.359952917E-1,-1.197181737E0,-1.022545871E0,6.225565588E-1,1.693050749E0
4.460362917E-1,-1.562146811E0,-2.087167135E0,-1.187464249E-1,2.609726044E0
4.560762916E-1,-9.634632647E-1,-2.478293238E0,-9.884741449E-1,2.836772809E0
4.661162917E-1,-1.701925086E0,-9.020996600E-1,9.211005528E-2,1.928423465E0
4.761572917E-1,-1.966520365E0,-2.885951757E-2,7.251484425E-1,2.096157314E0
4.861972916E-1,-8.046520105E-1,-1.178810370E-1,1.310607342E-1,8.237340062E-1
4.962372916E-1,-2.640260527E-1,-1.778804862E-1,-1.026689208E-1,3.345028119E-1
5.062782917E-1,-2.242296106E-1,2.085787193E0,-5.181458987E-2,2.098445111E0
5.163182917E-1,-1.235595605E-1,4.571127495E0,6.541623674E-2,4.573265007E0
5.263582916E-1,-3.465118468E-2,5.947110069E0,2.861620031E-2,5.947279863E0
5.363982917E-1,-7.960928562E-1,3.699190112E0,2.326699933E-1,3.791029760E0
5.464392917E-1,-7.392248833E-1,-1.067191701E0,8.266045777E-1,1.539034334E0
5.564792916E-1,-2.309875301E-1,-2.935138535E0,1.086695600E0,3.138359570E0
5.665192916E-1,3.239807707E-1,-1.804274749E0,7.461304450E-1,1.979161830E0
5.765602917E-1,3.203037491E-1,-9.051460594E-1,3.099725962E-1,1.008943453E0
5.866002917E-1,3.740674353E-1,-1.754778069E0,4.354562195E-1,1.846292132E0
5.966402916E-1,8.025163150E-1,-1.909299513E0,1.162941392E-1,2.074362889E0
6.066812917E-1,8.672756901E-1,-9.064429718E-1,-8.520925176E-1,1.516531451E0
6.167212917E-1,8.950645825E-1,2.165317512E-1,-9.265462840E-1,1.306336336E0
6.267612916E-1,3.107648939E-2,8.863285500E-1,9.592380667E-1,1.306400289E0
6.368022916E-1,-9.056348866E-1,-1.469820446E-1,1.299170042E0,1.590478251E0
6.468422917E-1,-6.908230940E-1,-1.037398968E0,4.628971660E-1,1.329551410E0
6.568822917E-1,2.915918738E-2,-1.380672626E0,-8.123975247E-1,1.602216246E0
6.669232916E-1,3.027007064E-1,-1.719214718E0,-1.233751393E0,2.137631742E0
6.769632917E-1,3.145170522E-1,-1.631401818E0,-4.502268344E-1,1.721364886E0
6.870032917E-1,3.297274143E-1,-4.711288762E-1,6.617352426E-2,5.788449888E-1
6.970442916E-1,3.993578124E-1,1.308510969E0,1.951110431E-1,1.381939194E0
7.070842916E-1,4.926515999E-1,2.757404814E0,2.126737400E-1,2.809131010E0
7.171242917E-1,5.510310781E-1,3.296483014E0,1.771858188E-1,3.346913552E0
7.271642917E-1,6.012443349E-1,3.119266772E0,2.240881262E-1,3.184577748E0
7.372052916E-1,7.721181026E-1,2.956350480E0,-1.467826363E-1,3.059039010E0
7.472452917E-1,6.695170096E-1,3.213989326E0,-6.531889522E-1,3.347332703E0
7.572852917E-1,2.353334731E-1,3.064133375E0,-7.404779416E-1,3.161107839E0
7.673262917E-1,-4.203095555E-1,1.843666856E0,-4.258380979E-1,1.938325485E0
7.773662916E-1,-5.621445885E-1,3.977194226E-1,3.300022334E-1,7.636024827E-1
7.874062917E-1,-9.310910323E-1,-1.328738242E0,4.450818694E-1,1.682430889E0
7.974472917E-1,-8.617766762E-1,-1.814075852E0,2.708254691E-1,2.026543035E0
8.074872916E-1,-2.557118967E-1,-1.837289298E0,5.096579343E-1,1.923739002E0
8.175272917E-1,2.723425475E-1,-1.895232282E0,4.968630570E-1,1.978117479E0
8.275682917E-1,6.474768072E-1,-1.225343097E0,-5.287987947E-2,1.386898772E0
8.376082917E-1,4.995135999E-1,-1.597549363E0,-6.791014731E-1,1.806337902E0
8.476482916E-1,1.037956792E-1,-2.921675906E0,-7.183210874E-1,3.010473190E0
8.576892917E-1,1.147340655E-1,-3.127542921E0,-4.712528372E-1,3.164927782E0
8.677292917E-1,6.023178837E-1,-2.449720234E-1,-1.083062214E-1,6.591876537E-1
8.777692916E-1,8.306218341E-1,5.586868376E-1,5.807413656E-1,1.157291730E0
8.878092916E-1,9.484315351E-1,1.094095910E-1,9.438610590E-1,1.342522452E0
8.978502917E-1,6.183336997E-1,-2.550116926E-1,7.090602672E-1,9.747481675E-1
9.078902917E-1,5.558278415E-1,-9.000969887E-2,3.238000917E-1,6.495327818E-1
9.179302916E-1,6.279643562E-1,4.346118450E-2,-1.616287351E-1,6.498861095E-1
9.279712917E-1,1.995672244E-1,1.062503403E-1,-4.463261569E-1,5.003231457E-1
9.380112917E-1,-1.714193130E-1,2.785479051E-1,-3.278147900E-1,4.630724056E-1
9.480512916E-1,-2.176234263E-1,7.121166068E-1,-9.118150373E-3,7.446832602E-1
9.580922916E-1,-1.037278515E-1,1.318398610E0,1.507529140E-1,1.331037492E0
9.681322917E-1,1.434681603E-1,1.948377625E0,2.040222180E-1,1.964276851E0
9.781722917E-1,-5.928521186E-2,3.051340837E0,4.123982728E-1,3.079653873E0
9.882132916E-1,-1.773221941E0,4.221926513E0,-1.511902948E-1,4.581685066E0
9.982532917E-1,-3.423264098E0,2.660141644E0,-2.032236053E0,4.788013579E0
1.008293292E0,-1.776736410E0,-9.991476524E-1,-1.677105410E0,2.639653549E0
1.018334292E0,6.639834970E-2,-9.025001943E-1,-1.022444494E-1,9.106971335E-1
1.028374292E0,5.231217331E-1,-1.700077951E-2,5.766348660E-1,7.787510146E-1
1.038414292E0,1.180827659E-1,-3.173108518E-1,1.023716483E0,1.078250970E0
1.048454292E0,-6.834371835E-2,-1.390486593E0,1.431639297E0,1.996926365E0
1.058495292E0,-6.860041112E-1,-1.738880659E0,1.243926133E0,2.245364071E0
1.068535292E0,-9.452775469E-1,-1.591454226E0,1.057711025E0,2.131907317E0
1.078575292E0,-7.620044661E-1,-1.572470071E0,7.406597900E-1,1.897864551E0
1.088616292E0,-5.281409830E-1,-7.516449541E-1,3.267785903E-1,9.750319390E-1
1.098656292E0,1.986679226E-2,4.349620932E-1,4.412367404E-1,6.199004541E-1
1.108696292E0,5.107551643E-1,6.538169432E-1,4.112942819E-1,9.260185848E-1
1.118737292E0,5.556676278E-1,3.418773437E-1,-1.603352944E-1,6.718288750E-1
1.128777292E0,1.040874114E0,-3.418691576E-2,-9.725322962E-1,1.424923413E0
1.138817292E0,9.421412466E-1,-4.532942837E-1,-1.646908050E0,1.950746514E0
1.148858292E0,5.748910801E-1,-4.197657645E-1,-1.143014885E0,1.346545981E0
1.158898292E0,2.955187176E-1,-1.239902079E-1,-2.632194293E-1,4.147159896E-1
1.168938292E0,-1.823253934E-1,3.443887228E-1,4.549683781E-1,5.990345287E-1
1.178979292E0,-2.379284674E-1,1.019915793E0,7.868212918E-1,1.309933558E0
1.189019292E0,-8.499512672E-2,1.805366424E0,7.963990311E-1,1.975050256E0
1.199059292E0,3.921712920E-2,2.288489694E0,4.762428510E-1,2.337847368E0
1.209100292E0,1.800818168E-1,2.364295921E0,-1.797561999E-1,2.377948056E0
1.219140292E0,4.917230621E-2,1.830546289E0,-5.465509415E-1,1.911029975E0
1.229180292E0,1.629604384E-2,1.220448977E0,-3.945209956E-1,1.282734611E0
1.239221292E0,-1.364947709E-1,6.290469682E-1,1.541526313E-1,6.618866553E-1
1.249261292E0,-4.821073160E-2,-4.060891271E-3,6.229038835E-1,6.247799721E-1
1.259301292E0,2.188776541E-1,-3.993648291E-2,1.408559167E-1,2.633300959E-1
1.269341292E0,-1.582282868E-1,-1.889141822E-1,6.111369467E-1,6.589485007E-1
1.279382292E0,-7.846733902E-1,-1.152485036E0,1.928244492E0,2.379508543E0
1.289422292E0,-8.240362613E-1,-1.468957397E0,1.849242761E0,2.501313731E0
1.299462292E0,-3.777941582E-1,-1.200286608E0,1.085998758E0,1.662170169E0
1.309503292E0,8.847641274E-2,-1.199515945E0,-2.325074407E-1,1.225041342E0
1.319543292E0,5.532283887E-1,-1.079514708E0,-7.401288629E-1,1.420987118E0
1.329583292E0,7.483107986E-1,-9.588737851E-1,-6.842376673E-1,1.395560523E0
1.339624292E0,6.921982860E-1,-4.113878739E-1,-6.107907184E-1,1.010665005E0
1.349664292E0,4.900892039E-1,6.820180643E-1,-3.914616593E-1,9.265950024E-1
1.359704292E0,2.535196294E-1,1.242109403E0,-1.598873612E-1,1.277760517E0
1.369745292E0,-1.038855802E-1,1.004008443E0,2.267211092E-1,1.034518066E0
1.379785292E0,-6.417816192E-2,4.214298820E-1,1.966278291E-1,4.694512596E-1
1.389825292E0,-9.457030781E-2,2.543813628E-1,1.928341556E-1,3.329240640E-1
1.399865292E0,1.023367989E-1,3.661543983E-1,5.558838286E-2,3.842290100E-1
1.409906292E0,3.920075700E-1,-1.008118451E-2,-2.690640137E-2,3.930591808E-1
1.419946375E0,2.723036635E-1,4.042127556E-1,-2.145453058E-2,4.878499091E-1
1.429986375E0,2.301274046E-2,7.060360873E-1,4.226449335E-1,8.231921298E-1
1.440027375E0,-4.555874155E-1,-7.775311625E-1,1.795374410E-1,9.188842662E-1
1.450067375E0,-9.243518239E-1,-5.180161783E0,-3.611661386E-1,5.274366632E0
1.460107375E0,-5.114432354E-1,-8.259219591E0,-1.067989261E0,8.343673262E0
1.470148375E0,7.359929810E-1,-5.906666633E0,3.660007627E-1,5.963585577E0
1.480188375E0,2.218338601E-1,-1.866009652E0,2.576525291E0,3.188994334E0
1.490228375E0,-1.427245992E0,-2.087116849E0,3.308751057E0,4.164243199E0
1.500269375E0,-1.368369646E0,-1.781859448E0,3.038373467E0,3.778779155E0
1.510309375E0,-3.931816909E-1,-6.196048844E-1,1.828215004E0,1.969992933E0
1.520349375E0,-7.895290643E-2,5.613794804E-2,6.938538520E-1,7.005841838E-1
1.530390375E0,-4.319285578E-1,1.644564486E-1,6.006844640E-2,4.660648246E-1
1.540430375E0,-1.151704871E0,-2.840822947E-1,-1.965120542E-1,1.202390888E0
1.550470375E0,-1.632859383E0,-8.031554157E-1,-8.403267503E-2,1.821633848E0
1.560511375E0,-1.622088081E0,-1.164575908E0,2.019547156E-1,2.007035748E0
1.570551375E0,-1.501113282E0,-1.580532796E0,5.697994709E-1,2.253019406E0
1.580591375E0,-5.004946165E-1,-7.072944081E-1,6.906579832E-1,1.108047242E0
1.590632375E0,-1.601362333E-2,-2.842015779E-1,8.005926541E-1,8.496914563E-1
1.600672375E0,-1.894648437E-1,3.228908497E-1,6.188015500E-1,7.232363280E-1
1.610712375E0,-1.753524426E-1,9.407737291E-1,6.736701407E-2,9.593445695E-1
1.620752375E0,1.112013240E-1,1.211172370E0,-4.426434343E-1,1.294309644E0
1.630793375E0,5.025649694E-1,1.115955141E0,-7.786807251E-1,1.450610594E0
1.640833375E0,5.291059197E-1,8.653651124E-1,-7.303523183E-1,1.249889740E0
1.650873375E0,1.103808135E-3,5.691995466E-1,-3.741924195E-1,6.811822877E-1
1.660914375E0,-4.718042296E-1,3.173266393E-1,1.505891919E-2,5.687901178E-1
1.670954375E0,-6.982170443E-1,1.145124561E-1,3.680575208E-1,7.975503007E-1
1.680994375E0,-7.544435777E-1,1.729547918E-1,6.694861655E-1,1.023381746E0
1.691035375E0,-7.677932096E-1,9.968391716E-2,7.078298669E-1,1.049031180E0
1.701075375E0,-9.272804019E-1,-8.877008915E-2,5.625055079E-1,1.088182668E0
1.711115375E0,-1.100273639E0,-2.075083280E-1,4.797277915E-1,1.218113517E0
1.721156375E0,-1.041018979E0,-2.855528694E-1,4.185694972E-1,1.157782959E0
1.731196375E0,-9.222968200E-1,-3.958693635E-1,3.776716590E-1,1.072371139E0
1.741236375E0,-8.023704270E-1,-4.730643046E-1,4.392416704E-1,1.029816189E0
1.751277375E0,-6.731598249E-1,-4.287669683E-1,5.233620536E-1,9.544071993E-1
1.761317375E0,-5.827992931E-1,-3.982790011E-1,5.967327695E-1,9.243220093E-1
1.771357375E0,-6.666062656E-1,-3.805759710E-1,7.141240291E-1,1.048415524E0
1.781397375E0,-7.696020457E-1,-2.627721173E-1,8.244657393E-1,1.158050193E0
1.791438375E0,-8.337967260E-1,-2.336670166E-1,8.371775130E-1,1.204443209E0
1.801478375E0,-8.014687863E-1,-2.185022628E-1,7.751525883E-1,1.136202882E0
1.811518375E0,-6.615734209E-1,-1.923459131E-1,6.131940702E-1,9.223249478E-1
1.821559375E0,-5.322967453E-1,-2.082099938E-1,4.124018542E-1,7.048166541E-1
1.831599375E0,-3.911892521E-1,-2.443071949E-1,1.553874171E-1,4.866829418E-1
1.841639375E0,-2.549008879E-1,-2.394475740E-1,-5.312670507E-2,3.537400884E-1
1.851680375E0,-1.213368876E-1,-1.747212356E-1,-2.963088957E-1,3.647589782E-1
1.861720375E0,2.664956242E-2,-5.032581568E-2,-5.312698281E-1,5.343131265E-1
1.871760375E0,1.274959061E-1,6.790196121E-2,-6.885330319E-1,7.035222942E-1
1.881801375E0,2.408430120E-1,1.321581835E-1,-7.660554171E-1,8.138255611E-1
1.891841375E0,4.044880132E-1,1.281271130E-1,-9.159125376E-1,1.009417102E0
1.901881375E0,6.203970359E-1,1.811882561E-1,-1.089823934E0,1.267058749E0
1.911922375E0,8.566688409E-1,2.578674728E-1,-1.239078791E0,1.528297545E0
1.921962375E0,1.114230066E0,3.481069672E-1,-1.366549262E0,1.797260133E0
1.932002375E0,1.240488116E0,4.053903848E-1,-1.496235827E0,1.985415267E0
1.942043375E0,1.307690458E0,4.322279352E-1,-1.484729676E0,2.025166051E0
1.952083375E0,1.341019003E0,3.896426636E-1,-1.369845922E0,1.956177707E0
1.962123375E0,1.328673484E0,2.939494711E-1,-1.302150367E0,1.883447663E0
1.972163375E0,1.248865568E0,2.016236901E-1,-1.264721171E0,1.788808810E0
1.982204375E0,1.227519138E0,1.546851665E-1,-1.278439908E0,1.779083847E0
1.992244375E0,1.206481002E0,1.453454089E-1,-1.274861412E0,1.761247659E0
2.002284375E0,9.959914716E-1,1.790680557E-1,-1.332224936E0,1.672987645E0
2.012325375E0,8.447523616E-1,2.906264985E-1,-1.307729781E0,1.583738455E0
2.022365375E0,8.571373491E-1,4.706768864E-1,-1.237402979E0,1.577145301E0
2.032405375E0,7.125338057E-1,5.539207721E-1,-1.190006618E0,1.493535536E0
2.042446375E0,5.134584783E-1,5.315768069E-1,-1.101139466E0,1.326168026E0
2.052486375E0,3.524691363E-1,5.511597168E-1,-9.353112602E-1,1.141410828E0
2.062526375E0,5.393793315E-2,4.484808558E-1,-6.608616686E-1,8.004889279E-1
2.072567375E0,-2.410764621E-1,2.141425788E-1,-2.458169460E-1,4.054637784E-1
2.082607375E0,-5.647365130E-1,-1.284259057E-1,1.244533074E-1,5.923758673E-1
2.092647375E0,-8.387712447E-1,-4.554788035E-1,5.007450235E-1,1.077842159E0
2.102688375E0,-1.014958377E0,-7.146671623E-1,8.602552307E-1,1.510274386E0
2.112728375E0,-1.124501139E0,-7.817370647E-1,1.057364870E0,1.730212738E0
2.122768375E0,-1.237554422E0,-7.595661771E-1,1.003419701E0,1.765030544E0
2.132809375E0,-1.241772750E0,-8.116239381E-1,8.135160971E-1,1.691904672E0
2.142849375E0,-1.209909956E0,-8.432778400E-1,5.698531922E-1,1.581054167E0
2.152889375E0,-1.068053581E0,-8.065456313E-1,3.082160926E-1,1.373408703E0
2.162929375E0,-7.809263483E-1,-7.269223416E-1,1.133764151E-1,1.072900864E0
2.172970375E0,-4.034983720E-1,-5.336280102E-1,-9.040891752E-3,6.690676551E-1
2.183010375E0,-1.354317471E-2,-2.649414343E-1,-6.311367631E-2,2.726916158E-1
2.193050375E0,3.913781172E-1,1.004154038E-1,-1.842551208E-1,4.440833632E-1
2.203091375E0,7.450614278E-1,4.913421160E-1,-3.727798784E-1,9.672116851E-1
2.213131375E0,1.030709461E0,7.279128599E-1,-5.794836295E-1,1.388531743E0
2.223171375E0,1.266066176E0,7.459667230E-1,-7.885215890E-1,1.667679889E0
2.233212375E0,1.378744215E0,5.611976320E-1,-9.662278283E-1,1.774675916E0
2.243252375E0,1.430225586E0,3.704187727E-1,-9.773866546E-1,1.771451373E0
2.253292375E0,1.358662684E0,2.015371513E-1,-8.682659161E-1,1.624951449E0
2.263333375E0,1.223162085E0,9.119317532E-2,-5.641791272E-1,1.350088801E0
2.273373375E0,1.120338360E0,4.235196769E-2,-2.095840895E-1,1.140560047E0
2.283413375E0,1.069364088E0,8.357717693E-2,9.019564033E-2,1.076410679E0
2.293454375E0,1.058815565E0,2.266187829E-1,2.421238629E-1,1.109536136E0
2.303494375E0,1.097884759E0,3.734774512E-1,2.416385257E-1,1.184578207E0
2.313534375E0,1.204825802E0,4.676690787E-1,9.535054564E-2,1.295921026E0
2.323575375E0,1.307705222E0,4.958877414E-1,-1.907396829E-1,1.411516641E0
2.333615375E0,1.419914168E0,4.866123033E-1,-5.565894413E-1,1.600855891E0
2.343655375E0,1.509412382E0,4.391498691E-1,-9.127585495E-1,1.817775155E0
2.353695375E0,1.521869144E0,3.814735186E-1,-1.126246240E0,1.931330715E0
2.363736375E0,1.508706038E0,3.484063447E-1,-1.164830847E0,1.937630458E0
2.373776375E0,1.378249979E0,3.333070797E-1,-1.038908719E0,1.757838997E0
2.383816375E0,1.086961649E0,2.559922707E-1,-8.027624828E-1,1.375298248E0
2.393857375E0,8.256707773E-1,1.738301200E-1,-5.623039252E-1,1.013969845E0
2.403897375E0,6.613840442E-1,1.339854383E-1,-4.260024047E-1,7.980344607E-1
2.413937750E0,6.476920579E-1,1.033963144E-1,-3.724980426E-1,7.542881355E-1
2.423978750E0,8.623131582E-1,4.138366878E-2,-3.696089333E-1,9.390992250E-1
2.434018750E0,1.132368933E0,-4.339569569E-2,-3.761379343E-1,1.193994276E0
2.444058750E0,1.178474301E0,-5.405049205E-2,-3.475690234E-1,1.229848511E0
2.454099750E0,1.141599640E0,1.900929809E-2,-2.826608366E-1,1.176226270E0
2.464139750E0,1.067399643E0,1.327972841E-1,-1.556756848E-1,1.086835790E0
2.474179750E0,8.005316969E-1,2.262194180E-1,7.173889498E-2,8.349686772E-1
2.484220750E0,3.607658967E-1,6.722619849E-1,5.096912634E-1,9.175365893E-1
2.494260750E0,-2.094355702E-1,1.432526320E0,9.240857756E-1,1.717535861E0
2.504300750E0,-8.594983086E-1,2.351786388E0,1.286189808E0,2.814945964E0
2.514341750E0,-1.524514716E0,3.379588906E0,1.324697231E0,3.937078745E0
2.524381750E0,-2.152069914E0,4.462413138E0,7.636557198E-1,5.012754331E0
2.534421750E0,-2.935444930E0,5.508396403E0,3.324610789E-2,6.241824506E0
2.544461750E0,-4.743089722E0,7.701669452E0,-3.995285054E-2,9.045120712E0
2.554502750E0,-5.765825334E0,1.089066369E1,-1.924395270E0,1.247215276E1
2.564542750E0,-3.113180113E0,1.182939206E1,-8.248683493E0,1.475354826E1
2.574582750E0,-3.506201005E0,9.879049770E0,-1.483044392E1,1.816125372E1
2.584623750E0,2.144802555E-1,7.054336486E0,-1.683974953E1,1.825888357E1
2.594663750E0,2.661770679E0,4.027057527E0,-1.290144981E1,1.377496362E1
2.604703750E0,5.311029485E0,1.435164583E0,-7.867434508E0,9.600169650E0
2.614744750E0,5.993362130E0,-1.118985168E0,-2.490163085E0,6.585850713E0
2.624784750E0,6.001785629E0,-4.620641717E0,2.498385440E0,7.975819106E0
2.634824750E0,6.361779401E0,-8.597273440E0,5.726999238E0,1.213193587E1
2.644865750E0,6.242672787E0,-1.221661924E1,6.998496162E0,1.540115897E1
2.654905750E0,5.012181217E0,-1.498237329E1,7.123245338E0,1.733014986E1
2.664945750E0,3.707678515E0,-1.649820899E1,7.627808594E0,1.855050521E1
2.674986750E0,1.852168708E0,-1.657933092E1,8.329745783E0,1.864643149E1
2.685026750E0,-2.434321591E-1,-1.702479519E1,7.432206366E0,1.857796012E1
2.695066750E0,-2.290720991E0,-1.921039787E1,4.611465096E0,1.988849917E1
2.705107750E0,-3.734163478E0,-2.032136650E1,1.040252701E0,2.068777511E1
2.715147750E0,-3.518238375E0,-1.954691682E1,-1.615628808E0,1.992662076E1
2.725187750E0,-1.275586028E0,-1.594021387E1,-2.549588338E0,1.619314481E1
2.735227750E0,7.375381078E-1,-1.293169629E1,-3.532933306E0,1.342588355E1
2.745268750E0,1.546178504E0,-1.023894472E1,-3.371285859E0,1.089000576E1
2.755308750E0,2.274609720E0,-7.142885551E0,-2.519216731E0,7.908294146E0
2.765348750E0,1.975518207E0,-4.186561384E0,-1.517712650E0,4.871695813E0
2.775389750E0,1.374371228E0,-1.410505705E0,-1.082330581E-1,1.972343026E0
2.785429750E0,8.834524508E-1,1.066255562E0,1.416220189E0,1.980673820E0
2.795469750E0,5.625019996E-1,3.279571112E0,2.487736491E0,4.154615269E0
2.805510750E0,5.544300646E-1,5.124431385E0,2.959972830E0,5.943789101E0
2.815550750E0,5.122467890E-1,6.639066061E0,3.077193131E0,7.335442216E0
2.825590750E0,5.234918618E-1,8.158562697E0,3.030801322E0,8.719056467E0
2.835631750E0,8.280597304E-1,9.830409122E0,2.608861563E0,1.020435128E1
2.845671750E0,9.850686534E-1,1.136054360E1,1.932970212E0,1.156584130E1
2.855711750E0,8.139682330E-1,1.252108727E1,8.803661442E-1,1.257836297E1
2.865752750E0,3.461444955E-1,1.365294332E1,-4.127625543E-1,1.366356653E1
2.875792750E0,-5.210595663E-1,1.463456570E1,-1.023321211E0,1.467955049E1
2.885832750E0,-9.502560856E-1,1.492951095E1,-1.073673924E0,1.499820188E1
2.895873750E0,-1.061906695E0,1.433654949E1,-1.714245170E0,1.447767017E1
2.905913750E0,-1.729557566E0,1.285544509E1,-2.890389209E0,1.328940133E1
2.915953750E0,-1.879335310E0,1.105982597E1,-3.153149047E0,1.165306830E1
2.925994750E0,-1.927088936E0,9.971431099E0,-3.162157268E0,1.063683922E1
2.936034750E0,-2.630564966E0,8.957650205E0,-3.988468827E0,1.015220433E1
2.946074750E0,-3.261973917E0,8.186662077E0,-4.040487996E0,9.694712633E0
2.956114750E0,-3.819167376E0,7.939687382E0,-3.435145640E0,9.456474012E0
2.966155750E0,-4.091134824E0,8.286702674E0,-2.902773612E0,9.686739390E0
2.976195750E0,-3.648743843E0,8.782754722E0,-2.366480295E0,9.800527595E0
2.986235750E0,-3.156938336E0,9.087192344E0,-1.917213573E0,9.809130045E0
2.996276750E0,-2.744057375E0,9.347902733E0,-1.581604591E0,9.869883964E0
3.006316750E0,-2.799881035E0,9.640055355E0,-1.432933432E0,1.014018241E1
3.016356750E0,-3.164355821E0,9.994877264E0,-1.507595213E0,1.059167421E1
3.026397750E0,-3.717701227E0,1.001690256E1,-1.798221127E0,1.083481603E1
3.036437750E0,-4.211481340E0,9.208061893E0,-2.736574109E0,1.048874715E1
3.046477750E0,-4.183214437E0,7.329115861E0,-4.496522870E0,9.562109613E0
3.056518750E0,-3.247025218E0,4.456507450E0,-6.162890453E0,8.269513296E0
3.066558750E0,-1.970963811E0,-3.959962481E-1,-7.263821173E0,7.536883269E0
3.076598750E0,-6.993065268E-1,-9.990543308E0,-9.091831525E0,1.352632196E1
3.086639750E0,1.422683263E0,-2.748807419E1,-1.177319447E1,2.993703991E1
3.096679750E0,8.682328793E0,-4.897527726E1,-1.289404958E1,5.138304322E1
3.106719750E0,1.896894996E1,-4.758160511E1,-5.887495952E0,5.156057424E1
3.116760750E0,1.849935071E1,-2.659981665E1,1.723726430E0,3.244606995E1
3.126800750E0,1.212493607E1,-1.734362749E1,4.340887531E0,2.160228677E1
3.136840750E0,9.896344664E0,-1.680437387E1,9.506504949E0,2.169558147E1
3.146881750E0,8.939091727E0,-1.787699296E1,1.369013045E1,2.422630615E1
3.156921750E0,5.635745836E0,-1.769456802E1,1.369695415E1,2.307522311E1
3.166961750E0,2.312563119E0,-1.558772500E1,9.249182437E0,1.827217816E1
3.177001750E0,5.077646059E-1,-1.255452632E1,5.506925243E0,1.371860713E1
3.187042750E0,-9.121228109E-1,-9.760834857E0,3.242022632E0,1.032553029E1
3.197082750E0,-1.089263624E0,-7.620061617E0,1.969303494E0,7.945438348E0
3.207122750E0,-2.195578314E-1,-5.888777077E0,1.239615566E0,6.021839241E0
3.217163750E0,7.680528259E-1,-3.618544729E0,3.929584734E-1,3.719971433E0
3.227203750E0,1.441262352E0,-8.108778334E-1,-1.515855575E-1,1.660643914E0
3.237243750E0,1.336149588E0,1.894249949E0,-6.533320628E-2,2.318996986E0
3.247284750E0,1.191869834E0,4.363196998E0,5.580314378E-1,4.557350198E0
3.257324750E0,1.316304722E0,7.019516902E0,5.673869828E-1,7.164370429E0
3.267364750E0,1.023433551E0,9.655512469E0,2.478166938E-2,9.709631889E0
3.277405750E0,1.410504097E-1,1.184911706E1,-4.095050704E-1,1.185703018E1
3.287445750E0,-1.164266737E0,1.347937340E1,-3.088627946E-1,1.353308615E1
3.297485750E0,-1.459400123E0,1.446257921E1,2.239138426E-1,1.453775029E1
3.307526750E0,-1.271245932E0,1.501806353E1,1.747791231E-1,1.507278495E1
3.317566750E0,-1.784724876E0,1.531437703E1,-2.306405343E-1,1.541974648E1
3.327606750E0,-2.747922385E0,1.556463318E1,-9.857341397E-1,1.583605239E1
3.337647750E0,-4.110625056E0,1.531866888E1,-2.222219106E0,1.601552723E1
3.347687750E0,-5.477824236E0,1.429169199E1,-4.089451411E0,1.584243135E1
3.357727750E0,-6.227769989E0,1.181708016E1,-5.873947368E0,1.459218148E1
3.367768750E0,-6.038655832E0,8.997769121E0,-5.779611315E0,1.228125077E1
3.377808750E0,-6.637801309E0,6.790521811E0,-6.402145654E0,1.145246967E1
3.387848750E0,-6.920365666E0,5.309279999E0,-6.242501464E0,1.072607755E1
3.397888750E0,-6.362510303E0,4.927660884E0,-4.837192179E0,9.389451918E0
3.407929750E0,-4.824886714E0,5.438207595E0,-2.526561418E0,7.696567173E0
3.417969625E0,-3.421978880E0,5.843439521E0,-1.029166600E0,6.849445874E0
3.428009625E0,-2.247256591E0,6.381855816E0,-2.173422118E-1,6.769452229E0
3.438050625E0,-1.204050900E0,7.239396184E0,6.646793157E-1,7.368880123E0
3.448090625E0,-2.366056810E-1,8.271368936E0,1.536364684E0,8.416171503E0
3.458130625E0,4.695534901E-1,9.456913544E0,2.280405334E0,9.739298884E0
3.468171625E0,8.260823482E-1,1.051385157E1,2.673287355E0,1.087979559E1
3.478211625E0,1.182615007E0,1.154870934E1,2.308097747E0,1.183632463E1
3.488251625E0,2.070854427E0,1.221958845E1,7.735398531E-1,1.241793638E1
3.498292625E0,3.489342313E0,1.124031783E1,-1.745398550E0,1.189817930E1
3.508332625E0,3.510022160E0,9.349480312E0,-2.873101916E0,1.039171556E1
3.518372625E0,3.670757149E0,8.271533827E0,-2.555617987E0,9.403399023E0
3.528413625E0,3.586700208E0,5.184143152E0,-5.573612738E0,8.414565797E0
3.538453625E0,4.915103989E0,-3.664754105E0,-1.051010818E1,1.216762277E1
3.548493625E0,4.563648906E0,-1.812728887E1,-1.303323670E1,2.278795191E1
3.558534625E0,2.606152548E0,-3.991225204E1,-1.537181306E1,4.284941693E1
3.568574625E0,6.916230515E0,-5.047269306E1,-1.322414361E1,5.263273661E1
3.578614625E0,1.252234208E1,-2.779441216E1,-2.502512405E0,3.058759498E1
3.588655625E0,9.325875687E0,-1.703788828E1,3.027395904E0,1.965773945E1
3.598695625E0,9.167534841E0,-1.764414046E1,5.278813666E0,2.057243936E1
3.608735625E0,7.435780769E0,-2.204938245E1,6.107603275E0,2.405761667E1
3.618776625E0,4.363134432E0,-2.412305070E1,6.522417033E0,2.536731048E1
3.628816625E0,3.072545180E0,-2.214089371E1,7.774257957E0,2.366640647E1
3.638856625E0,3.525861683E0,-1.903061119E1,7.079592365E0,2.060865087E1
3.648896625E0,3.483187534E0,-1.533741973E1,5.576263865E0,1.668723339E1
3.658937625E0,2.745391125E0,-1.203636478E1,3.236368375E0,1.276265372E1
3.668977625E0,2.661132163E0,-8.798638099E0,1.567099111E0,9.324883721E0
3.679017625E0,2.010181525E0,-6.122451695E0,1.589916408E0,6.637249332E0
3.689058625E0,1.191099317E0,-3.595199720E0,2.779797896E0,4.698026709E0
3.699098625E0,-4.498423800E-2,-1.085358415E0,3.582777311E0,3.743837567E0
3.709138625E0,-8.060135347E-1,1.447370061E0,3.374790680E0,3.759488004E0
3.719179625E0,-1.814506792E0,4.233653689E0,2.106973994E0,5.065135523E0
3.729219625E0,-2.863636444E0,6.975734705E0,8.708118669E-1,7.590757648E0
3.739259625E0,-1.603333868E0,9.062928153E0,3.699041812E-1,9.211089800E0
3.749300625E0,1.618137264E-1,1.095187468E1,-9.644222081E-1,1.099544691E1
3.759340625E0,5.068717360E-2,1.263919400E1,-1.979565504E0,1.279337617E1
3.769380625E0,-9.281526603E-1,1.404363439E1,-3.144013358E0,1.442116342E1
3.779421625E0,-1.124513856E0,1.522267865E1,-4.103375970E0,1.580608019E1
3.789461625E0,-8.140085057E-1,1.567955903E1,-4.632446076E0,1.636981179E1
3.799501625E0,-7.789829531E-1,1.521293485E1,-4.666646440E0,1.593166000E1
3.809542625E0,-1.226274851E0,1.443477219E1,-4.849723347E0,1.527698317E1
3.819582625E0,-2.520344658E0,1.303348345E1,-5.817947999E0,1.449387274E1
3.829622625E0,-3.348941309E0,1.077066011E1,-6.613873917E0,1.307539121E1
3.839663625E0,-3.685692399E0,8.677345212E0,-6.679055169E0,1.155380571E1
3.849703625E0,-4.105393844E0,7.161594302E0,-6.190597485E0,1.031824543E1
3.859743625E0,-4.576470388E0,6.561643664E0,-4.995637105E0,9.431629704E0
3.869783625E0,-4.200025182E0,6.864727070E0,-3.236062565E0,8.673914353E0
3.879824625E0,-3.307971331E0,7.317488673E0,-1.824903141E0,8.235204082E0
3.889864625E0,-2.628902310E0,7.778975490E0,-1.105607323E0,8.285285426E0
3.899904625E0,-2.202942590E0,8.408780842E0,-3.768045169E-1,8.700720255E0
3.909945625E0,-1.380765890E0,9.051385165E0,4.580515053E-1,9.167545965E0
3.919985625E0,-6.516024564E-1,9.558903603E0,1.235593266E0,9.660430351E0
3.930025625E0,-7.017858924E-1,1.008269894E1,2.011850320E0,1.030538029E1
3.940066625E0,-1.051085107E0,1.061684793E1,2.781419329E0,1.102535865E1
3.950106625E0,-1.446846297E0,1.104633528E1,3.144589893E0,1.157598086E1
3.960146625E0,-1.783192613E0,1.086232340E1,2.491512038E0,1.128616311E1
3.970187625E0,-1.606566647E0,1.004180234E1,1.117081314E0,1.023067550E1
3.980227625E0,-1.008636514E0,8.891212386E0,-2.537469399E-1,8.951837400E0
3.990267625E0,1.180406660E-3,6.733511458E0,-1.539398219E0,6.907237134E0
4.000308625E0,1.503727280E0,2.753825149E0,-3.146979066E0,4.443897605E0
4.010348625E0,3.829105596E0,-4.835228684E0,-6.095176772E0,8.671370479E0
4.020388625E0,5.885948778E0,-2.097831521E1,-9.526996517E0,2.378019690E1
4.030429625E0,7.515002940E0,-4.763203149E1,-1.231116053E1,4.976796527E1
4.040469625E0,8.827564859E0,-5.442426011E1,-9.784065260E0,5.599690994E1
4.050509625E0,1.100010836E1,-2.794221106E1,-3.226492428E0,3.020231442E1
4.060550625E0,1.118725785E1,-1.634010963E1,2.322854511E0,1.993864524E1
4.070590625E0,1.060528565E1,-1.703605342E1,5.248554325E0,2.074238468E1
4.080630625E0,7.980547725E0,-2.032676699E1,6.017708766E0,2.265125641E1
4.090671625E0,4.908065110E0,-2.061399158E1,7.212348719E0,2.238400603E1
4.100711625E0,3.370105307E0,-1.842003791E1,8.425548903E0,2.053400304E1
4.110751625E0,1.226345894E0,-1.393483993E1,8.980282438E0,1.662315135E1
4.120792625E0,-8.701308855E-1,-9.997370517E0,7.430670887E0,1.248676959E1
4.130832625E0,-1.577588869E0,-6.970431281E0,5.290697547E0,8.891972752E0
4.140872625E0,-2.300111035E0,-4.349278286E0,3.794257067E0,6.213140838E0
4.150912625E0,-2.643664775E0,-2.170040892E0,2.641791912E0,4.321701682E0
4.160953625E0,-2.825720758E0,1.979650873E-1,1.632406955E0,3.269348627E0
4.170993625E0,-2.787115102E0,2.973993284E0,7.827316761E-1,4.150339205E0
4.181033625E0,-2.490498716E0,5.282227271E0,-4.794856803E-1,5.859557603E0
4.191074625E0,-2.190779212E0,7.124261584E0,-1.972809631E0,7.710161770E0
4.201114625E0,-1.357146647E0,9.294438132E0,-3.294319544E0,9.953942358E0
4.211154625E0,-6.868322962E-1,1.118752916E1,-3.958496584E0,1.188706198E1
4.221195625E0,-3.426668639E-1,1.270111134E1,-4.248996198E0,1.339737357E1
4.231235625E0,-5.971037022E-1,1.390755448E1,-4.552595914E0,1.464591185E1
4.241275625E0,-8.200583274E-1,1.457853768E1,-4.404960151E0,1.525155502E1
4.251316625E0,-8.014744142E-1,1.495813892E1,-4.149257317E0,1.554363592E1
4.261356625E0,-1.306790718E0,1.495902302E1,-4.204533386E0,1.559352983E1
4.271396625E0,-1.875929600E0,1.483016559E1,-4.112056162E0,1.550361020E1
4.281437625E0,-2.284468271E0,1.394360841E1,-3.814045215E0,1.463522982E1
4.291477625E0,-2.800155855E0,1.226752861E1,-3.708959640E0,1.311828924E1
4.301517625E0,-3.685474298E0,1.042852081E1,-3.611787102E0,1.163536734E1
4.311558625E0,-4.586637819E0,8.843671600E0,-3.528468372E0,1.056872097E1
4.321598625E0,-4.155560031E0,7.778397201E0,-3.208008209E0,9.384213278E0
4.331638625E0,-3.153820893E0,7.443579785E0,-2.374043815E0,8.425529673E0
4.341679625E0,-2.330949835E0,7.522852827E0,-1.419391719E0,8.002581748E0
4.351719625E0,-1.702934754E0,7.627764739E0,-6.795259809E-1,7.845032648E0
4.361759625E0,-8.546658772E-1,7.853743252E0,-2.136930010E-1,7.902999527E0
4.371800625E0,-4.216229863E-1,8.277417880E0,1.666889155E-1,8.289824962E0
4.381840625E0,-4.838812150E-1,9.064512749E0,8.464891309E-1,9.116801865E0
4.391880625E0,-7.740947539E-1,9.884108781E0,1.362707641E0,1.000758718E1
4.401921625E0,-1.165341455E0,1.029477979E1,1.154796440E0,1.042468543E1
4.411961625E0,-1.481043153E0,1.031036729E1,4.642577766E-1,1.042653815E1
4.422001292E0,-1.145080268E0,9.708803993E0,-5.705882603E-1,9.792734794E0
4.432041292E0,-1.768861672E-1,8.740190501E0,-1.894283279E0,8.944860415E0
4.442082292E0,7.183544165E-1,7.089078303E0,-3.223919068E0,7.820787582E0
4.452122292E0,1.604119149E0,3.263064423E0,-4.773011386E0,6.000202110E0
4.462162292E0,3.094455866E0,-4.924473567E0,-6.905562855E0,9.028449223E0
4.472203292E0,3.961322251E0,-2.328089260E1,-1.008829472E1,2.568006473E1
4.482243292E0,5.429946649E0,-5.262070749E1,-1.493048276E1,5.496673988E1
4.492283292E0,1.234437154E1,-5.347215564E1,-1.141947184E1,5.605407456E1
4.502324292E0,1.318935385E1,-2.688557709E1,-4.884587809E-1,2.995049086E1
4.512364292E0,1.028602417E1,-1.892935729E1,3.188427054E0,2.177817549E1
4.522404292E0,7.379065116E0,-1.947873127E1,4.952363616E0,2.141021904E1
4.532445292E0,6.173884388E0,-2.072508166E1,5.947342204E0,2.242803463E1
4.542485292E0,4.299394812E0,-1.989958111E1,7.063927674E0,2.154941294E1
4.552525292E0,1.912941451E0,-1.667971358E1,6.804248149E0,1.811546253E1
4.562566292E0,8.524889588E-2,-1.390033785E1,5.819122120E0,1.506946721E1
4.572606292E0,-4.485966307E-1,-1.131265373E1,4.776621164E0,1.228794056E1
4.582646292E0,-3.982547352E-1,-8.429954780E0,3.299315990E0,9.061359193E0
4.592687292E0,-3.928852370E-1,-5.854691902E0,2.184370079E0,6.261249773E0
4.602727292E0,-8.251238434E-1,-3.425460897E0,1.982313841E0,4.042793574E0
4.612767292E0,-1.681795754E0,-5.642411077E-1,2.152565757E0,2.789326859E0
4.622808292E0,-2.176078143E0,2.033619504E0,2.137049732E0,3.665774942E0
4.632848292E0,-2.720405973E0,4.101981994E0,1.394501292E0,5.115808713E0
4.642888292E0,-2.968272075E0,6.375103451E0,1.091160607E-1,7.033099561E0
4.652929292E0,-2.608251991E0,8.831278426E0,-1.196293545E0,9.285772737E0
4.662969292E0,-2.237577110E0,1.092242108E1,-1.935063515E0,1.131594028E1
4.673009292E0,-1.878534973E0,1.265025928E1,-1.880367490E0,1.292647420E1
4.683050292E0,-1.408826531E0,1.392081363E1,-1.669223948E0,1.409113739E1
4.693090292E0,-1.243941920E0,1.492317959E1,-1.699268696E0,1.507103827E1
4.703130292E0,-1.521660690E0,1.541191794E1,-1.969534605E0,1.561158968E1
4.713171292E0,-1.770342041E0,1.559159586E1,-1.982135940E0,1.581647354E1
4.723211292E0,-1.678187145E0,1.559802546E1,-1.692366058E0,1.577906249E1
4.733251292E0,-1.329508174E0,1.487393434E1,-1.774888397E0,1.503834245E1
4.743291292E0,-1.433791365E0,1.297147958E1,-2.088236006E0,1.321649612E1
4.753332292E0,-1.599525576E0,1.092535872E1,-2.712039192E0,1.137000888E1
4.763372292E0,-2.110784332E0,9.159375637E0,-3.519213983E0,1.003665480E1
4.773412292E0,-2.515843764E0,7.947886932E0,-4.063698519E0,9.274266666E0
4.783453292E0,-2.760697966E0,7.434288560E0,-4.384369766E0,9.061611219E0
4.793493292E0,-2.639700656E0,7.438334833E0,-4.297377230E0,8.986895776E0
4.803533292E0,-2.185393342E0,7.782421255E0,-3.672118673E0,8.878427799E0
4.813574292E0,-1.758952834E0,8.016464247E0,-2.661771263E0,8.628014856E0
4.823614292E0,-1.369978800E0,8.149142248E0,-1.641722154E0,8.424999283E0
4.833654292E0,-1.219044622E0,8.381964927E0,-4.820363454E-1,8.483853185E0
4.843695292E0,-1.290689386E0,8.670981102E0,6.197908258E-1,8.788397637E0
4.853735292E0,-1.136430774E0,8.851646032E0,1.438641338E0,9.039513332E0
4.863775292E0,-6.685846710E-1,8.884568195E0,1.469950839E0,9.030133606E0
4.873816292E0,-5.136990912E-1,9.043158717E0,1.094574212E0,9.123634092E0
4.883856292E0,-5.475578320E-1,9.103983209E0,5.734645057E-1,9.138445786E0
4.893896292E0,7.958835259E-2,8.564334905E0,-1.575058633E-1,8.566152857E0
4.903937292E0,1.745367121E0,6.166221027E0,-1.679971715E0,6.625020235E0
4.913977292E0,3.025236820E0,1.581877071E0,-3.794154741E0,5.103920364E0
4.924017292E0,4.339426897E0,-7.279007562E0,-6.194683519E0,1.049707963E1
4.934058292E0,4.147303762E0,-2.698943300E1,-8.982365216E0,2.874565197E1
4.944098292E0,2.345714201E0,-5.780815607E1,-1.034791577E1,5.877384320E1
4.954138292E0,5.729835722E0,-5.398845075E1,-6.588263698E0,5.468993555E1
4.964179292E0,9.070562278E0,-2.104799063E1,-3.013466375E-1,2.292125257E1
4.974219292E0,7.724743150E0,-1.577581590E1,3.376812648E0,1.788717103E1
4.984259292E0,3.040272642E0,-1.858638769E1,3.294566297E0,1.911939414E1
4.994300292E0,2.944344977E0,-1.932323743E1,2.911850830E0,1.976197226E1
5.004340292E0,6.110825091E0,-2.018084621E1,3.665218374E0,2.140192895E1
5.014380292E0,6.169984880E0,-1.779975709E1,5.737513701E0,1.969312391E1
5.024421292E0,3.349247996E0,-1.308701822E1,7.091648154E0,1.525709610E1
5.034461292E0,9.986459613E-2,-8.327242590E0,7.868642542E0,1.145724564E1
5.044501292E0,-1.430695556E0,-4.880099632E0,8.702397022E0,1.007938372E1
5.054542292E0,-1.061367143E0,-2.110648384E0,9.278551247E0,9.574593989E0
5.064582292E0,5.725419612E-1,-4.419501007E-2,8.512032731E0,8.531380820E0
5.074622292E0,1.686665608E0,1.828994438E0,6.525188613E0,6.983419503E0
5.084662292E0,2.309156385E0,4.243913214E0,3.306032102E0,5.854301909E0
5.094703292E0,2.821550817E0,6.837904138E0,-3.969078290E-1,7.407807897E0
5.104743292E0,3.122073435E0,8.487852740E0,-3.935983050E0,9.863211913E0
5.114783292E0,2.972372435E0,1.015549326E1,-7.365445197E0,1.289258796E1
5.124824292E0,3.185135071E0,1.242403518E1,-8.468783800E0,1.536951641E1
5.134864292E0,2.536514256E0,1.371355907E1,-7.783777224E0,1.597131162E1
5.144904292E0,1.682006254E0,1.443560133E1,-6.250353690E0,1.582032401E1
5.154945292E0,5.997532218E-1,1.491484380E1,-5.120730683E0,1.578081595E1
5.164985292E0,-9.530398719E-2,1.492466244E1,-5.088425401E0,1.576853528E1
5.175025292E0,-3.927169834E-1,1.469536973E1,-5.463541242E0,1.568306096E1
5.185066292E0,-9.539204626E-1,1.409226452E1,-5.209489662E0,1.505458953E1
5.195106292E0,-1.385889658E0,1.224393626E1,-4.795670516E0,1.322244762E1
5.205146292E0,-2.100108193E0,1.004848454E1,-4.226314849E0,1.110154193E1
5.215187292E0,-3.428581556E0,8.286178764E0,-3.279914929E0,9.548495794E0
5.225227292E0,-4.515928025E0,7.648159243E0,-2.288213705E0,9.171906437E0
5.235267292E0,-4.216387154E0,8.198550051E0,-1.309403839E0,9.311749673E0
5.245308292E0,-3.357201086E0,9.197264425E0,-8.416171577E-1,9.826942122E0
5.255348292E0,-2.567383754E0,9.678540559E0,-4.830414087E-1,1.002491574E1
5.265388292E0,-1.448343915E0,1.006287804E1,-2.854996963E-1,1.017058134E1
5.275429292E0,-8.127844642E-1,1.020051916E1,-2.544293100E-1,1.023601211E1
5.285469292E0,-7.678271234E-1,9.888109446E0,-2.099559724E-2,9.917898352E0
5.295509292E0,-8.606643896E-1,9.247806002E0,-2.370046073E-1,9.290792767E0
5.305550292E0,-1.616659526E0,8.573167709E0,-1.150121006E0,8.799748344E0
5.315590292E0,-1.942336282E0,8.476726073E0,-1.866144723E0,8.894383131E0
5.325630292E0,-1.382372997E0,8.331561343E0,-2.494225731E0,8.806079236E0
5.335671292E0,-4.519567332E-1,6.954036857E0,-3.456131882E0,7.778672193E0
5.345711292E0,7.242773536E-1,3.815699392E0,-4.866036494E0,6.225949782E0
5.355751292E0,1.768610242E0,-1.972890907E0,-6.990297781E0,7.475596550E0
5.365792292E0,2.191293036E0,-1.415175175E1,-8.680638363E0,1.674596444E1
5.375832292E0,1.715207621E0,-3.869205274E1,-1.026208449E1,4.006653542E1
5.385872292E0,3.193871104E0,-5.782278347E1,-1.029874888E1,5.881954887E1
5.395913292E0,9.305944868E0,-3.548773413E1,-3.606922803E0,3.686447851E1
5.405953292E0,9.879497666E0,-1.751421884E1,5.037819504E0,2.072997735E1
5.415993500E0,1.017969840E1,-1.707564492E1,8.640540497E0,2.167632000E1
5.426034500E0,5.930585253E0,-2.135678209E1,5.501400794E0,2.283745593E1
5.436074500E0,3.986249809E0,-2.396054255E1,3.317079539E0,2.451531773E1
5.446114500E0,4.232775437E0,-2.129010278E1,5.542560514E0,2.240323284E1
5.456155500E0,2.958560143E0,-1.711964990E1,7.885609993E0,1.907926455E1
5.466195500E0,1.068919699E0,-1.309682985E1,8.403725924E0,1.559782519E1
5.476235500E0,4.656327859E-1,-9.463026808E0,7.420492054E0,1.203450841E1
5.486275500E0,1.014772874E0,-6.322228249E0,6.013401707E0,8.784152442E0
5.496316500E0,1.220861791E0,-2.931905025E0,5.165827918E0,6.064020833E0
5.506356500E0,9.715180966E-1,3.708070278E-1,4.191935560E0,4.318989349E0
5.516397500E0,4.323957503E-1,3.132402542E0,2.953356121E0,4.326802993E0
5.526437500E0,1.069433670E0,5.622850971E0,1.502747287E0,5.917633887E0
5.536477500E0,1.613966152E0,8.111170430E0,-1.332938297E0,8.376914526E0
5.546517500E0,1.679310541E0,1.042120010E1,-6.413253610E0,1.235116663E1
5.556558500E0,2.346822833E0,1.222000945E1,-9.278538383E0,1.552183890E1
5.566598500E0,2.683171488E0,1.307759952E1,-8.901922731E0,1.604578595E1
5.576638500E0,2.279137950E0,1.479344391E1,-8.515978432E0,1.722098548E1
5.586679500E0,1.596065632E0,1.546775417E1,-7.985255318E0,1.748036462E1
5.596719500E0,1.152841789E0,1.591110994E1,-6.268635594E0,1.714025251E1
5.606759500E0,7.424000676E-1,1.657854271E1,-5.142877597E0,1.737378561E1
5.616800500E0,5.018679813E-1,1.643525786E1,-5.271177202E0,1.726716194E1
5.626840500E0,9.713263080E-1,1.454528574E1,-5.729390749E0,1.566316476E1
5.636880500E0,5.687363009E-1,1.164948961E1,-5.055504407E0,1.271189183E1
5.646921500E0,-1.443463537E0,9.395458723E0,-4.336015046E0,1.044793080E1
5.656961500E0,-3.212156809E0,7.821594676E0,-4.559226657E0,9.606343859E0
5.667001500E0,-4.451289394E0,6.535207817E0,-4.449621769E0,9.073150080E0
5.677042500E0,-5.565876871E0,5.438743785E0,-3.717270287E0,8.624211135E0
5.687082500E0,-6.425494756E0,5.028428875E0,-2.630271143E0,8.572654553E0
5.697122500E0,-6.543530159E0,5.709260539E0,-1.232878988E0,8.771170586E0
5.707163500E0,-6.013184776E0,7.049218419E0,-1.471492749E-1,9.266688965E0
5.717203500E0,-5.356136076E0,8.234922656E0,3.859622799E-1,9.831129726E0
5.727243500E0,-3.934879096E0,9.083198111E0,5.640768009E-1,9.914935404E0
5.737284500E0,-2.623433994E0,9.641442899E0,4.801260600E-1,1.000351679E1
5.747324500E0,-2.284599103E0,1.019091803E1,5.954821962E-1,1.046082227E1
5.757364500E0,-1.558105508E0,1.026945199E1,2.278098242E-1,1.038947709E1
5.767405500E0,-8.041427180E-1,9.448854911E0,-9.080135339E-1,9.526384058E0
5.777445500E0,-2.515197355E-1,8.260579069E0,-2.143191648E0,8.537780693E0
5.787485500E0,4.174493900E-1,6.899188221E0,-3.467220542E0,7.732702010E0
5.797526500E0,8.784530814E-1,3.480524712E0,-4.730625504E0,5.938396227E0
5.807566500E0,1.260874726E0,-4.095756463E0,-6.557389230E0,7.833541957E0
5.817606500E0,1.722082047E0,-2.099028329E1,-9.152968258E0,2.296376248E1
5.827647500E0,5.075474988E0,-5.096323703E1,-1.305547834E1,5.285316915E1
5.837687500E0,1.287342411E1,-5.704294265E1,-9.647724563E0,5.926804319E1
5.847727500E0,1.282129969E1,-3.141959699E1,7.328176506E-1,3.394280222E1
5.857768500E0,1.181224451E1,-2.082613324E1,5.722799767E0,2.461721721E1
5.867808500E0,8.838705559E0,-1.558161466E1,7.247612107E0,1.932452620E1
5.877848500E0,3.741640313E0,-1.595556398E1,7.657127702E0,1.808898833E1
5.887889500E0,-2.636714190E-2,-1.768443830E1,1.091172653E1,2.077993814E1
5.897929500E0,-2.593438947E0,-1.723802912E1,9.204326692E0,1.971281825E1
5.907969500E0,-1.891489625E0,-1.472094662E1,5.292994334E0,1.575753126E1
5.918010500E0,-4.139673731E-1,-1.206805084E1,2.237128629E0,1.228063372E1
5.928050500E0,4.754379818E-1,-9.445393360E0,4.542994201E-1,9.468256701E0
5.938090500E0,1.009717079E0,-6.934728767E0,5.418483183E-2,7.008061618E0
5.948131500E0,1.911869657E0,-3.671401219E0,-7.202600241E-3,4.139382125E0
5.958171500E0,1.352143915E0,-7.905710381E-1,2.569428818E-1,1.587235136E0
5.968211500E0,2.254347217E-1,2.095428082E0,1.456011661E0,2.561563901E0
5.978252500E0,-7.994395101E-1,4.891998131E0,2.068588192E0,5.371201575E0
5.988292500E0,-1.484582473E0,7.964017646E0,1.258808466E0,8.198424296E0
5.998332500E0,-1.722705360E0,1.147593957E1,-1.785399352E0,1.174106271E1
6.008373500E0,-1.376093087E0,1.358097930E1,-3.833634557E0,1.417862422E1
6.018413500E0,7.380750284E-2,1.461991609E1,-4.096922983E0,1.518328594E1
6.028453500E0,1.263263898E0,1.609062531E1,-3.120325118E0,1.643899289E1
6.038494500E0,1.183532435E0,1.691886703E1,-2.936396272E0,1.721253130E1
6.048534500E0,7.133917384E-1,1.751615544E1,-2.358639910E0,1.768863509E1
6.058574500E0,2.842884091E-1,1.781058029E1,-2.400315939E0,1.797384507E1
6.068614500E0,-2.033266917E-1,1.733706458E1,-3.125501658E0,1.761771581E1
6.078655500E0,-2.400429668E-1,1.530771588E1,-3.934187370E0,1.580701162E1
6.088695500E0,-4.651160382E-1,1.239216318E1,-5.233757946E0,1.346009894E1
6.098735500E0,-1.955435068E0,9.486256042E0,-6.575365909E0,1.170675945E1
6.108776500E0,-3.987353178E0,7.053737732E0,-6.885185893E0,1.063296695E1
6.118816500E0,-5.659216560E0,5.382665479E0,-6.103723063E0,9.912378874E0
6.128856500E0,-6.684424667E0,4.020499874E0,-5.028078627E0,9.280491746E0
6.138897500E0,-6.647234037E0,3.481791803E0,-2.635402660E0,7.953234668E0
6.148937500E0,-5.975974849E0,3.998570477E0,-4.829507768E-2,7.190491894E0
6.158977500E0,-5.294212893E0,4.863712226E0,1.103788839E0,7.273426742E0
6.169018500E0,-4.159625892E0,5.980821607E0,1.603052178E0,7.459389448E0
6.179058500E0,-3.187575991E0,7.392695560E0,2.009801456E0,8.297703914E0
6.189098500E0,-2.426466588E0,8.704375720E0,2.354783671E0,9.338035281E0
6.199139500E0,-1.535269500E0,9.668006215E0,2.543297904E0,1.011413668E1
6.209179500E0,-3.426361661E-1,1.010892370E1,2.791951919E0,1.049298496E1
6.219219500E0,8.707160456E-1,9.461722879E0,2.280377852E0,9.771513159E0
6.229260500E0,2.179208742E0,8.464673207E0,1.064834104E0,8.805311744E0
6.239300500E0,2.749884710E0,6.774715617E0,-1.606814861E-1,7.313306787E0
6.249340500E0,3.288634297E0,2.543615992E0,-1.866451117E0,4.557273047E0
6.259381500E0,4.073186796E0,-7.369006736E0,-4.802714072E0,9.693254015E0
6.269421500E0,5.549792351E0,-3.479639209E1,-1.016305020E1,3.667256041E1
6.279461500E0,1.084149796E1,-7.314547289E1,-1.577624625E1,7.560878407E1
6.289502500E0,1.237983608E1,-5.512322691E1,-8.709536473E0,5.716368175E1
6.299542500E0,6.627438873E0,-2.106434647E1,-1.164816960E0,2.211303771E1
6.309582500E0,3.113691159E0,-1.642615024E1,5.157018503E0,1.749595165E1
6.319623500E0,2.853491524E0,-1.781018151E1,1.601069972E1,2.411819820E1
6.329663500E0,-2.182574984E0,-1.729601128E1,1.927220410E1,2.598717935E1
6.339703500E0,-2.905744582E0,-1.539018501E1,1.313118224E1,2.043842198E1
6.349744500E0,-1.254349087E0,-1.287480054E1,8.313180621E0,1.537669837E1
6.359784500E0,-5.469320337E-1,-1.003789874E1,5.251234689E0,1.134169350E1
6.369824500E0,5.390748377E-1,-7.185946201E0,2.444725542E0,7.609540555E0
6.379865500E0,1.201450058E0,-4.962753534E0,-8.756432019E-2,5.106865221E0
6.389905500E0,1.380019639E0,-2.247829911E0,-8.802983896E-1,2.780668762E0
6.399945500E0,1.940635619E0,1.778801939E0,-1.293916318E0,2.933329573E0
6.409986500E0,2.055968732E0,5.110262412E0,-1.884114386E0,5.821655810E0
6.420026917E0,1.607062052E0,8.184516733E0,-3.262848076E0,8.956290536E0
6.430066917E0,2.097964750E0,1.139599176E1,-5.525048688E0,1.283729906E1
6.440107917E0,2.376865973E0,1.209205483E1,-5.451083749E0,1.347522156E1
6.450147917E0,1.215316438E0,1.200473719E1,-4.108978187E0,1.274654506E1
6.460187917E0,6.714712221E-1,1.243613424E1,-2.666162522E0,1.273643321E1
6.470228917E0,4.227946222E-1,1.354133284E1,-1.445574966E0,1.362483532E1
6.480268917E0,8.237082325E-2,1.525534588E1,-7.579698873E-1,1.527438644E1
6.490308917E0,-5.220926231E-1,1.685666552E1,-4.517833632E-1,1.687079908E1
6.500349917E0,-1.177275476E0,1.797421462E1,-4.831314558E-1,1.801920599E1
6.510389917E0,-1.809860594E0,1.839588189E1,-1.377794042E0,1.853597536E1
6.520429917E0,-2.294263381E0,1.760699544E1,-2.920491260E0,1.799442142E1
6.530470917E0,-2.308650455E0,1.524848125E1,-5.537312638E0,1.638621001E1
6.540510917E0,-2.588115642E0,1.186659555E1,-8.088662742E0,1.459249456E1
6.550550917E0,-2.410035181E0,8.661323841E0,-8.728850411E0,1.253074737E1
6.560591917E0,-2.904806981E0,6.423734744E0,-1.024393591E1,1.243545313E1
6.570631917E0,-3.602592355E0,5.601255450E0,-8.750530717E0,1.099656865E1
6.580671917E0,-3.424090310E0,5.923744011E0,-5.097271069E0,8.532133960E0
6.590712917E0,-3.345442628E0,5.884303957E0,-2.310442480E0,7.152283823E0
6.600752917E0,-3.698787823E0,5.685188137E0,-6.628682868E-1,6.814821339E0
6.610792917E0,-3.424912428E0,6.105747954E0,5.425422366E-1,7.021718828E0
6.620833917E0,-3.301303751E0,6.808797283E0,1.314907823E0,7.680319621E0
6.630873917E0,-3.416689489E0,7.483690515E0,1.728935130E0,8.406462245E0
6.640913917E0,-3.249685408E0,7.932273113E0,1.786979270E0,8.756409475E0
6.650954917E0,-3.163713212E0,8.073558800E0,1.530175990E0,8.805275211E0
6.660994917E0,-3.063522926E0,7.404910979E0,4.313730723E-1,8.025207913E0
6.671034917E0,-2.007526304E0,4.955473166E0,-2.017180057E0,5.714533361E0
6.681075917E0,-1.377640260E0,-6.683180380E-1,-5.031152508E0,5.258995840E0
6.691115917E0,-1.741446271E0,-1.344056543E1,-8.511306506E0,1.600386743E1
6.701155917E0,-1.098783622E0,-4.441451454E1,-1.496592741E1,4.688107732E1
6.711196917E0,9.901397828E0,-7.484482345E1,-1.700507370E1,7.738835706E1
6.721236917E0,1.738610050E1,-4.926401277E1,-5.612476841E0,5.254254791E1
6.731276917E0,1.431654734E1,-1.870766245E1,5.916562168E-1,2.356459673E1
6.741317917E0,1.262282297E1,-1.668908783E1,1.069456328E1,2.349968076E1
6.751357917E0,9.413748229E0,-1.653470380E1,2.805072603E1,3.389481252E1
6.761397917E0,-9.852135913E-1,-1.601239073E1,2.602932720E1,3.057602292E1
6.771438917E0,-3.972978676E0,-1.503158697E1,1.470255946E1,2.139856119E1
6.781478917E0,-4.240651929E0,-1.289312922E1,7.582772169E0,1.554716514E1
6.791518917E0,-2.734638680E0,-1.046057057E1,2.290899185E0,1.105214931E1
6.801559917E0,-9.579470015E-1,-7.821052054E0,-1.824785028E0,8.088037963E0
6.811599917E0,-4.046353631E-1,-4.750293199E0,-3.635633801E0,5.995569063E0
6.821639917E0,-4.235616307E-1,-1.550533072E0,-5.022446004E0,5.273378531E0
6.831680917E0,2.904165834E-2,1.189796119E0,-4.566715186E0,4.719252675E0
6.841720917E0,1.371264603E0,5.088042408E0,-3.932077110E0,6.574935175E0
6.851760917E0,2.239321919E0,8.457118605E0,-3.640534937E0,9.475806688E0
6.861801917E0,3.858723497E0,9.524972795E0,-2.018191041E0,1.047320146E1
6.871841917E0,3.898430769E0,1.099091303E1,-1.614113941E0,1.177299008E1
6.881881917E0,3.353673753E0,1.295855255E1,-1.586980521E0,1.347923288E1
6.891922917E0,3.303378051E0,1.436698776E1,-1.454159848E0,1.481341367E1
6.901962917E0,3.086927284E0,1.527392131E1,-1.336838390E0,1.563997855E1
6.912002917E0,2.084376113E0,1.595631594E1,-8.972716872E-1,1.611687744E1
6.922043917E0,9.383233072E-1,1.678044239E1,-3.433631212E-1,1.681016346E1
6.932083917E0,-5.235327923E-1,1.728702410E1,-3.472268882E-1,1.729843506E1
6.942123917E0,-2.443894945E0,1.696558746E1,-1.021207881E0,1.717109914E1
6.952163917E0,-4.077801418E0,1.594947352E1,-2.389149511E0,1.663496936E1
6.962204917E0,-5.382119349E0,1.344357558E1,-4.462966869E0,1.515305271E1
6.972244917E0,-6.882555231E0,1.021829470E1,-6.202156845E0,1.379310924E1
6.982284917E0,-8.525693581E0,7.116491219E0,-6.890212744E0,1.306931253E1
6.992325917E0,-9.625968243E0,4.182806302E0,-9.046479351E0,1.385618713E1
7.002365917E0,-8.189594455E0,3.348866465E0,-8.364482337E0,1.217575167E1
7.012405917E0,-5.416845378E0,5.464897796E0,-4.806918805E0,9.072694757E0
7.022446917E0,-3.890922067E0,7.124614756E0,-2.578671804E0,8.517567624E0
7.032486917E0,-2.518849525E0,7.713429957E0,-1.702338485E0,8.290932454E0
7.042526917E0,-9.496136959E-1,8.228114743E0,-9.735466419E-1,8.339750083E0
7.052567917E0,1.119868974E-1,8.662764595E0,-2.525441676E-1,8.667168514E0
7.062607917E0,8.268911643E-1,9.147952516E0,3.574314489E-1,9.192200035E0
7.072647917E0,1.158518777E0,9.157867055E0,6.331686705E-1,9.252545451E0
7.082688917E0,9.901783159E-1,8.627488343E0,5.667974373E-1,8.702601193E0
7.092728917E0,5.639797372E-1,7.648615910E0,2.824229280E-1,7.674578894E0
7.102768917E0,7.457820971E-1,4.708203186E0,-9.681275886E-1,4.864220308E0
7.112809917E0,4.757696651E-1,-2.095196532E0,-3.276168618E0,3.917842020E0
7.122849917E0,-1.645491562E0,-1.937823634E1,-6.869720008E0,2.062563306E1
7.132889917E0,-4.572279396E0,-5.992060540E1,-1.623562924E1,6.224934013E1
7.142930917E0,1.603910695E0,-7.661505630E1,-1.803543029E1,7.872557479E1
7.152970917E0,7.797822236E0,-3.382865217E1,-1.546844648E0,3.475020098E1
7.163010917E0,1.132521823E1,-1.829166697E1,4.441830646E0,2.196760132E1
7.173051917E0,1.585378033E1,-1.460485015E1,5.218875028E0,2.217838261E1
7.183091917E0,1.648806524E1,-1.491219267E1,8.934416878E0,2.395941549E1
7.193131917E0,1.127735409E1,-1.511202360E1,1.139587364E1,2.203220163E1
7.203172917E0,6.891678057E0,-1.291498846E1,1.152595314E1,1.863168669E1
7.213212917E0,3.210881239E0,-9.642106558E0,1.007658158E1,1.431144554E1
7.223252917E0,4.506244451E-2,-6.743970957E0,8.308430343E0,1.070108357E1
7.233293917E0,-1.173587198E0,-3.900195166E0,6.517830477E0,7.685762381E0
7.243333917E0,-1.441133129E0,-8.135991275E-1,4.986755769E0,5.254192739E0
7.253373917E0,-1.431686075E0,2.268833109E0,3.488303847E0,4.400635457E0
7.263414917E0,-1.020798869E0,5.466720958E0,1.571784192E0,5.779063411E0
7.273454917E0,-3.693750447E-1,6.459658282E0,1.556610668E0,6.654822298E0
7.283494917E0,5.305736440E-1,7.309241175E0,1.459040519E0,7.472303138E0
7.293535917E0,7.031509980E-1,9.451737004E0,-5.315119028E-1,9.492747685E0
7.303575917E0,8.778003860E-1,1.135536062E1,-2.273540118E0,1.161394563E1
7.313615917E0,5.947912015E-1,1.244445366E1,-3.332401291E0,1.289663141E1
7.323656917E0,3.248715209E-1,1.375732431E1,-4.502709224E0,1.447908505E1
7.333696917E0,-4.524143509E-1,1.514843071E1,-5.125806066E0,1.599854742E1
7.343736917E0,-1.955515906E0,1.598316167E1,-5.625717276E0,1.705679320E1
7.353777917E0,-3.460272880E0,1.592917199E1,-6.107053637E0,1.740712822E1
7.363817917E0,-5.105581716E0,1.495313604E1,-6.960721979E0,1.726600396E1
7.373857917E0,-6.771815983E0,1.306309843E1,-8.173542679E0,1.683178042E1
7.383898917E0,-7.907387363E0,1.097550678E1,-9.017066687E0,1.625718351E1
7.393938917E0,-8.489537323E0,8.995195177E0,-8.854977191E0,1.521171921E1
7.403978917E0,-8.440601975E0,7.721652312E0,-8.191966086E0,1.407039390E1
7.414019917E0,-7.356131752E0,7.359274045E0,-6.976907072E0,1.252792166E1
7.424059792E0,-5.252224038E0,7.793049154E0,-5.001346326E0,1.064570042E1
7.434099792E0,-3.233907866E0,7.741953260E0,-3.623801376E0,9.139361946E0
7.444140792E0,-1.820333981E0,7.732007146E0,-3.019899189E0,8.498078690E0
7.454180792E0,-3.540496387E-1,8.000882587E0,-2.826710692E0,8.492924505E0
7.464220792E0,1.073345311E0,7.885352131E0,-2.591995854E0,8.369545441E0
7.474261792E0,2.093262419E0,7.774369639E0,-1.715727439E0,8.232028394E0
7.484301792E0,2.636534973E0,7.955626307E0,-1.020258367E0,8.442999096E0
7.494341792E0,2.894601544E0,8.081545511E0,-4.290143055E-1,8.595007227E0
7.504382792E0,2.912018645E0,7.745310146E0,1.205806965E-1,8.275519413E0
7.514422792E0,2.916088307E0,5.728461626E0,3.743662280E-1,6.438865870E0
7.524462792E0,3.330117368E0,9.836572087E-1,-6.112720174E-1,3.525750511E0
7.534503792E0,3.644566593E0,-8.981919658E0,-3.650152438E0,1.035767151E1
7.544543792E0,4.202886517E0,-2.801349330E1,-7.483006976E0,2.929872788E1
7.554583792E0,6.277270178E0,-4.857402261E1,-1.063636126E1,5.011957676E1
7.564624792E0,7.852177368E0,-3.677458233E1,-5.820024930E0,3.805127180E1
7.574664792E0,8.052526950E0,-1.718876749E1,1.706695537E-1,1.898225609E1
7.584704792E0,9.608869230E0,-1.342382953E1,1.594268052E0,1.658527232E1
7.594745792E0,1.043929723E1,-1.659962777E1,6.937499177E-1,1.962161710E1
7.604785792E0,1.082068772E1,-2.068273378E1,-1.101087864E0,2.336825098E1
7.614825792E0,9.182202582E0,-2.100070537E1,-8.231081620E-1,2.293512541E1
7.624866792E0,6.014693942E0,-1.743250868E1,1.462834485E-1,1.844153738E1
7.634906792E0,2.801217417E0,-1.362680042E1,5.161594534E-1,1.392131206E1
7.644946792E0,2.737938264E-1,-1.048197372E1,1.006683398E0,1.053376227E1
7.654987792E0,-1.137485027E0,-8.339388426E0,1.339010046E0,8.522453837E0
7.665027792E0,-1.718783486E0,-6.739187350E0,1.309610245E0,7.077142206E0
7.675067792E0,-1.514339538E0,-4.240953353E0,2.350583031E0,5.079778555E0
7.685108792E0,-1.098485414E0,-1.252831442E0,3.996127510E0,4.329583341E0
7.695148792E0,-1.375009160E0,1.339105355E0,4.820327640E0,5.188392034E0
7.705188792E0,-1.940223536E0,3.763334652E0,4.748009276E0,6.361662296E0
7.715229792E0,-2.199709226E0,6.026953799E0,4.155843036E0,7.644208534E0
7.725269792E0,-2.543658092E0,8.033808258E0,3.334925534E0,9.062781026E0
7.735309792E0,-2.564624746E0,9.856300592E0,2.721394737E0,1.054181914E1
7.745350792E0,-2.485721248E0,1.139449487E1,2.099262686E0,1.184990410E1
7.755390792E0,-2.574086418E0,1.271427459E1,1.555630674E0,1.306517073E1
7.765430792E0,-2.863928804E0,1.403170373E1,1.160805624E0,1.436795976E1
7.775471792E0,-3.632116409E0,1.494523529E1,7.756740868E-1,1.539980512E1
7.785511792E0,-4.615959266E0,1.540853825E1,4.951749659E-1,1.609271044E1
7.795551792E0,-5.631808906E0,1.514483935E1,3.893579042E-1,1.616276678E1
7.805592792E0,-5.991341332E0,1.319649213E1,-1.745587196E-1,1.449393136E1
7.815632792E0,-5.743784255E0,1.053410632E1,-1.041756313E0,1.204340939E1
7.825672792E0,-5.693126317E0,8.078959873E0,-2.371503199E0,1.016392185E1
7.835713792E0,-5.605640277E0,6.362692736E0,-4.046057469E0,9.395618277E0
7.845753792E0,-5.490931354E0,5.323738409E0,-5.446522336E0,9.389202487E0
7.855793792E0,-4.230185121E0,5.098082662E0,-5.797834747E0,8.803397113E0
7.865834792E0,-2.926988102E0,5.920029860E0,-5.048171999E0,8.312523890E0
7.875874792E0,-2.175894686E0,7.441938472E0,-3.917805811E0,8.687126583E0
7.885914792E0,-1.223996483E0,8.347241237E0,-2.872970939E0,8.912270511E0
7.895955792E0,-9.924560988E-1,9.309625690E0,-1.612466780E0,9.500218351E0
7.905995792E0,-9.956434160E-1,1.070901408E1,-2.312924258E-1,1.075768491E1
7.916035792E0,-8.534174967E-1,1.181343618E1,3.979036464E-1,1.185090389E1
7.926076792E0,-5.868940982E-1,1.265524578E1,3.743176961E-1,1.267437589E1
7.936116792E0,3.769914816E-1,1.351308611E1,-8.501489031E-1,1.354504972E1
7.946156792E0,1.759445024E0,1.273943633E1,-3.918783465E0,1.344417155E1
7.956197792E0,2.635325477E0,1.025789087E1,-5.805828475E0,1.207795139E1
7.966237792E0,3.341518269E0,7.975447199E0,-5.525291932E0,1.026169349E1
7.976277792E0,4.395656646E0,5.440483916E0,-6.702442278E0,9.687280066E0
7.986318792E0,6.351317562E0,7.590791041E-1,-8.021374154E0,1.025952627E1
7.996358792E0,7.018031124E0,-9.783880488E0,-7.620204874E0,1.424937194E1
8.006398792E0,6.829419243E0,-3.358697506E1,-7.289955304E0,3.504096615E1
8.016439792E0,8.468944014E0,-5.934881787E1,-7.482897048E0,6.041522113E1
8.026479792E0,4.762656844E0,-3.975293179E1,-3.194873317E-1,4.003848846E1
8.036519792E0,1.691169279E0,-1.224026889E1,6.283841279E0,1.386257181E1
8.046560792E0,3.468571249E-1,-8.461104652E0,5.221031481E0,9.948355217E0
8.056600792E0,1.169650999E0,-1.399997206E1,1.304828538E0,1.410921255E1
8.066640792E0,3.917762249E0,-2.182411496E1,-2.036779339E0,2.226632715E1
8.076681792E0,3.816533205E0,-2.564637434E1,-4.029991075E0,2.624010805E1
8.086721792E0,3.060277137E0,-2.232878112E1,-3.904052575E0,2.287315870E1
8.096761792E0,2.071103226E0,-1.605141856E1,-1.640644512E0,1.626742822E1
8.106802792E0,9.281756106E-1,-1.145890546E1,1.880815387E-2,1.149645067E1
8.116842792E0,-6.268361360E-3,-8.074276838E0,1.163694148E0,8.157706161E0
8.126882792E0,-5.305706473E-1,-5.202549017E0,2.449590279E0,5.774817229E0
8.136923792E0,-1.021501704E0,-2.839196836E0,4.375162740E0,5.314748668E0
8.146963792E0,-2.079524094E0,-1.637144369E-1,6.247965102E0,6.586978882E0
8.157003792E0,-2.877418916E0,2.736792794E0,6.744978433E0,7.827152003E0
8.167044792E0,-2.440784373E0,4.826720985E0,4.962240733E0,7.340197335E0
8.177084792E0,-8.640461268E-1,6.849620789E0,2.869212348E0,7.476380151E0
8.187124792E0,1.138320010E0,8.903464642E0,1.523531799E0,9.104317889E0
8.197165792E0,1.230470666E0,1.062917035E1,1.492454926E-1,1.070119595E1
8.207205792E0,6.389796335E-1,1.229897961E1,-8.327452505E-1,1.234368904E1
8.217245792E0,1.499930683E-1,1.358965657E1,-1.739127996E0,1.370130759E1
8.227286792E0,-2.162279883E-1,1.452462401E1,-1.891007668E0,1.464880088E1
8.237326792E0,-9.953788295E-2,1.546150467E1,-1.686757409E0,1.555355859E1
8.247366792E0,1.712297170E-1,1.636965795E1,-1.836622716E0,1.647325724E1
8.257407792E0,3.001616992E-1,1.655707641E1,-1.984963653E0,1.667833796E1
8.267447792E0,2.524006185E-1,1.530197040E1,-2.209871541E0,1.546277907E1
8.277487792E0,3.150563116E-1,1.325610800E1,-2.449768766E0,1.348425107E1
8.287528792E0,-6.228307933E-2,1.171144904E1,-2.416371224E0,1.195829284E1
8.297568792E0,-9.049642110E-1,1.066914075E1,-2.337047896E0,1.095953090E1
8.307608792E0,-1.965747364E0,9.648824424E0,-2.337688166E0,1.012070953E1
8.317649792E0,-2.767621070E0,8.836542090E0,-2.219766199E0,9.522161754E0
8.327689792E0,-3.417819756E0,8.530015842E0,-1.823519690E0,9.368451644E0
8.337729792E0,-3.823162778E0,8.380782620E0,-1.372742048E0,9.313351259E0
8.347770792E0,-4.162405366E0,8.342323728E0,-9.127556258E-1,9.367662806E0
8.357810792E0,-4.525799879E0,8.426526557E0,-6.323237479E-1,9.585877513E0
8.367850792E0,-5.006486614E0,8.273188589E0,-5.872820975E-1,9.687902658E0
8.377891792E0,-5.196514691E0,8.187838537E0,-4.634678543E-1,9.708721197E0
8.387931792E0,-4.931281480E0,8.292400201E0,-6.750364888E-1,9.671458649E0
8.397971792E0,-4.796725938E0,8.685929509E0,-9.244711071E-1,9.965369937E0
8.408012792E0,-4.110349360E0,9.369356752E0,-1.556218904E0,1.034899198E1
8.418052875E0,-2.316507797E0,8.398100903E0,-3.456072240E0,9.372232524E0
8.428092875E0,-1.114068244E0,5.887018819E0,-5.302812393E0,8.001122290E0
8.438133875E0,1.420353001E-1,1.526777004E0,-6.736227490E0,6.908544191E0
8.448173875E0,9.703200021E-1,-6.283526114E0,-7.931313000E0,1.016513390E1
8.458213875E0,4.964014193E-1,-2.208564220E1,-7.597226486E0,2.336107566E1
8.468254875E0,1.201521540E0,-5.160020931E1,-8.820469848E0,5.236244784E1
8.478294875E0,6.617041939E0,-6.019460592E1,-9.328199955E0,6.127145453E1
8.488334875E0,9.384145530E0,-2.520621933E1,-5.693978841E0,2.749249126E1
8.498375875E0,1.236922572E1,-1.198241837E1,-1.040956414E0,1.725281673E1
8.508415875E0,1.579569760E1,-1.688909301E1,1.453813108E0,2.317022007E1
8.518455875E0,1.232755846E1,-1.957557519E1,2.632214173E0,2.328304948E1
8.528496875E0,1.088826048E1,-2.051944678E1,6.817897305E0,2.420920561E1
8.538536875E0,7.327402042E0,-1.910230390E1,9.854535903E0,2.270904473E1
8.548576875E0,1.571700577E0,-1.506438985E1,1.002555410E1,1.816364003E1
8.558617875E0,-1.918010403E0,-1.072175166E1,8.320720021E0,1.370653509E1
8.568657875E0,-3.777875508E0,-7.705535631E0,5.841254416E0,1.038113076E1
8.578697875E0,-3.483288690E0,-4.802953808E0,3.544796137E0,6.911385174E0
8.588738875E0,-2.977520324E0,-1.986639465E0,2.311219575E0,4.260762792E0
8.598778875E0,-2.133186184E0,6.576737666E-1,1.854723941E0,2.902243783E0
8.608818875E0,-6.383181672E-1,3.089800313E0,1.407731202E0,3.454855018E0
8.618859875E0,5.068367989E-1,5.310333667E0,6.107277147E-1,5.369312389E0
8.628899875E0,9.277687906E-1,7.990866306E0,-1.239324374E0,8.139448640E0
8.638939875E0,7.934459679E-1,1.077218740E1,-1.983259774E0,1.098193504E1
8.648980875E0,5.423864083E-1,1.357021341E1,-2.104564941E0,1.374314624E1
8.659020875E0,-4.101197590E-1,1.553328859E1,-2.138008091E0,1.568509902E1
8.669060875E0,-1.329965572E0,1.680033228E1,-1.776939601E0,1.694631191E1
8.679101875E0,-1.039540510E0,1.749383194E1,-1.587540100E0,1.759645089E1
8.689141875E0,-5.981200214E-1,1.796271431E1,-1.619014492E0,1.804544433E1
8.699181875E0,-1.087961157E0,1.827653672E1,-1.280583497E0,1.835361948E1
8.709222875E0,-2.157928970E0,1.803605009E1,-1.224109919E0,1.820588381E1
8.719262875E0,-3.340830052E0,1.645182887E1,-9.813101363E-1,1.681626558E1
8.729302875E0,-4.086960205E0,1.342063228E1,-1.159066150E0,1.407693322E1
8.739343875E0,-5.382455564E0,1.053074417E1,-1.818342565E0,1.196552424E1
8.749383875E0,-7.276372222E0,8.123710953E0,-2.621255322E0,1.121656150E1
8.759423875E0,-9.159508953E0,6.584424416E0,-3.698843372E0,1.187150755E1
8.769464875E0,-9.953970144E0,6.465713074E0,-4.571129249E0,1.271936279E1
8.779504875E0,-8.822747338E0,7.214922663E0,-4.869928985E0,1.239403840E1
8.789544875E0,-6.929426512E0,7.593237516E0,-4.567222139E0,1.124872107E1
8.799585875E0,-5.233749175E0,7.884683209E0,-3.945163178E0,1.025303234E1
8.809625875E0,-3.252999026E0,7.266215608E0,-3.432353010E0,8.669540882E0
8.819665875E0,-1.859446299E0,6.467516940E0,-2.498685402E0,7.178422156E0
8.829706875E0,-1.221521503E0,6.074685790E0,-1.062001128E0,6.286634125E0
8.839746875E0,-4.837524301E-1,5.297513062E0,-9.029972076E-2,5.320320958E0
8.849786875E0,2.938379355E-1,3.620060912E0,1.839387864E-1,3.636621401E0
8.859827875E0,1.524184349E0,-3.633149904E-1,-8.946567392E-1,1.804313274E0
8.869867875E0,3.690156164E0,-1.095891005E1,-4.244233056E0,1.231781134E1
8.879907875E0,1.020971566E1,-3.876185213E1,-9.836609509E0,4.127321602E1
8.889948875E0,2.280324291E1,-6.745231032E1,-1.487203399E1,7.273911912E1
8.899988875E0,2.264071371E1,-4.516271958E1,-6.029227781E0,5.087852931E1
8.910028875E0,1.211732065E1,-1.738904632E1,2.578243203E0,2.135077820E1
8.920069875E0,7.744211454E0,-8.557556228E0,6.799660424E0,1.339552020E1
8.930109875E0,5.181704278E0,-8.964716565E0,9.938031803E0,1.435202698E1
8.940149875E0,1.385503304E0,-1.317562926E1,7.508731216E0,1.522819327E1
8.950190875E0,9.533446580E-3,-1.304976561E1,3.701418778E0,1.356454844E1
8.960230875E0,3.140671089E-2,-1.161413500E1,2.127953657E0,1.180751053E1
8.970271875E0,-5.239706026E-1,-9.813724676E0,1.427742566E0,9.930870357E0
8.980311875E0,-5.665897880E-1,-7.774241585E0,4.715859823E-1,7.809113237E0
8.990351875E0,-9.363622972E-1,-5.830517759E0,-2.026843020E-1,5.908704817E0
9.000391875E0,-7.441068698E-1,-3.012251616E0,-5.282024518E-1,3.147435886E0
9.010432875E0,-7.974154964E-2,5.813828051E-2,-3.005703465E-1,3.163562985E-1
9.020472875E0,3.402918711E-2,2.827686592E0,1.692639562E-1,2.832952477E0
9.030513875E0,3.551973009E-1,6.005142515E0,4.703465553E-1,6.033997649E0
9.040553875E0,8.288505663E-1,8.845540370E0,8.350406846E-2,8.884680671E0
9.050593875E0,1.765185528E0,1.051009882E1,3.594061267E-1,1.066335923E1
9.060634875E0,2.750509778E0,1.200731348E1,5.515674870E-2,1.231843834E1
9.070674875E0,3.086149604E0,1.322207019E1,-9.920602423E-1,1.361365649E1
9.080714875E0,2.931149565E0,1.408558700E1,-1.727855734E0,1.449071717E1
9.090755875E0,2.358600441E0,1.463875465E1,-2.152024451E0,1.498290168E1
9.100795875E0,1.271363461E0,1.529108406E1,-2.220236315E0,1.550364686E1
9.110835875E0,6.273618007E-1,1.588913611E1,-2.111565812E0,1.604110156E1
9.120876875E0,-1.529372875E-1,1.595199718E1,-2.197138644E0,1.610332333E1
9.130916875E0,-1.167454492E0,1.528165133E1,-2.623829266E0,1.554915745E1
9.140956875E0,-1.805344643E0,1.414365219E1,-2.866826684E0,1.454375679E1
9.150997875E0,-2.110966180E0,1.251421796E1,-3.263917531E0,1.310400652E1
9.161037875E0,-2.708409825E0,1.115580217E1,-3.870717013E0,1.211486096E1
9.171077875E0,-3.547150226E0,1.000092562E1,-4.471993800E0,1.151518635E1
9.181118875E0,-3.913458990E0,9.120702737E0,-4.792266852E0,1.102126133E1
9.191158875E0,-3.349140407E0,8.413016565E0,-4.452990934E0,1.009082343E1
9.201198875E0,-3.232047282E0,8.017469383E0,-3.657811121E0,9.386454450E0
9.211239875E0,-3.394443172E0,8.605013984E0,-2.631493211E0,9.617341974E0
9.221279875E0,-3.638933385E0,8.953409804E0,-1.583073412E0,9.793441924E0
9.231319875E0,-3.911092622E0,9.234576092E0,-5.572280303E-1,1.004412984E1
9.241360875E0,-3.872540175E0,9.616201054E0,-9.037460167E-2,1.036706601E1
9.251400875E0,-3.763046092E0,9.592958372E0,-1.377282776E-1,1.030554876E1
9.261440875E0,-3.356253253E0,8.727901992E0,-3.291830385E-1,9.356766031E0
9.271481875E0,-3.232009276E0,7.267386805E0,-7.328783154E-1,7.987359111E0
9.281521875E0,-2.928316297E0,3.938155290E0,-1.778424793E0,5.219856145E0
9.291561875E0,-2.510372525E0,-1.152080993E0,-3.156118848E0,4.194084764E0
9.301602875E0,-1.682738618E0,-1.230735165E1,-4.257672297E0,1.313127135E1
9.311642875E0,-4.653664452E-1,-4.252537740E1,-9.472981693E0,4.357019246E1
9.321682875E0,4.542243126E0,-7.572184967E1,-1.340191651E1,7.703273236E1
9.331723875E0,9.033747039E0,-4.324760209E1,-3.813110830E0,4.434527580E1
9.341763875E0,8.933902323E0,-1.001786384E1,4.271103936E0,1.408596945E1
9.351803875E0,1.350248277E1,-5.191707110E0,1.110934838E1,1.823975014E1
9.361844875E0,1.169153576E1,-1.025423753E1,1.080352614E1,1.893561652E1
9.371884875E0,8.649305474E0,-1.766837249E1,5.793044708E0,2.050710215E1
9.381924875E0,7.547462588E0,-2.205380294E1,2.948720156E0,2.349530520E1
9.391965875E0,5.713992106E0,-2.070771075E1,2.424883308E0,2.161802603E1
9.402005875E0,2.538909276E0,-1.634905587E1,2.024449754E0,1.666841579E1
9.412045875E0,-3.337514681E-1,-1.284621701E1,1.303014732E0,1.291644413E1
9.422086375E0,-1.568715427E0,-9.837851458E0,8.549025433E-1,9.998752310E0
9.432126375E0,-1.035274674E0,-6.117344736E0,8.775780456E-1,6.266086777E0
9.442166375E0,1.127755406E-1,-2.454352983E0,7.672658638E-1,2.573958778E0
9.452207375E0,7.529902522E-1,5.549387723E-1,1.200409985E0,1.521819796E0
9.462247375E0,6.088787520E-1,3.876346128E0,1.167650374E0,4.093922329E0
9.472287375E0,1.359733747E0,6.389761836E0,4.113469434E-1,6.545772566E0
9.482328375E0,3.162379754E0,8.617791905E0,-5.679903424E-1,9.197260247E0
9.492368375E0,5.243395911E0,9.692801918E0,-1.431791325E0,1.111276906E1
9.502408375E0,6.252354607E0,1.163263325E1,-3.210631270E0,1.359110914E1
9.512449375E0,5.857675737E0,1.407908489E1,-5.298076149E0,1.614319074E1
9.522489375E0,4.971183465E0,1.552953234E1,-4.985523176E0,1.705093784E1
9.532529375E0,2.812699302E0,1.579022344E1,-3.069732669E0,1.632990178E1
9.542570375E0,1.453294753E0,1.640660884E1,-2.380368748E0,1.664196607E1
9.552610375E0,1.338893101E0,1.713318620E1,-1.920856535E0,1.729243748E1
9.562650375E0,6.559731039E-1,1.747565060E1,-1.401235676E0,1.754400542E1
9.572691375E0,-2.534998219E-1,1.687904516E1,-1.590862780E0,1.695574451E1
9.582731375E0,-1.064506367E0,1.433744645E1,-2.755004240E0,1.463849695E1
9.592771375E0,-1.515153470E0,1.189859503E1,-2.604174435E0,1.227411822E1
9.602812375E0,-3.105483130E0,9.992049551E0,-3.444594156E0,1.101591161E1
9.612852375E0,-4.393055220E0,8.487021266E0,-4.482911137E0,1.055580202E1
9.622892375E0,-4.989687563E0,7.433835400E0,-5.875378182E0,1.070882624E1
9.632933375E0,-5.240728996E0,6.607374737E0,-6.298126611E0,1.052563728E1
9.642973375E0,-5.515677940E0,6.615487164E0,-4.703910745E0,9.813977270E0
9.653013375E0,-5.826203683E0,7.016185158E0,-3.159272252E0,9.651554522E0
9.663054375E0,-6.178888435E0,7.659625048E0,-2.229308416E0,1.009050713E1
9.673094375E0,-5.958366544E0,8.495529549E0,-1.555805506E0,1.049269674E1
9.683134375E0,-5.053533896E0,8.978607795E0,-1.442669485E0,1.040360024E1
9.693175375E0,-4.073718892E0,8.952122247E0,-1.987377384E0,1.003420885E1
9.703215375E0,-3.032935556E0,7.825475473E0,-1.953976334E0,8.617121792E0
9.713256375E0,-2.478847846E0,6.676116943E0,-1.543528692E0,7.286817200E0
9.723296375E0,-2.355466918E0,5.880419067E0,-1.334679013E0,6.473709977E0
9.733336375E0,-2.498449175E0,4.423801634E0,-1.756683676E0,5.375705229E0
9.743376375E0,-1.892753062E0,6.806696963E-1,-3.198783642E0,3.778629669E0
9.753417375E0,-7.805344386E-1,-8.169216909E0,-5.659734038E0,9.968847892E0
9.763457375E0,1.540841604E0,-2.691572066E1,-9.552129604E0,2.860198230E1
9.773498375E0,7.214371855E0,-5.229887206E1,-1.432894694E1,5.470409400E1
9.783538375E0,1.331730847E1,-4.784630154E1,-8.887766622E0,5.045405506E1
9.793578375E0,1.502530121E1,-2.482110066E1,2.166027217E0,2.909533276E1
9.803619375E0,1.634383314E1,-1.593672426E1,4.097006013E0,2.319235908E1
9.813659375E0,1.386519140E1,-1.328306600E1,4.926392623E0,1.982303507E1
9.823699375E0,8.062464877E0,-1.564110307E1,4.740310832E0,1.822410469E1
9.833740375E0,4.183352432E0,-1.743626142E1,4.109439533E0,1.839595453E1
9.843780375E0,8.452052285E-1,-1.733445204E1,4.398111892E0,1.790365850E1
9.853820375E0,-8.558132471E-1,-1.629839559E1,4.207793208E0,1.685454357E1
9.863861375E0,-2.200262080E0,-1.471399896E1,3.222492932E0,1.522259437E1
9.873901375E0,-2.891921472E0,-1.246217540E1,2.040666714E0,1.295505099E1
9.883941375E0,-1.666847786E0,-9.624506439E0,1.165074091E0,9.837016996E0
9.893982375E0,2.610441189E-1,-6.507690820E0,6.414921820E-1,6.544440088E0
9.904022375E0,1.402769547E0,-3.374921073E0,5.029377294E-1,3.689281910E0
9.914062375E0,1.933757393E0,-2.550175399E-1,9.836735809E-1,2.184505737E0
9.924103375E0,2.086099142E0,2.542312063E0,1.412110766E0,3.578996657E0
9.934143375E0,2.126749569E0,4.790014504E0,1.517933821E0,5.456319801E0
9.944183375E0,1.940536362E0,7.166198400E0,1.544815664E0,7.583306424E0
9.954224375E0,1.613775825E0,9.514012190E0,6.070590985E-1,9.668982423E0
9.964264375E0,1.725594469E0,1.128199795E1,-7.498597991E-1,1.143780764E1
9.974304375E0,1.440326798E0,1.299650449E1,-1.487453309E0,1.316040226E1
9.984345375E0,6.206323133E-1,1.454066176E1,-2.045454853E0,1.469693554E1
9.994385375E0,-8.795886107E-2,1.556591021E1,-2.053371983E0,1.570100742E1
1.000442538E1,-8.768722136E-1,1.621343438E1,-1.252308117E0,1.628535032E1
1.001446637E1,-1.808022814E0,1.692388628E1,-5.314282876E-1,1.702848465E1
1.002450637E1,-2.341024149E0,1.753652012E1,-4.017142403E-1,1.769664675E1
1.003454638E1,-3.112269116E0,1.764046490E1,-8.980865698E-1,1.793540578E1
1.004458738E1,-4.408172903E0,1.683328719E1,-2.335877284E0,1.755698916E1
1.005462737E1,-6.327927530E0,1.366285903E1,-5.148664586E0,1.591304907E1
1.006466737E1,-6.668837160E0,1.018798975E1,-5.425658301E0,1.333065235E1
1.007470838E1,-7.448812459E0,7.327998458E0,-6.097203417E0,1.209794437E1
1.008474837E1,-7.896333202E0,5.526882960E0,-6.134562448E0,1.142503259E1
1.009478837E1,-7.033038588E0,4.912073377E0,-5.094602399E0,9.977327811E0
1.010482937E1,-5.905570865E0,5.265774375E0,-3.128117702E0,8.508188254E0
1.011486938E1,-4.515658468E0,5.944402224E0,-1.656664860E0,7.646674287E0
1.012490937E1,-2.893957765E0,6.483027264E0,-1.064281615E0,7.178950440E0
1.013495037E1,-1.111936057E0,7.129471453E0,-7.828932054E-1,7.258008458E0
1.014499038E1,8.398048863E-2,7.862700017E0,-4.251165515E-1,7.874631951E0
1.015503037E1,8.288070045E-1,8.677403099E0,3.272031713E-1,8.723033160E0
1.016507137E1,1.254309180E0,9.240561887E0,1.448040737E0,9.437059790E0
1.017511137E1,1.474874925E0,9.161257855E0,2.169497686E0,9.529460727E0
1.018515138E1,1.658746030E0,8.046642312E0,1.398758065E0,8.334051536E0
1.019519237E1,2.407224424E0,5.871585678E0,-1.952759528E-1,6.348888131E0
1.020523237E1,3.624267399E0,1.117021673E0,-2.453642546E0,4.517013763E0
1.021527238E1,6.063866687E0,-1.157038730E1,-6.466197224E0,1.457587212E1
1.022531338E1,1.135917535E1,-4.807773901E1,-1.512413436E1,5.166468130E1
1.023535337E1,1.677160725E1,-8.246501312E1,-1.717818637E1,8.588862140E1
1.024539337E1,1.354767707E1,-4.612187812E1,-4.201180007E0,4.825367457E1
1.025543438E1,5.658714284E0,-1.292135724E1,2.913656048E-1,1.410912521E1
1.026547437E1,3.364311593E0,-4.867136940E0,2.152845401E0,6.296217738E0
1.027551537E1,3.869210186E0,-5.112621179E0,4.384595468E0,7.767519566E0
1.028555538E1,4.798385963E0,-1.045857550E1,7.454117053E0,1.371022138E1
1.029559538E1,2.838751863E0,-1.222373998E1,8.640673814E0,1.523612730E1
1.030563637E1,-2.646362096E-2,-9.405206616E0,7.835693482E0,1.224159729E1
1.031567637E1,-1.050337248E0,-5.790421647E0,7.783000714E0,9.757422369E0
1.032571638E1,-1.369793297E0,-2.569778189E0,6.841842238E0,7.435785017E0
1.033575737E1,-1.395371211E0,-7.548170686E-3,4.896086504E0,5.091049091E0
1.034579737E1,-1.318098502E0,1.911767623E0,3.259519840E0,4.002088042E0
1.035583738E1,-1.038727017E0,4.015712759E0,1.967786872E0,4.590978975E0
1.036587838E1,-5.402179684E-1,6.123401282E0,1.089568995E0,6.242999224E0
1.037591837E1,5.216270386E-1,8.155336788E0,5.036744785E-1,8.187508832E0
1.038595837E1,1.245479446E0,9.631283362E0,3.488331914E-2,9.711542364E0
1.039599938E1,1.420187818E0,1.110696155E1,-3.970393914E-1,1.120442629E1
1.040603937E1,2.430956372E0,1.259406519E1,-9.771311313E-1,1.286370134E1
1.041607937E1,3.085970679E0,1.400968546E1,-1.532717775E0,1.442718703E1
1.042612100E1,2.411564520E0,1.520229526E1,-1.806341740E0,1.549800939E1
1.043616100E1,1.212061512E0,1.565342900E1,-1.662033627E0,1.578801090E1
1.044620100E1,2.325865974E-1,1.543825614E1,-1.201869450E0,1.548671493E1
1.045624200E1,-4.227862168E-1,1.491353168E1,-3.745135778E-1,1.492422312E1
1.046628200E1,-1.448885952E0,1.328072946E1,1.224260412E-1,1.336009107E1
1.047632200E1,-2.806557971E0,1.122733701E1,-8.012618680E-2,1.157308447E1
1.048636300E1,-4.308927820E0,9.253661404E0,-3.159811950E-1,1.021258794E1
1.049640300E1,-5.817970803E0,7.484261788E0,-2.851020491E-1,9.483893819E0
1.050644300E1,-6.533629653E0,6.691688079E0,1.647424139E-1,9.353830544E0
1.051648400E1,-6.377585594E0,7.203211859E0,3.638231134E-1,9.627680217E0
1.052652400E1,-5.644776276E0,8.108478956E0,5.203296876E-1,9.893516724E0
1.053656400E1,-5.042785544E0,9.045217522E0,1.124583292E0,1.041682935E1
1.054660500E1,-4.880845445E0,9.709469991E0,1.764271023E0,1.100950099E1
1.055664500E1,-4.745105549E0,9.894365966E0,2.426228460E0,1.123837573E1
1.056668500E1,-5.001176172E0,9.555004095E0,2.676258910E0,1.111180580E1
1.057672600E1,-5.970375556E0,8.698167731E0,1.870420207E0,1.071456849E1
1.058676600E1,-5.868738084E0,6.160816446E0,-6.977482438E-1,8.537247717E0
1.059680600E1,-4.131368053E0,1.729744969E0,-4.273057491E0,6.190253627E0
1.060684700E1,-4.555924734E0,-4.940006111E0,-8.320049930E0,1.069501479E1
1.061688700E1,-5.627159200E0,-1.839794128E1,-1.555243706E1,2.473918880E1
1.062692700E1,1.972621058E-1,-3.851843722E1,-1.981884743E1,4.331853681E1
1.063696800E1,1.631962332E1,-4.806415476E1,-1.397503837E1,5.264783733E1
1.064700800E1,2.307772057E1,-3.333547696E1,-9.809020007E-1,4.055610163E1
1.065704800E1,1.631244294E1,-1.669253535E1,4.249571857E0,2.372330905E1
1.066708900E1,1.126586899E1,-1.036863597E1,6.967641574E0,1.682190373E1
1.067712900E1,1.007594072E1,-1.019503681E1,1.113041122E1,1.814798642E1
1.068716900E1,8.286854117E0,-1.332597404E1,1.183324654E1,1.965398838E1
1.069721000E1,6.513537451E0,-1.817609558E1,5.934790571E0,2.019946435E1
1.070725000E1,6.578288348E0,-1.874552551E1,3.791429646E-1,1.986988560E1
1.071729100E1,6.280005505E0,-1.577360097E1,-1.781361265E0,1.707097551E1
1.072733100E1,5.474575523E0,-1.212602950E1,-2.291950515E0,1.350054094E1
1.073737100E1,2.812093822E0,-8.716337954E0,-1.985066272E0,9.371387682E0
1.074741100E1,1.035417931E0,-5.556937648E0,-1.073214333E0,5.753558492E0
1.075745200E1,7.953748181E-1,-2.317557957E0,-2.194192524E-1,2.460048941E0
1.076749200E1,7.369889081E-1,6.820116323E-1,6.430519268E-2,1.006194651E0
1.077753300E1,6.217704007E-1,3.126001010E0,4.526831766E-1,3.219223944E0
1.078757300E1,3.288218267E-1,5.108327569E0,6.533058965E-1,5.160420810E0
1.079761300E1,-4.056312901E-1,6.911679627E0,1.410091503E-1,6.925007985E0
1.080765400E1,-1.192591819E0,8.629648889E0,-3.159040483E-1,8.717391270E0
1.081769400E1,-1.477531023E0,9.883181412E0,-4.951480687E-1,1.000527583E1
1.082773400E1,-1.796376769E0,1.052666516E1,-7.958586752E-2,1.067913773E1
1.083777500E1,-2.264905827E0,1.142651656E1,3.733575833E-1,1.165480480E1
1.084781500E1,-3.249584836E0,1.248884806E1,1.644622592E-1,1.290574195E1
1.085785500E1,-4.119198536E0,1.348321736E1,-3.588078835E-1,1.410296742E1
1.086789600E1,-5.272781678E0,1.408710844E1,-1.445831659E0,1.511089938E1
1.087793600E1,-7.313205003E0,1.403095412E1,-3.809356332E0,1.627457639E1
1.088797600E1,-8.840760856E0,1.310968553E1,-5.196429906E0,1.664409178E1
1.089801700E1,-9.679743916E0,1.233437982E1,-5.318781724E0,1.655668466E1
1.090805700E1,-1.006035088E1,1.150037391E1,-4.956874158E0,1.606361918E1
1.091809700E1,-9.731509901E0,1.064796448E1,-3.921325834E0,1.494851928E1
1.092813800E1,-8.483326410E0,9.972739706E0,-2.842822695E0,1.339791048E1
1.093817800E1,-6.376826041E0,9.243430531E0,-1.984304087E0,1.140361263E1
1.094821800E1,-4.544707728E0,8.863336371E0,-1.347425504E0,1.005130118E1
1.095825900E1,-3.052335741E0,8.890684968E0,-7.577417728E-1,9.430546393E0
1.096829900E1,-1.699315620E0,8.972690998E0,-3.153519980E-1,9.137631214E0
1.097833900E1,-8.936184199E-1,8.660208192E0,-1.394560933E-2,8.706202059E0
1.098838000E1,-1.123089913E0,8.092930040E0,1.408641211E-1,8.171700575E0
1.099842000E1,-1.519464184E0,7.751453816E0,6.922816819E-1,7.929253533E0
1.100846000E1,-1.709050065E0,7.125447984E0,6.979932421E-1,7.360710269E0
1.101850100E1,-1.650675995E0,7.011096911E0,2.188981193E-1,7.206117369E0
1.102854100E1,-1.126858736E0,6.618563384E0,-8.798428184E-1,6.771212245E0
1.103858100E1,-1.067765898E-1,4.517489231E0,-2.883515223E0,5.360389000E0
1.104862200E1,1.289733074E0,-1.788160408E-1,-5.526346770E0,5.677666352E0
1.105866200E1,3.276523544E0,-1.109234468E1,-8.120846987E0,1.413236968E1
1.106870200E1,6.457560301E0,-3.437891493E1,-1.142026589E1,3.679717856E1
1.107874300E1,1.288895782E1,-5.784113437E1,-1.292883700E1,6.065374584E1
1.108878300E1,1.602182931E1,-4.056155494E1,-3.758979646E0,4.377292178E1
1.109882300E1,1.220960960E1,-1.796408022E1,1.110464459E0,2.174892816E1
1.110886400E1,9.950238451E0,-1.307509107E1,1.905859158E0,1.654078447E1
1.111890400E1,9.026232197E0,-1.462249237E1,2.173141086E0,1.732087449E1
1.112894400E1,7.413727995E0,-1.772993549E1,1.684956905E0,1.929126888E1
1.113898500E1,5.465712898E0,-1.741062840E1,1.917725205E0,1.834888739E1
1.114902500E1,3.988084080E0,-1.497043912E1,2.508506970E0,1.569431328E1
1.115906600E1,2.411188252E0,-1.237906074E1,2.234910049E0,1.280819255E1
1.116910600E1,1.529791390E0,-9.486929056E0,1.903585468E0,9.796209586E0
1.117914600E1,1.023243297E0,-7.067040147E0,1.782627918E0,7.359880813E0
1.118918700E1,8.878384472E-1,-4.554159459E0,2.591033403E0,5.314327764E0
1.119922700E1,1.231000132E0,-1.783493160E0,3.646369289E0,4.241723490E0
1.120926700E1,1.074571472E0,1.076398727E0,4.062502763E0,4.337887362E0
1.121930800E1,6.155800997E-1,3.863677551E0,3.962570339E0,5.568564157E0
1.122934800E1,7.410717264E-2,6.552279932E0,3.433600806E0,7.397802287E0
1.123938800E1,-2.326669966E-1,8.781572415E0,2.758152673E0,9.207472736E0
1.124942900E1,-6.747102141E-3,1.062055039E1,2.142346140E0,1.083447198E1
1.125946900E1,2.629133275E-1,1.240891428E1,1.556620023E0,1.250893053E1
1.126950900E1,2.893133600E-1,1.397927526E1,1.110341814E0,1.402628596E1
1.127955000E1,-1.371832806E-1,1.545448918E1,7.577137792E-1,1.547366101E1
1.128959000E1,-8.656171274E-1,1.673240167E1,4.224835503E-1,1.676010295E1
1.129963000E1,-1.135552815E0,1.754825197E1,7.010928512E-2,1.758509434E1
1.130967100E1,-1.238130665E0,1.792909516E1,-7.142274517E-1,1.798598181E1
1.131971100E1,-2.398777244E0,1.733338551E1,-2.003330927E0,1.761288506E1
1.132975100E1,-4.175361627E0,1.553200455E1,-3.943187989E0,1.655975668E1
1.133979200E1,-5.377437483E0,1.270504886E1,-5.497148114E0,1.485105174E1
1.134983200E1,-6.596322915E0,9.905220737E0,-5.159658521E0,1.297100420E1
1.135987200E1,-8.441086124E0,7.729896886E0,-6.583570138E0,1.320403865E1
1.136991300E1,-9.505731947E0,6.480653880E0,-7.655110413E0,1.381877455E1
1.137995300E1,-9.878981942E0,6.089254128E0,-6.710390398E0,1.340532131E1
1.138999300E1,-8.979312385E0,6.722232179E0,-4.535237285E0,1.209896002E1
1.140003400E1,-7.877726777E0,7.343745010E0,-2.177421833E0,1.098773570E1
1.141007400E1,-6.967469666E0,7.396233126E0,-8.939205748E-1,1.020044077E1
1.142011400E1,-5.284551539E0,7.367220996E0,-3.244281192E-1,9.072358226E0
1.143015488E1,-4.103743760E0,7.606553965E0,1.356484230E-1,8.644002346E0
1.144019488E1,-3.226186326E0,8.466119224E0,3.784932293E-1,9.067894466E0
1.145023487E1,-1.905184243E0,8.727376912E0,5.141591209E-1,8.947692125E0
1.146027587E1,-1.187884518E0,8.210710505E0,8.059449395E-2,8.296585569E0
1.147031588E1,-7.379770875E-3,7.876104174E0,-3.728933144E-1,7.884929984E0
1.148035587E1,8.978523888E-1,7.618872879E0,-9.246997333E-1,7.727123168E0
1.149039687E1,1.466709142E0,5.835144076E0,-2.045242599E0,6.354774534E0
1.150043688E1,2.377162427E0,1.142955828E0,-3.859385694E0,4.674623746E0
1.151047688E1,3.831280175E0,-1.199974952E1,-6.670923446E0,1.425390879E1
1.152051787E1,7.629547555E0,-5.320101324E1,-1.275816379E1,5.523883189E1
1.153055787E1,1.794290161E1,-8.782811674E1,-1.570182991E1,9.100699572E1
1.154059788E1,2.024783659E1,-4.623164206E1,-4.017710752E0,5.063083659E1
1.155063887E1,1.473782285E1,-1.717929500E1,2.411237369E0,2.276281320E1
1.156067887E1,1.259747412E1,-8.409336328E0,2.369971375E0,1.533069000E1
1.157071888E1,8.394122458E0,-7.397268668E0,4.249274526E0,1.196817486E1
1.158075988E1,5.656106426E0,-1.126076905E1,8.193387544E0,1.503090346E1
1.159079987E1,2.415808576E0,-1.155293804E1,8.891961415E0,1.477746549E1
1.160084087E1,9.719351493E-1,-9.811319132E0,6.795616490E0,1.197443295E1
1.161088088E1,6.730823493E-1,-7.425926456E0,4.575591259E0,8.748340354E0
1.162092087E1,1.668861128E-1,-4.687294713E0,3.335271689E0,5.755225446E0
1.163096187E1,-1.262329075E-1,-2.180713230E0,2.725849146E0,3.493092971E0
1.164100188E1,-4.603284842E-1,4.612441581E-1,2.485341471E0,2.569352198E0
1.165104188E1,-8.130471504E-1,2.943680148E0,2.368086233E0,3.864470324E0
1.166108287E1,-5.621747017E-1,5.178661972E0,2.241100935E0,5.670724258E0
1.167112287E1,-4.898459597E-1,7.181570145E0,2.190871013E0,7.524281667E0
1.168116288E1,-5.559545799E-1,8.648233679E0,1.858107140E0,8.863046508E0
1.169120388E1,-8.477601694E-1,9.976133430E0,1.155326782E0,1.007852745E1
1.170124387E1,-1.238967986E0,1.153470058E1,6.087852331E-1,1.161701246E1
1.171128388E1,-1.403098745E0,1.300295163E1,2.899166465E-1,1.308164702E1
1.172132488E1,-1.766832688E0,1.442643874E1,3.027384027E-1,1.453738226E1
1.173136487E1,-1.871797811E0,1.592964795E1,1.196807734E-1,1.603968935E1
1.174140487E1,-1.091377685E0,1.739497072E1,-5.374696674E-1,1.743745926E1
1.175144588E1,-1.179041774E0,1.821615720E1,-1.663808257E0,1.832994218E1
1.176148588E1,-2.162089118E0,1.842170437E1,-2.876016753E0,1.876979738E1
1.177152587E1,-3.026132028E0,1.830873733E1,-3.619169796E0,1.890676407E1
1.178156687E1,-4.332326330E0,1.663808140E1,-4.644055138E0,1.780904411E1
1.179160688E1,-6.306222666E0,1.349823886E1,-6.353715506E0,1.619693173E1
1.180164687E1,-7.022034713E0,1.029096740E1,-7.376125136E0,1.447826659E1
1.181168787E1,-6.252034180E0,8.138306188E0,-6.593677635E0,1.219821888E1
1.182172788E1,-5.417507867E0,7.725099830E0,-5.283834085E0,1.081413249E1
1.183176788E1,-4.223338616E0,7.854140863E0,-3.238877415E0,9.487594251E0
1.184180887E1,-2.342731390E0,7.645278904E0,-1.752695875E0,8.186001632E0
1.185184887E1,-1.281287794E0,7.289144880E0,-5.448827674E-1,7.420931796E0
1.186188888E1,-9.437093237E-1,7.086518392E0,7.718155092E-1,7.190620932E0
1.187192987E1,-4.304160292E-1,6.672884603E0,1.746533495E0,6.911079954E0
1.188196987E1,-7.359422565E-1,5.231377544E0,1.822122205E0,5.588295925E0
1.189200988E1,-8.399665618E-1,2.142242060E0,8.360196912E-1,2.448198070E0
1.190205088E1,-5.122292474E-1,-3.491110511E0,-1.409306442E0,3.799523134E0
1.191209087E1,1.589026754E0,-1.807343017E1,-6.033419065E0,1.912004262E1
1.192213087E1,7.751006504E0,-5.570396301E1,-1.555485430E1,5.835206157E1
1.193217188E1,1.505182769E1,-6.809366568E1,-1.562152074E1,7.146563323E1
1.194221187E1,8.854611740E0,-2.805194693E1,-2.685805074E0,2.953860904E1
1.195225187E1,5.482173979E0,-9.739542806E0,3.112226139E0,1.160167562E1
1.196229288E1,7.717138846E0,-6.683359889E0,6.702871463E0,1.221269902E1
1.197233288E1,6.136754569E0,-1.201552531E1,5.772315159E0,1.467488423E1
1.198237287E1,6.000813237E0,-1.620235391E1,2.542314402E0,1.746394555E1
1.199241387E1,7.125960200E0,-1.646799759E1,1.324836541E0,1.799248302E1
1.200245388E1,4.888845897E0,-1.429250359E1,2.041392792E0,1.524282643E1
1.201249387E1,2.279465394E0,-1.115882869E1,3.006217289E0,1.177933625E1
1.202253487E1,-1.129875022E-1,-8.385522957E0,3.572237120E0,9.115406710E0
1.203257488E1,-1.776451358E0,-5.689353694E0,4.525679426E0,7.483735641E0
1.204261488E1,-2.008620903E0,-2.899802057E0,5.602937694E0,6.620900294E0
1.205265587E1,-1.772984544E0,3.481198311E-2,6.171657768E0,6.421374127E0
1.206269587E1,-1.648703145E0,3.431429735E0,5.918730608E0,7.037350645E0
1.207273588E1,-1.209787749E0,6.807980427E0,5.022681062E0,8.546315519E0
1.208277688E1,-1.915949990E0,9.001147057E0,3.861864914E0,9.980256175E0
1.209281687E1,-2.135279341E0,1.061094458E1,2.933136449E0,1.121404709E1
1.210285787E1,-2.058820126E0,1.220648367E1,1.873187109E0,1.251981685E1
1.211289788E1,-2.339459288E0,1.350863755E1,4.054131889E-1,1.371571063E1
1.212293787E1,-2.669866734E0,1.416400517E1,-1.086674623E0,1.445434511E1
1.213297887E1,-3.169334433E0,1.430960084E1,-1.933344433E0,1.478334122E1
1.214301888E1,-4.056559069E0,1.456764666E1,-2.405793611E0,1.531208162E1
1.215305888E1,-5.514655262E0,1.438803072E1,-3.019398667E0,1.570170752E1
1.216309987E1,-7.249609516E0,1.322474354E1,-4.020322704E0,1.560812847E1
1.217313987E1,-7.493150725E0,1.200270821E1,-3.630812772E0,1.460804961E1
1.218317988E1,-7.668912181E0,1.071440873E1,-5.248348503E0,1.418294505E1
1.219322087E1,-7.081545335E0,9.686329050E0,-6.645947649E0,1.371648187E1
1.220326087E1,-5.616062939E0,9.300098822E0,-7.020005144E0,1.293493229E1
1.221330088E1,-3.822889421E0,9.092757139E0,-6.986228703E0,1.208718774E1
1.222334188E1,-1.697019565E0,8.563792868E0,-6.471985967E0,1.086761363E1
1.223338187E1,2.520278585E-1,8.021220957E0,-5.822969003E0,9.915163725E0
1.224342187E1,2.214633367E0,7.639593072E0,-5.447726278E0,9.640835278E0
1.225346288E1,4.023338698E0,7.309438226E0,-4.975960055E0,9.714696080E0
1.226350287E1,4.989533197E0,7.206735976E0,-4.363218632E0,9.791330951E0
1.227354287E1,5.373749644E0,7.487140372E0,-3.336375058E0,9.801319030E0
1.228358388E1,5.722166514E0,7.593586594E0,-2.634445471E0,9.866410184E0
1.229362388E1,5.906478937E0,8.402721373E0,-1.526020374E0,1.038368711E1
1.230366387E1,5.720721082E0,9.292834826E0,-1.170039546E-1,1.091316264E1
1.231370487E1,4.317731680E0,8.527059490E0,9.187460983E-1,9.601960467E0
1.232374488E1,2.716475474E0,4.929785178E0,1.133172852E0,5.741611413E0
1.233378487E1,2.103794132E0,-2.651243352E0,4.506807245E-2,3.384829714E0
1.234382587E1,1.525714419E0,-1.617712434E1,-1.069725884E0,1.628408640E1
1.235386588E1,2.459388020E0,-4.002093541E1,-3.643498014E0,4.026163109E1
1.236390588E1,6.993868675E0,-5.239696963E1,-5.170443710E0,5.311393521E1
1.237394687E1,9.104642774E0,-2.503431119E1,6.850140314E-1,2.664733573E1
1.238398687E1,6.992953001E0,-1.191194305E1,2.379193457E0,1.401628840E1
1.239402688E1,3.426297049E0,-1.289068626E1,1.040129764E0,1.337875830E1
1.240406788E1,5.161655930E-1,-1.819228535E1,-1.514993841E0,1.826255403E1
1.241410787E1,-1.481679038E0,-2.216837329E1,-2.797683359E0,2.239328424E1
1.242414800E1,-1.925191661E0,-2.254814527E1,-3.274664129E0,2.286588382E1
1.243418900E1,-1.104511116E0,-2.035245030E1,-3.416696506E0,2.066678478E1
1.244422900E1,3.408181205E-1,-1.644745281E1,-2.748707081E0,1.667903629E1
1.245426900E1,1.576983390E0,-1.238733104E1,-1.873975314E0,1.262713864E1
1.246431000E1,2.560229686E0,-8.595167273E0,-1.157893710E0,9.042808985E0
1.247435000E1,3.469340742E0,-4.664825032E0,-3.467738751E-1,5.823844940E0
1.248439000E1,4.049112639E0,-1.206371221E0,8.059239992E-1,4.301181022E0
1.249443100E1,3.461342628E0,1.176747472E0,2.365951999E0,4.354693590E0
1.250447100E1,2.217579340E0,3.216770262E0,3.926380752E0,5.539109573E0
1.251451100E1,1.486116051E0,5.764432527E0,4.945146983E0,7.738972927E0
1.252455200E1,1.246494815E0,7.575709902E0,4.883502127E0,9.099105608E0
1.253459200E1,1.657233648E0,9.008269551E0,4.493741934E0,1.020240463E1
1.254463300E1,2.056227325E0,1.055178362E1,3.631720845E0,1.134714082E1
1.255467300E1,1.629199026E0,1.162488452E1,2.548816506E0,1.201202294E1
1.256471300E1,1.892319784E-1,1.266644320E1,2.003271285E0,1.282527535E1
1.257475400E1,-7.885790379E-1,1.417915414E1,1.822793466E0,1.431757120E1
1.258479400E1,-1.269336670E0,1.564124808E1,1.748090608E0,1.578973330E1
1.259483400E1,-1.319567907E0,1.665569321E1,1.520356176E0,1.677691446E1
1.260487500E1,-1.360423280E0,1.696890283E1,1.038041577E0,1.705496834E1
1.261491500E1,-1.825384806E0,1.625227276E1,4.310544356E-1,1.636014081E1
1.262495500E1,-2.556785091E0,1.431679292E1,-5.092457056E-1,1.455221772E1
1.263499600E1,-3.975301482E0,1.194530492E1,-2.113508842E0,1.276558856E1
1.264503600E1,-6.441316736E0,8.672734682E0,-4.474315730E0,1.169300600E1
1.265507600E1,-7.672254449E0,6.372097397E0,-4.954570940E0,1.113619714E1
1.266511700E1,-8.828823180E0,5.752037600E0,-5.356860546E0,1.182074491E1
1.267515700E1,-8.543944495E0,6.764047957E0,-4.263082725E0,1.170150446E1
1.268519700E1,-7.464192975E0,8.416305624E0,-2.245291634E0,1.147125589E1
1.269523800E1,-6.855865615E0,9.149212591E0,-1.146371187E0,1.149021981E1
1.270527800E1,-6.189770688E0,9.540074399E0,-6.437818786E-1,1.139037909E1
1.271531800E1,-4.698437167E0,9.710926532E0,3.982713997E-2,1.078790953E1
1.272535900E1,-3.664941800E0,9.667312151E0,5.559901017E-1,1.035363934E1
1.273539900E1,-3.164189175E0,9.741816203E0,8.139470369E-1,1.027509542E1
1.274543900E1,-2.936568764E0,9.610728645E0,5.060209296E-1,1.006208718E1
1.275548000E1,-2.796225064E0,9.395569235E0,-4.317871282E-1,9.812341004E0
1.276552000E1,-2.245142384E0,9.307882635E0,-1.857955697E0,9.753427236E0
1.277556000E1,-1.244454283E0,8.526206381E0,-3.798734865E0,9.416753596E0
1.278560100E1,-5.485540514E-1,5.776027556E0,-5.609397113E0,8.070238029E0
1.279564100E1,6.062735251E-1,1.111587270E0,-7.010912724E0,7.124330921E0
1.280568100E1,2.379300900E0,-8.965670246E0,-8.775269701E0,1.276909057E1
1.281572200E1,4.025059241E0,-3.659094935E1,-1.212899988E1,3.875837090E1
1.282576200E1,1.165470181E1,-7.630694077E1,-1.556050855E1,7.874459163E1
1.283580200E1,2.070915852E1,-5.738642681E1,-7.233388170E0,6.143608983E1
1.284584300E1,1.530683646E1,-1.788714256E1,1.215000030E0,2.357382736E1
1.285588300E1,8.025185369E0,-7.895113472E0,3.143076488E-1,1.126211376E1
1.286592300E1,4.725636660E0,-8.834125435E0,-3.674016094E-1,1.002538767E1
1.287596400E1,7.378717207E0,-1.212116227E1,4.772766680E0,1.497155116E1
1.288600400E1,7.098526819E0,-1.381702321E1,1.005071817E1,1.850178773E1
1.289604400E1,3.271117793E0,-1.226187084E1,1.304901599E1,1.820248627E1
1.290608500E1,-8.560012351E-1,-7.980265889E0,1.250710423E1,1.486085590E1
1.291612500E1,-2.814278050E0,-4.055716485E0,8.429713290E0,9.768780031E0
1.292616500E1,-3.734672771E0,-1.981158285E0,4.299171156E0,6.029563954E0
1.293620600E1,-4.993190045E0,-8.618714011E-1,1.751023425E0,5.361049541E0
1.294624600E1,-5.376254007E0,3.702778548E-1,6.731541239E-2,5.389410376E0
1.295628600E1,-4.258147675E0,1.831807534E0,-8.998794723E-1,4.721983008E0
1.296632700E1,-1.997689387E0,3.337511172E0,-1.276440160E0,4.093781039E0
1.297636700E1,-7.965964477E-1,4.975474736E0,-2.298688992E0,5.538401018E0
1.298640700E1,1.577960314E-1,7.010218660E0,-3.499580203E0,7.836780387E0
1.299644800E1,1.499539504E0,9.451189705E0,-4.275448417E0,1.048108128E1
1.300648800E1,1.682160767E0,1.146115664E1,-4.237941452E0,1.233482566E1
1.301652800E1,1.502746263E0,1.297861201E1,-3.338373052E0,1.348507882E1
1.302656900E1,1.259961391E0,1.416261822E1,-2.152687526E0,1.438058834E1
1.303660900E1,1.112298877E0,1.487837822E1,-8.552418280E-1,1.494438978E1
1.304664900E1,6.071570393E-1,1.524896306E1,5.735673801E-1,1.527182024E1
1.305669000E1,9.925633952E-2,1.574198625E1,1.321568971E0,1.579767474E1
1.306673000E1,-1.576010267E-1,1.594613476E1,1.806394365E0,1.604889755E1
1.307677000E1,-5.411184396E-1,1.546225428E1,2.202267237E0,1.562767089E1
1.308681100E1,-1.159298211E0,1.415991914E1,2.263732583E0,1.438651339E1
1.309685100E1,-1.459798903E0,1.298492583E1,1.982996650E0,1.321633790E1
1.310689100E1,-2.026938183E0,1.227417806E1,1.153166821E0,1.249374720E1
1.311693200E1,-2.649329558E0,1.176957153E1,-1.998636782E-1,1.206572446E1
1.312697200E1,-3.674986147E0,1.066415074E1,-2.061130069E0,1.146638092E1
1.313701300E1,-4.659068741E0,9.175215159E0,-3.136888525E0,1.075786059E1
1.314705300E1,-4.833641750E0,8.139956272E0,-3.586464565E0,1.012352255E1
1.315709300E1,-4.858737122E0,6.823509462E0,-3.811182418E0,9.202864729E0
1.316713400E1,-4.205789952E0,5.328967574E0,-3.259815710E0,7.530800952E0
1.317717400E1,-3.946640185E0,3.319805803E0,-2.500116216E0,5.731287850E0
1.318721400E1,-3.534679284E0,-1.446472514E-1,-2.502859730E0,4.333495967E0
1.319725500E1,-3.297449267E0,-6.324685249E0,-4.450880674E0,8.407446339E0
1.320729500E1,-3.499563830E0,-1.987762832E1,-9.142467828E0,2.215743155E1
1.321733500E1,-7.231155118E-1,-4.375446681E1,-1.486700422E1,4.621692413E1
1.322737600E1,1.383679265E1,-5.128929648E1,-1.311384057E1,5.471765327E1
1.323741600E1,1.991626438E1,-3.312207697E1,-7.169445066E-1,3.865544696E1
1.324745600E1,1.404773680E1,-2.216346864E1,4.924915032E0,2.669855875E1
1.325749700E1,1.054498448E1,-1.617696647E1,1.150008974E1,2.247538666E1
1.326753700E1,8.877694793E0,-1.456681635E1,1.915813077E1,2.565228213E1
1.327757700E1,5.623307054E0,-1.481628547E1,1.651948817E1,2.289186290E1
1.328761800E1,2.236803085E0,-1.482052236E1,7.938693355E0,1.696095585E1
1.329765800E1,2.037908729E0,-1.371799594E1,1.881382859E0,1.399557380E1
1.330769800E1,2.223758093E0,-1.134737567E1,-1.492978928E0,1.165920326E1
1.331773900E1,2.487924187E0,-8.155392337E0,-3.211958588E0,9.111359333E0
1.332777900E1,2.143937021E0,-5.192215818E0,-3.425100124E0,6.579276701E0
1.333781900E1,1.785284016E0,-2.697176154E0,-2.930067830E0,4.364320762E0
1.334786000E1,1.295113390E0,-3.385105169E-1,-2.667512645E0,2.984548839E0
1.335790000E1,2.770016089E-1,1.967267640E0,-2.209221915E0,2.971116512E0
1.336794000E1,-3.791493966E-1,4.168397593E0,-8.898186799E-1,4.279143611E0
1.337798100E1,-1.167400698E0,6.163442430E0,4.131455835E-1,6.286615644E0
1.338802100E1,-1.837811016E0,7.921662755E0,6.705996215E-1,8.159656487E0
1.339806100E1,-1.299484037E0,9.523534965E0,5.527244318E-1,9.627662296E0
1.340810200E1,-1.322673071E0,1.102329140E1,3.296970087E-1,1.110725517E1
1.341814200E1,-1.597200138E0,1.244015946E1,8.484876361E-3,1.254227602E1
1.342818175E1,-1.927003713E0,1.320090327E1,-5.855697770E-2,1.334093772E1
1.343822275E1,-2.281707947E0,1.351039873E1,1.308185863E-1,1.370234208E1
1.344826275E1,-2.893193242E0,1.415600384E1,3.268569795E-1,1.445233017E1
1.345830275E1,-3.644848428E0,1.484091862E1,2.824607887E-1,1.528455330E1
1.346834375E1,-4.596994992E0,1.527629528E1,-2.237624180E-1,1.595454888E1
1.347838375E1,-5.868453909E0,1.498470516E1,-1.279069653E0,1.614361048E1
1.348842375E1,-7.611359206E0,1.324851013E1,-2.879186529E0,1.554816789E1
1.349846475E1,-8.881237037E0,1.076941114E1,-4.464440952E0,1.465564126E1
1.350850475E1,-9.136666805E0,8.511709380E0,-5.303293034E0,1.356660583E1
1.351854475E1,-8.823950111E0,7.139840321E0,-5.307587814E0,1.253035928E1
1.352858575E1,-7.117172420E0,6.985486107E0,-4.499290357E0,1.094051064E1
1.353862575E1,-4.785754515E0,7.383083907E0,-3.517090859E0,9.475405130E0
1.354866575E1,-3.115665472E0,7.717626504E0,-3.012936909E0,8.851379497E0
1.355870675E1,-1.004959346E0,8.248181217E0,-2.808804179E0,8.771078474E0
1.356874675E1,7.343953755E-1,8.840348627E0,-2.444919085E0,9.201561267E0
1.357878675E1,1.796640186E0,9.450405008E0,-1.680904346E0,9.765424220E0
1.358882775E1,2.546134388E0,1.001915958E1,-9.200185255E-1,1.037847740E1
1.359886775E1,2.863962134E0,1.029411203E1,-5.974942962E-1,1.070177654E1
1.360890775E1,2.756647015E0,1.012812011E1,-8.803550345E-1,1.053342037E1
1.361894875E1,2.577545630E0,8.554063686E0,-2.177165725E0,9.195422645E0
1.362898875E1,2.952048683E0,4.318419605E0,-4.346718374E0,6.801271935E0
1.363902975E1,3.932567691E0,-4.740269902E0,-6.940038038E0,9.278974909E0
1.364906975E1,5.222350028E0,-2.802932288E1,-9.797171209E0,3.014797580E1
1.365910975E1,9.341818120E0,-6.414413346E1,-1.455602824E1,6.643506139E1
1.366915075E1,1.422387131E1,-5.286026090E1,-8.520050433E0,5.539961152E1
1.367919075E1,1.096200439E1,-2.019125192E1,-1.679506715E-1,2.297564802E1
1.368923075E1,1.007360535E1,-1.051387613E1,3.178461059E0,1.490374888E1
1.369927175E1,9.100737419E0,-1.165714244E1,5.005501943E0,1.561305355E1
1.370931175E1,5.402360655E0,-1.772615468E1,4.869820812E0,1.916030310E1
1.371935175E1,2.092956756E0,-1.847888312E1,5.832824485E0,1.949029068E1
1.372939275E1,2.026497303E-1,-1.590310861E1,6.650468717E0,1.723887075E1
1.373943275E1,-4.199382573E-1,-1.284673274E1,6.234980775E0,1.428600278E1
1.374947275E1,-8.133139296E-1,-9.798677452E0,5.130890805E0,1.109060863E1
1.375951375E1,-1.312158900E0,-6.440363055E0,4.364488063E0,7.889790448E0
1.376955375E1,-8.204890479E-1,-3.365864906E0,4.004858572E0,5.295388657E0
1.377959375E1,-4.729546693E-1,-8.274084967E-1,3.760102311E0,3.879002492E0
1.378963475E1,-6.574189742E-1,1.943997476E0,3.071154127E0,3.693685634E0
1.379967475E1,-1.068325330E0,4.514561530E0,1.834027137E0,4.988611065E0
1.380971475E1,-1.722577598E0,6.730807121E0,7.522524798E-1,6.988341854E0
1.381975575E1,-1.200572537E0,8.677172719E0,-1.388362885E-2,8.759845522E0
1.382979575E1,6.689141616E-2,1.048920321E1,-9.570395136E-1,1.053298548E1
1.383983575E1,3.830169643E-1,1.195002947E1,-2.448112249E0,1.220422714E1
1.384987675E1,3.415570624E-1,1.295352161E1,-2.793100312E0,1.325563249E1
1.385991675E1,1.443230233E-1,1.351289900E1,-1.995368773E0,1.366018906E1
1.386995675E1,-3.491283296E-1,1.409425140E1,-1.290602701E0,1.415752339E1
1.387999775E1,-8.619545777E-1,1.478632434E1,-8.993538076E-1,1.483870582E1
1.389003775E1,-1.447440374E0,1.520506918E1,-1.322813258E0,1.533098324E1
1.390007775E1,-1.687545760E0,1.514690108E1,-1.323141872E0,1.529794520E1
1.391011875E1,-2.109979316E0,1.398163052E1,-1.849640957E0,1.426040590E1
1.392015875E1,-2.742479212E0,1.207457283E1,-3.180264925E0,1.278399727E1
1.393019875E1,-3.696127925E0,1.023626904E1,-4.388030707E0,1.173445265E1
1.394023975E1,-4.786722814E0,8.490372890E0,-5.091610379E0,1.099652870E1
1.395027975E1,-5.496894929E0,7.435404793E0,-4.827543104E0,1.043102443E1
1.396031975E1,-5.490198698E0,7.270817952E0,-3.735946294E0,9.847048804E0
1.397036075E1,-4.815034740E0,7.610933529E0,-2.339013146E0,9.304936928E0
1.398040075E1,-3.843702877E0,7.923619233E0,-1.258861091E0,8.896208451E0
1.399044075E1,-3.102759790E0,8.135625240E0,-5.122195995E-1,8.722263770E0
1.400048175E1,-2.237206835E0,8.412524230E0,1.271640400E-1,8.705850276E0
1.401052175E1,-1.500284878E0,8.809254888E0,7.575792933E-1,8.968152139E0
1.402056175E1,-5.976646695E-1,9.408755291E0,1.301603653E0,9.517145121E0
1.403060275E1,5.381423530E-1,9.931202255E0,1.405707480E0,1.004461990E1
1.404064275E1,1.529923829E0,9.801732622E0,9.138636732E-1,9.962418187E0
1.405068275E1,1.843669488E0,7.895084236E0,-5.860313416E-1,8.128647182E0
1.406072375E1,2.243466426E0,4.365486183E0,-2.603986740E0,5.556199974E0
1.407076375E1,2.653840100E0,-1.137845947E0,-5.271281283E0,6.010321708E0
1.408080375E1,3.003620248E0,-1.346402446E1,-9.376621917E0,1.668000983E1
1.409084475E1,3.315457814E0,-4.284082767E1,-1.582912730E1,4.579181200E1
1.410088475E1,9.348061777E0,-6.664580621E1,-1.599905207E1,6.917383473E1
1.411092475E1,1.376319257E1,-4.040077054E1,-4.160023795E0,4.288302144E1
1.412096575E1,9.000195715E0,-1.909851958E1,2.641434063E0,2.127755031E1
1.413100575E1,9.432525392E0,-1.353767248E1,5.600421052E0,1.742428844E1
1.414104575E1,7.361351561E0,-1.571584451E1,6.109166236E0,1.839834715E1
1.415108675E1,1.198679793E0,-1.882529089E1,6.370058473E0,1.990994865E1
1.416112675E1,-4.180613011E-1,-1.804906599E1,5.256380239E0,1.880353934E1
1.417116675E1,-5.565986507E-1,-1.557050144E1,4.604352836E0,1.624654986E1
1.418120775E1,6.322664452E-1,-1.308657149E1,4.091202067E0,1.372574401E1
1.419124775E1,1.044732546E0,-9.835935910E0,3.425792434E0,1.046771967E1
1.420128775E1,2.852226479E-1,-6.957491977E0,2.288996794E0,7.329908110E0
1.421132875E1,-1.190188905E0,-4.345622606E0,1.690300237E0,4.812286396E0
1.422136875E1,-2.341278942E0,-1.463401957E0,1.919083074E0,3.362441407E0
1.423140875E1,-2.982272941E0,1.650980051E0,2.342293872E0,4.135943375E0
1.424144975E1,-2.984960614E0,4.778590214E0,2.090571531E0,6.009609274E0
1.425148975E1,-3.129257909E0,7.088671337E0,1.546755770E0,7.901516930E0
1.426153075E1,-3.275767499E0,8.690083956E0,8.676893806E-1,9.327437843E0
1.427157075E1,-2.397578273E0,1.038683016E1,-2.209744656E-1,1.066224423E1
1.428161075E1,-1.408923595E0,1.229373583E1,-1.518496762E0,1.246703007E1
1.429165175E1,-8.582379413E-1,1.400881072E1,-2.854928770E0,1.432249868E1
1.430169175E1,-5.957016130E-1,1.524252878E1,-3.695432106E0,1.569540578E1
1.431173175E1,-5.473074250E-1,1.582531609E1,-2.985466105E0,1.611375755E1
1.432177275E1,-5.370264119E-1,1.627655975E1,-1.849273751E0,1.639007651E1
1.433181275E1,-8.074482952E-1,1.663582438E1,-1.311056846E0,1.670692956E1
1.434185275E1,-1.025829813E0,1.689276740E1,-8.053364271E-1,1.694303645E1
1.435189375E1,-1.340098651E0,1.689924144E1,-2.592041463E-1,1.695427416E1
1.436193375E1,-2.162434980E0,1.542056480E1,-1.409315212E0,1.563509236E1
1.437197375E1,-2.525773506E0,1.278176549E1,-2.872755761E0,1.334188093E1
1.438201475E1,-3.496498135E0,9.967998784E0,-4.412248705E0,1.144790101E1
1.439205475E1,-4.884158769E0,7.601033024E0,-5.521902886E0,1.058877337E1
1.440209475E1,-5.813600594E0,6.211721136E0,-4.957982790E0,9.847082040E0
1.441213575E1,-5.929253258E0,6.062138250E0,-3.808416100E0,9.295676282E0
1.442217575E1,-5.032412583E0,6.530950459E0,-1.927642229E0,8.467248365E0
1.443221529E1,-4.398623815E0,7.103418015E0,-4.708832932E-1,8.368283578E0
1.444225629E1,-3.332889533E0,7.772909589E0,1.413967842E-1,8.458502773E0
1.445229629E1,-2.173829303E0,8.702978235E0,4.835015845E-1,8.983381200E0
1.446233629E1,-1.101673170E0,9.650434163E0,7.209938496E-1,9.739835493E0
1.447237729E1,-1.698812029E-1,1.055831029E1,8.504681611E-1,1.059386954E1
1.448241729E1,4.204963741E-1,1.119524983E1,7.628909039E-1,1.122908894E1
1.449245729E1,1.468897170E0,1.086255846E1,7.161436299E-2,1.096165881E1
1.450249829E1,1.436095460E0,9.114123450E0,-9.828888845E-1,9.278776158E0
1.451253829E1,1.525510205E0,6.431620299E0,-2.085955592E0,6.931387436E0
1.452257829E1,2.792803273E0,1.240126612E0,-4.328653402E0,5.298575696E0
1.453261929E1,4.265859276E0,-1.406438382E1,-9.209961653E0,1.734438933E1
1.454265929E1,7.736218311E0,-6.248267286E1,-1.835169683E1,6.557986168E1
1.455269929E1,1.238893434E1,-9.511313933E1,-2.055345418E1,9.809403370E1
1.456274029E1,1.096969582E1,-4.867597934E1,-2.827479601E0,4.997679294E1
1.457278029E1,9.210823533E0,-1.741058513E1,5.423000157E0,2.042979871E1
1.458282029E1,1.238132010E1,-9.235977085E0,8.381465575E0,1.757410952E1
1.459286129E1,7.504555135E0,-1.044162793E1,1.648262966E1,2.090509560E1
1.460290129E1,1.806044117E0,-1.286665303E1,1.952210942E1,2.345048639E1
1.461294129E1,-1.010453098E0,-1.234909259E1,1.456370096E1,1.912125751E1
1.462298229E1,-2.305609903E0,-1.021041148E1,9.657439712E0,1.424199710E1
1.463302229E1,-2.839284545E0,-7.916146492E0,6.181859990E0,1.043754305E1
1.464306229E1,-2.931622020E0,-5.631606007E0,2.863924127E0,6.965016532E0
1.465310329E1,-2.886989346E0,-3.599119109E0,7.475640361E-1,4.674100751E0
1.466314329E1,-2.829023558E0,-1.249176933E0,-7.925058087E-1,3.192472828E0
1.467318329E1,-1.966929817E0,1.288277264E0,-2.016999378E0,3.097863409E0
1.468322429E1,-1.703544911E0,3.222508135E0,-1.855648971E0,4.090239241E0
1.469326429E1,-8.721952450E-1,6.109790719E0,-2.722069505E0,6.745363560E0
1.470330429E1,2.183749397E-1,9.402395859E0,-4.057083564E0,1.024268825E1
1.471334529E1,2.040489982E0,1.144005871E1,-5.337408029E0,1.278774676E1
1.472338529E1,3.713975381E0,1.213507982E1,-4.725085852E0,1.354179499E1
1.473342529E1,3.802568884E0,1.316338987E1,-4.522686237E0,1.442875787E1
1.474346629E1,2.200544355E0,1.447846259E1,-3.984642994E0,1.517714249E1
1.475350629E1,1.397526349E0,1.589218484E1,-2.985467860E0,1.623045401E1
1.476354629E1,9.041515942E-1,1.725044860E1,-1.668678403E0,1.735453701E1
1.477358729E1,-1.367387460E-1,1.819873834E1,-8.343011945E-1,1.821836527E1
1.478362729E1,-1.391757193E0,1.867461282E1,-6.572130060E-1,1.873793161E1
1.479366729E1,-2.772261712E0,1.840993392E1,-1.069038252E0,1.864816197E1
1.480370829E1,-3.913588214E0,1.686988842E1,-2.012467201E0,1.743442951E1
1.481374829E1,-5.044823883E0,1.413824468E1,-3.326190963E0,1.537542705E1
1.482378829E1,-6.450315601E0,1.118241753E1,-4.691223457E0,1.373537807E1
1.483382929E1,-7.842042389E0,8.626349890E0,-5.503543798E0,1.289187867E1
1.484386929E1,-8.376404809E0,7.058331889E0,-4.766449056E0,1.194584627E1
1.485390929E1,-8.635288528E0,6.568505956E0,-4.278795363E0,1.166282848E1
1.486395029E1,-7.903636959E0,7.178628995E0,-3.073259125E0,1.111058563E1
1.487399029E1,-5.842893391E0,7.669043743E0,-2.322310574E0,9.916993572E0
1.488403029E1,-3.389271018E0,7.334204693E0,-2.277853024E0,8.394422607E0
1.489407129E1,-1.691623608E0,6.683881461E0,-1.917294996E0,7.156247754E0
1.490411129E1,-5.795494106E-1,6.442708958E0,-1.498926131E0,6.640117152E0
1.491415129E1,-3.461034188E-1,4.794230931E0,-1.531409168E0,5.044764795E0
1.492419229E1,-3.548064145E-1,8.395607650E-2,-2.630606189E0,2.655753214E0
1.493423229E1,5.994333060E-1,-1.133157415E1,-4.883944176E0,1.235381738E1
1.494427329E1,6.682858198E0,-4.018701505E1,-1.017103984E1,4.198936560E1
1.495431329E1,2.102137645E1,-6.659529562E1,-1.532964294E1,7.149706021E1
1.496435329E1,1.978624570E1,-4.155703171E1,-3.853289387E0,4.618798807E1
1.497439429E1,1.080864947E1,-1.551171471E1,3.625339193E0,1.925053975E1
1.498443429E1,9.032309793E0,-6.656780201E0,5.018726006E0,1.229158060E1
1.499447429E1,7.669722020E0,-8.398321928E0,7.078362111E0,1.339625534E1
1.500451529E1,7.449594816E0,-1.619446952E1,7.228366581E0,1.923555534E1
1.501455529E1,5.297921782E0,-1.803393808E1,5.240983350E0,1.951304190E1
1.502459529E1,2.944014316E0,-1.609903594E1,3.636689808E0,1.676519285E1
1.503463629E1,1.014849181E0,-1.334703688E1,2.597986912E0,1.363535289E1
1.504467629E1,-2.016614047E-1,-1.021602598E1,2.021573216E0,1.041607471E1
1.505471629E1,-6.024433064E-1,-7.376398201E0,1.661507670E0,7.585169484E0
1.506475729E1,-3.174063076E-1,-4.816145711E0,1.745872175E0,5.132648042E0
1.507479729E1,-2.036949201E-1,-2.193033314E0,1.811438173E0,2.851700368E0
1.508483729E1,-8.929302026E-1,3.226218778E-1,1.592022429E0,1.853630124E0
1.509487829E1,-1.960797842E0,3.033921397E0,1.032822937E0,3.757143920E0
1.510491829E1,-2.136268544E0,5.708316214E0,2.068885048E-1,6.098468672E0
1.511495829E1,-1.118579225E0,8.058603961E0,-6.301181781E-1,8.160230769E0
1.512499929E1,-3.594311236E-1,1.038941463E1,-1.953049550E0,1.057750111E1
1.513503929E1,-3.887595879E-1,1.212434667E1,-2.923944626E0,1.247799536E1
1.514507929E1,-6.527780391E-1,1.337704713E1,-3.445961235E0,1.382917778E1
1.515512029E1,-9.260710515E-1,1.423465825E1,-3.205421401E0,1.462045928E1
1.516516029E1,-1.440453244E0,1.497352061E1,-2.667966388E0,1.527741043E1
1.517520029E1,-2.495246947E0,1.560396857E1,-2.486852977E0,1.599670373E1
1.518524129E1,-3.796866680E0,1.592307802E1,-3.536218271E0,1.674710273E1
1.519528129E1,-5.148271068E0,1.555007361E1,-4.439460477E0,1.697110172E1
1.520532129E1,-6.196074572E0,1.440186523E1,-4.912570390E0,1.642980250E1
1.521536229E1,-6.804151086E0,1.233547325E1,-5.930538476E0,1.528501419E1
1.522540229E1,-6.744026506E0,1.018080469E1,-6.261438841E0,1.372356710E1
1.523544229E1,-6.726456792E0,8.836747327E0,-5.492452800E0,1.238952630E1
1.524548329E1,-6.260986851E0,8.543603602E0,-4.135374273E0,1.137077127E1
1.525552329E1,-4.406336001E0,8.537592080E0,-2.757118886E0,9.995397942E0
1.526556329E1,-2.831551602E0,8.291467570E0,-1.908648133E0,8.967109715E0
1.527560429E1,-1.652973659E0,8.142354215E0,-1.319397315E0,8.412553914E0
1.528564429E1,-3.942469074E-1,8.355992764E0,-6.580695500E-1,8.391132297E0
1.529568429E1,2.814541174E-1,8.518596815E0,-1.655083992E-1,8.524851972E0
1.530572529E1,6.535427088E-1,8.937585484E0,4.611517721E-1,8.973305596E0
1.531576529E1,5.640960968E-1,9.565816766E0,9.600584310E-1,9.630408454E0
1.532580529E1,-2.591529831E-2,9.791180736E0,1.103754340E0,9.853231219E0
1.533584629E1,-2.983796141E-1,9.872444755E0,1.248791016E0,9.955585108E0
1.534588629E1,1.999315059E-1,9.732037320E0,5.992273378E-1,9.752517439E0
1.535592629E1,9.133514571E-1,7.762650649E0,-9.290980089E-1,7.871224752E0
1.536596729E1,1.394011880E0,3.363072860E0,-3.211060456E0,4.854321522E0
1.537600729E1,1.910415893E0,-5.270008929E0,-6.225320005E0,8.377188798E0
1.538604729E1,2.986757755E0,-2.687974625E1,-1.035656848E1,2.896031752E1
1.539608829E1,5.941509606E0,-6.410871805E1,-1.494902194E1,6.609616118E1
1.540612829E1,1.322218947E1,-5.926890749E1,-8.365109743E0,6.129930464E1
1.541616829E1,1.220894184E1,-2.470307344E1,1.001290218E0,2.757358665E1
1.542621004E1,1.071006658E1,-1.248808324E1,2.902516919E0,1.670575810E1
1.543625004E1,1.041036638E1,-1.034168498E1,2.798456069E0,1.493845818E1
1.544629004E1,7.047794622E0,-1.606494668E1,1.844011550E0,1.763956630E1
1.545633104E1,5.170567671E0,-1.986407681E1,1.751254244E0,2.060056332E1
1.546637104E1,3.482427980E0,-1.864136438E1,2.751967489E0,1.916249190E1
1.547641204E1,1.940601559E0,-1.571383775E1,3.242719620E0,1.616186443E1
1.548645204E1,9.898026323E-1,-1.238717199E1,2.873502743E0,1.275455829E1
1.549649204E1,6.598138475E-1,-9.524464087E0,2.309864191E0,9.822741117E0
1.550653304E1,1.031001529E0,-6.475886060E0,2.558615270E0,7.038932910E0
1.551657304E1,1.589835863E0,-3.044035910E0,3.177682210E0,4.678824310E0
1.552661304E1,1.807068549E0,-2.156862438E-1,4.340655981E0,4.706730462E0
1.553665404E1,1.309807589E0,2.273434283E0,5.148047705E0,5.778104752E0
1.554669404E1,3.098790407E-1,4.598726937E0,4.540883356E0,6.470234626E0
1.555673404E1,-7.858008796E-1,6.740864916E0,3.472012335E0,7.623097304E0
1.556677504E1,-1.412593015E0,8.651698739E0,2.362024863E0,9.078902552E0
1.557681504E1,-1.417164807E0,1.046509047E1,1.273164550E0,1.063707773E1
1.558685504E1,-9.953124636E-1,1.231059803E1,-2.157938325E-1,1.235265306E1
1.559689604E1,-5.990815960E-1,1.407557539E1,-1.947604038E0,1.422230231E1
1.560693604E1,-6.315644869E-1,1.540905397E1,-3.343273019E0,1.578021839E1
1.561697604E1,-1.064343084E0,1.598227056E1,-3.505395259E0,1.639675560E1
1.562701704E1,-1.726670503E0,1.616873242E1,-3.207909392E0,1.657407559E1
1.563705704E1,-2.208981741E0,1.609790275E1,-3.412350855E0,1.660319884E1
1.564709704E1,-2.842741711E0,1.517325565E1,-4.370607759E0,1.604403564E1
1.565713804E1,-3.554657466E0,1.354219823E1,-4.948623737E0,1.484976766E1
1.566717804E1,-4.329581355E0,1.158536202E1,-5.971245621E0,1.373396018E1
1.567721804E1,-5.621014946E0,9.612153026E0,-7.087068615E0,1.319908468E1
1.568725904E1,-6.209331379E0,8.271882321E0,-6.875564300E0,1.241987189E1
1.569729904E1,-6.456815366E0,7.730107970E0,-5.855162019E0,1.165023417E1
1.570733904E1,-6.228134855E0,7.882360110E0,-4.618895153E0,1.105691897E1
1.571738004E1,-5.389528356E0,8.417021908E0,-3.286477844E0,1.052113161E1
1.572742004E1,-4.235196477E0,8.687991822E0,-2.368602249E0,9.951299800E0
1.573746004E1,-3.263650898E0,8.789152746E0,-1.745432464E0,9.536621921E0
1.574750104E1,-2.275849914E0,9.064412177E0,-9.928279817E-1,9.398338595E0
1.575754104E1,-1.543100384E0,9.336624039E0,-2.817656279E-2,9.463324001E0
1.576758104E1,-1.446467397E0,9.768942606E0,9.900137168E-1,9.924950112E0
1.577762204E1,-1.702759046E0,1.042230405E1,1.466099278E0,1.066176614E1
1.578766204E1,-1.889611061E0,1.032783527E1,9.719779801E-1,1.054417149E1
1.579770204E1,-1.759652308E0,9.384695168E0,-4.008851051E-2,9.548323766E0
1.580774304E1,-6.795781673E-1,8.536593960E0,-1.644145825E0,8.720004496E0
1.581778304E1,1.074718968E0,5.929255012E0,-4.296169780E0,7.400551373E0
1.582782304E1,3.582883438E0,-2.860750258E-1,-6.677132605E0,7.583072759E0
1.583786404E1,7.516891590E0,-1.602341390E1,-9.722688206E0,2.019366530E1
1.584790404E1,1.570602821E1,-5.511403976E1,-1.567168517E1,5.941244329E1
1.585794404E1,2.207098440E1,-7.706715365E1,-1.539132755E1,8.162945234E1
1.586798504E1,1.663479176E1,-3.599759964E1,-3.850632412E0,3.984182283E1
1.587802504E1,1.152684075E1,-1.404819756E1,2.953105860E0,1.841034347E1
1.588806604E1,7.583453370E0,-9.945098748E0,6.709655403E0,1.419271749E1
1.589810604E1,4.664361933E0,-1.394799733E1,7.441720955E0,1.648278231E1
1.590814604E1,3.248994268E0,-1.993321897E1,6.094494402E0,2.109578262E1
1.591818704E1,3.401106659E0,-2.006696584E1,6.204849488E0,2.127794167E1
1.592822704E1,2.617177766E0,-1.613434845E1,7.567764705E0,1.801215928E1
1.593826704E1,7.047692880E-1,-1.120787163E1,7.084688798E0,1.327802325E1
1.594830804E1,-1.030115091E0,-7.952514419E0,5.219528747E0,9.568025032E0
1.595834804E1,-2.080345043E0,-5.078072906E0,3.916063925E0,6.741677580E0
1.596838804E1,-2.445584644E0,-2.097393331E0,3.694378438E0,4.901874650E0
1.597842904E1,-2.032446406E0,6.639390582E-1,3.548105661E0,4.142548400E0
1.598846904E1,-2.219288481E0,3.105262105E0,2.025332684E0,4.320864102E0
1.599850904E1,-2.268273823E0,5.425124450E0,5.437734409E-1,5.905313793E0
1.600855004E1,-2.021032203E0,8.320215991E0,-1.558159010E0,8.702782589E0
1.601859004E1,-1.667787580E0,1.066613060E1,-3.588962495E0,1.137666512E1
1.602863004E1,-9.597255783E-1,1.222146424E1,-3.725762199E0,1.281275011E1
1.603867104E1,-1.325482366E0,1.349183967E1,-3.362334942E0,1.396753154E1
1.604871104E1,-1.943968239E0,1.481612175E1,-2.860035143E0,1.521434445E1
1.605875104E1,-2.299039094E0,1.594166749E1,-2.581355091E0,1.631213466E1
1.606879204E1,-2.810174181E0,1.681768448E1,-2.138729637E0,1.718446259E1
1.607883204E1,-3.605361304E0,1.723828639E1,-2.367524754E0,1.776970234E1
1.608887204E1,-4.585419551E0,1.669549404E1,-2.880667629E0,1.755174748E1
1.609891304E1,-5.542255874E0,1.493927113E1,-3.738251851E0,1.636682464E1
1.610895304E1,-6.008380119E0,1.280501636E1,-4.839834536E0,1.494968475E1
1.611899304E1,-6.569887653E0,1.084748083E1,-5.554863641E0,1.384513540E1
1.612903404E1,-6.967909961E0,9.242452877E0,-5.910011825E0,1.299626655E1
1.613907404E1,-6.356916856E0,8.257653707E0,-5.550891042E0,1.180727013E1
1.614911404E1,-4.836819711E0,8.038121749E0,-4.386450205E0,1.035602103E1
1.615915504E1,-3.800385827E0,8.214878985E0,-3.110686567E0,9.570973832E0
1.616919504E1,-2.477369085E0,8.711520433E0,-2.062598305E0,9.288824339E0
1.617923504E1,-3.292670922E-1,9.080487927E0,-1.788765594E0,9.260850941E0
1.618927604E1,5.422794043E-1,9.458947790E0,-1.508283430E0,9.593783360E0
1.619931604E1,1.333576374E0,9.973153689E0,-9.650443518E-1,1.010809235E1
1.620935604E1,2.207361039E0,9.937969823E0,-6.791798258E-1,1.020279237E1
1.621939704E1,2.353198198E0,9.022889929E0,-4.198066950E-1,9.334148172E0
1.622943704E1,2.392507275E0,8.514502010E0,2.335412649E-1,8.847337286E0
1.623947704E1,2.845604215E0,8.414147417E0,8.311384356E-1,8.921105941E0
1.624951804E1,3.364005491E0,7.634453369E0,8.102346396E-1,8.381998053E0
1.625955804E1,3.515794239E0,4.926442325E0,-2.843430805E-1,6.059001081E0
1.626959804E1,3.873975374E0,-1.659188957E0,-2.740595824E0,5.027072574E0
1.627963904E1,4.291714202E0,-1.912069105E1,-5.541849493E0,2.036496337E1
1.628967904E1,6.103020228E0,-6.107657187E1,-1.179094311E1,6.250296654E1
1.629971904E1,8.302330527E0,-7.567440302E1,-1.354009791E1,7.732320619E1
1.630976004E1,4.853828969E0,-3.622601995E1,-1.913972754E0,3.659982881E1
1.631980004E1,2.526607611E0,-1.508638239E1,3.534867564E0,1.569961683E1
1.632984104E1,8.883620654E-1,-1.043368741E1,3.893015370E0,1.117168693E1
1.633988104E1,2.189871432E0,-1.116017121E1,3.539154743E0,1.191094348E1
1.634992104E1,4.043401079E0,-1.419329271E1,3.531105466E0,1.517456279E1
1.635996104E1,4.214248827E0,-1.569495241E1,2.856495824E0,1.650003009E1
1.637000204E1,2.437013065E0,-1.431889324E1,1.998576848E0,1.466165222E1
1.638004204E1,5.708180559E-1,-1.092087040E1,1.711121149E0,1.106883820E1
1.639008304E1,-7.067262049E-1,-7.700895281E0,2.115182315E0,8.017309167E0
1.640012304E1,-1.710078444E0,-4.981547070E0,2.682173953E0,5.910519149E0
1.641016304E1,-1.690169552E0,-2.286024508E0,3.343313949E0,4.388659172E0
1.642020404E1,-1.027969017E0,3.593739671E-1,3.681842885E0,3.839509992E0
1.643024412E1,-6.388195659E-1,3.063156890E0,3.322672108E0,4.564117715E0
1.644028413E1,-4.755704212E-1,5.778293352E0,2.357121388E0,6.258662998E0
1.645032513E1,-8.629193683E-1,7.405949444E0,1.928493583E0,7.701415747E0
1.646036512E1,-1.053117745E0,8.989130445E0,1.469059138E0,9.169059815E0
1.647040512E1,-4.307161376E-1,1.106152868E1,3.879464229E-1,1.107670689E1
1.648044613E1,1.614701293E-1,1.320619383E1,-7.189081478E-1,1.322673266E1
1.649048612E1,1.057519529E0,1.467180077E1,-7.853255010E-1,1.473081198E1
1.650052612E1,1.647452425E0,1.545477101E1,-2.569518171E-1,1.554445466E1
1.651056712E1,1.433174191E0,1.622530540E1,-1.376019595E-1,1.628905945E1
1.652060713E1,6.538027637E-1,1.703009277E1,-6.926198702E-2,1.704277897E1
1.653064712E1,-3.600396726E-1,1.781452482E1,9.470786355E-2,1.781841442E1
1.654068812E1,-1.869820575E0,1.795344063E1,-8.774975002E-2,1.805076063E1
1.655072813E1,-3.861504725E0,1.638454145E1,-1.000923963E0,1.686316299E1
1.656076812E1,-5.497143436E0,1.361632221E1,-1.922917678E0,1.480947092E1
1.657080912E1,-6.569461391E0,1.067153577E1,-3.629664379E0,1.304660731E1
1.658084912E1,-7.499073370E0,7.855921340E0,-5.454482151E0,1.215331136E1
1.659088913E1,-8.293935095E0,5.808934516E0,-7.292537434E0,1.247854887E1
1.660093012E1,-8.350094678E0,5.726366569E0,-7.706396341E0,1.272414633E1
1.661097012E1,-6.899136180E0,7.523652141E0,-6.256361704E0,1.197269741E1
1.662101013E1,-5.403984427E0,9.314226864E0,-5.303730406E0,1.200364220E1
1.663105113E1,-4.389518824E0,1.037405049E1,-4.966671168E0,1.231083350E1
