Time (s),Linear Acceleration x (m/s^2),Linear Acceleration y (m/s^2),Linear Acceleration z (m/s^2),Absolute acceleration (m/s^2),Predicted Label
0.004262499977,0.6601734513,0.5480373037,-0.8815028429,1.230130535,0.0
0.01430249994,0.5665343857,-0.06096950233,-0.1523373632,0.5898179063,0.0
0.02434250002,0.5561678571,-0.8242814058,-0.1060123587,1.000000571,0.0
0.03438349999,0.1978978443,-0.78943317,-0.08216383182,0.8179970549,0.0
0.04442349996,-0.1475340217,-0.6521370381,-0.1666502508,0.6890727902,0.0
0.05446350004,-0.09816247165,-1.044863523,0.03940328993,1.050203919,0.0
0.06450450001,-0.4240698999,-0.4947592288,0.2197688428,0.6876920232,0.0
0.07454449998,-0.2132409382,0.2255610216,0.2109406435,0.3752937879,0.0
0.08458449994,0.06637583792,0.2506169254,0.17995157,0.3155901816,0.0
0.09462550003,0.03039675057,0.5780498922,0.3727354395,0.6884746533,0.0
0.1046655,-0.1220898628,0.6536187226,0.4423161729,0.7986031342,0.0
0.1147055,-0.1394473225,0.8589793682,0.1524871616,0.8834836983,0.0
0.1247464999,-0.1021783394,1.366605395,-0.0438190341,1.371120282,0.0
0.1347865,-0.3079079443,1.675706171,-0.3198543541,1.733523949,0.0
0.1448265,-0.5138498032,1.544032137,-0.4555495183,1.689852723,0.0
0.1548675,-0.7237654299,1.669625652,-0.6713888495,1.939651825,0.0
0.1649075,-0.319055661,1.250700717,0.2140303123,1.308379827,0.0
0.1749475,0.4609120363,1.561275576,0.3996584324,1.676230352,0.0
0.1849875,-0.3223768795,1.299643081,0.3035336423,1.37300097,0.0
0.1950284999,-0.1344947308,0.2693707001,0.2494854891,0.3910145982,0.0
0.2050685,0.412759046,-0.6992340213,0.00255874157,0.8119758578,0.0
0.2151085,0.6593060169,-0.2613986063,-0.02037981234,0.7095273018,0.0
0.2251495,0.8976201081,0.9097560042,-0.2715353394,1.306563924,0.0
0.2351895,-0.5203147772,1.791652949,0.1151948261,1.869229148,0.0
0.2452295,-1.017641811,0.600350588,0.9184876513,1.496541095,0.0
0.2552705,-0.05185398549,0.6790628815,0.4804715574,0.833467546,0.0
0.2653104999,0.3331682083,0.6050418091,-0.2762190322,0.7438908519,0.0
0.2753505,0.09782713383,-0.121335572,-0.1372318125,0.2076656917,0.0
0.2853915,0.5369650161,-0.6230208278,-0.5158915778,0.9708916008,0.0
0.2954315,0.8228807053,-2.021598798,-0.9792625145,2.392268678,0.0
0.3054715,1.194083882,-2.909704902,-0.2738580727,3.157089985,0.0
0.3155125,1.24577473,-3.326106178,0.04689949349,3.552060888,0.0
0.3255525,1.355018553,-2.693912238,-0.2045564342,3.022429778,0.0
0.3355924999,1.183289337,0.3873768675,-0.1585740034,1.255141509,0.0
0.3456325,2.171604438,0.8068245435,-0.1738681269,2.323157723,0.0
0.3556735,2.284305426,1.081254255,0.5148286271,2.579187965,0.0
0.3657135,0.9264047813,2.432746936,1.025856564,2.79801093,0.0
0.3757535,0.7537718788,2.195134218,1.614779938,2.827419412,0.0
0.3857945,0.1758076483,1.422363274,1.347528123,1.967195378,0.0
0.3958345,-0.5468994355,0.9571874481,0.3338255815,1.151844747,0.0
0.4058744999,-0.6803442988,0.3503639925,0.254227581,0.8063838757,0.0
0.4159152916,-0.9140501994,-0.08259016693,-0.1181665273,0.9253497884,0.0
0.4259552916,-0.5676029643,-0.2611442524,0.4807288349,0.788333469,0.0
0.4359952917,-1.197181737,-1.022545871,0.6225565588,1.693050749,0.0
0.4460362917,-1.562146811,-2.087167135,-0.1187464249,2.609726044,0.0
0.4560762916,-0.9634632647,-2.478293238,-0.9884741449,2.836772809,0.0
0.4661162917,-1.701925086,-0.90209966,0.09211005528,1.928423465,0.0
0.4761572917,-1.966520365,-0.02885951757,0.7251484425,2.096157314,0.0
0.4861972916,-0.8046520105,-0.117881037,0.1310607342,0.8237340062,0.0
0.4962372916,-0.2640260527,-0.1778804862,-0.1026689208,0.3345028119,0.0
0.5062782917,-0.2242296106,2.085787193,-0.05181458987,2.098445111,0.0
0.5163182917,-0.1235595605,4.571127495,0.06541623674,4.573265007,0.0
0.5263582916,-0.03465118468,5.947110069,0.02861620031,5.947279863,0.0
0.5363982917,-0.7960928562,3.699190112,0.2326699933,3.79102976,0.0
0.5464392917,-0.7392248833,-1.067191701,0.8266045777,1.539034334,0.0
0.5564792916,-0.2309875301,-2.935138535,1.0866956,3.13835957,0.0
0.5665192916,0.3239807707,-1.804274749,0.746130445,1.97916183,0.0
0.5765602917,0.3203037491,-0.9051460594,0.3099725962,1.008943453,0.0
0.5866002917,0.3740674353,-1.754778069,0.4354562195,1.846292132,0.0
0.5966402916,0.802516315,-1.909299513,0.1162941392,2.074362889,0.0
0.6066812917,0.8672756901,-0.9064429718,-0.8520925176,1.516531451,0.0
0.6167212917,0.8950645825,0.2165317512,-0.926546284,1.306336336,0.0
0.6267612916,0.03107648939,0.88632855,0.9592380667,1.306400289,0.0
0.6368022916,-0.9056348866,-0.1469820446,1.299170042,1.590478251,0.0
0.6468422917,-0.690823094,-1.037398968,0.462897166,1.32955141,0.0
0.6568822917,0.02915918738,-1.380672626,-0.8123975247,1.602216246,0.0
0.6669232916,0.3027007064,-1.719214718,-1.233751393,2.137631742,0.0
0.6769632917,0.3145170522,-1.631401818,-0.4502268344,1.721364886,0.0
0.6870032917,0.3297274143,-0.4711288762,0.06617352426,0.5788449888,0.0
0.6970442916,0.3993578124,1.308510969,0.1951110431,1.381939194,0.0
0.7070842916,0.4926515999,2.757404814,0.21267374,2.80913101,0.0
0.7171242917,0.5510310781,3.296483014,0.1771858188,3.346913552,0.0
0.7271642917,0.6012443349,3.119266772,0.2240881262,3.184577748,0.0
0.7372052916,0.7721181026,2.95635048,-0.1467826363,3.05903901,0.0
0.7472452917,0.6695170096,3.213989326,-0.6531889522,3.347332703,0.0
0.7572852917,0.2353334731,3.064133375,-0.7404779416,3.161107839,0.0
0.7673262917,-0.4203095555,1.843666856,-0.4258380979,1.938325485,0.0
0.7773662916,-0.5621445885,0.3977194226,0.3300022334,0.7636024827,0.0
0.7874062917,-0.9310910323,-1.328738242,0.4450818694,1.682430889,0.0
0.7974472917,-0.8617766762,-1.814075852,0.2708254691,2.026543035,0.0
0.8074872916,-0.2557118967,-1.837289298,0.5096579343,1.923739002,0.0
0.8175272917,0.2723425475,-1.895232282,0.496863057,1.978117479,0.0
0.8275682917,0.6474768072,-1.225343097,-0.05287987947,1.386898772,0.0
0.8376082917,0.4995135999,-1.597549363,-0.6791014731,1.806337902,0.0
0.8476482916,0.1037956792,-2.921675906,-0.7183210874,3.01047319,0.0
0.8576892917,0.1147340655,-3.127542921,-0.4712528372,3.164927782,0.0
0.8677292917,0.6023178837,-0.2449720234,-0.1083062214,0.6591876537,0.0
0.8777692916,0.8306218341,0.5586868376,0.5807413656,1.15729173,0.0
0.8878092916,0.9484315351,0.109409591,0.943861059,1.342522452,0.0
0.8978502917,0.6183336997,-0.2550116926,0.7090602672,0.9747481675,0.0
0.9078902917,0.5558278415,-0.09000969887,0.3238000917,0.6495327818,0.0
0.9179302916,0.6279643562,0.0434611845,-0.1616287351,0.6498861095,0.0
0.9279712917,0.1995672244,0.1062503403,-0.4463261569,0.5003231457,0.0
0.9380112917,-0.171419313,0.2785479051,-0.32781479,0.4630724056,0.0
0.9480512916,-0.2176234263,0.7121166068,-0.009118150373,0.7446832602,0.0
0.9580922916,-0.1037278515,1.31839861,0.150752914,1.331037492,0.0
0.9681322917,0.1434681603,1.948377625,0.204022218,1.964276851,0.0
0.9781722917,-0.05928521186,3.051340837,0.4123982728,3.079653873,0.0
0.9882132916,-1.773221941,4.221926513,-0.1511902948,4.581685066,0.0
0.9982532917,-3.423264098,2.660141644,-2.032236053,4.788013579,0.0
1.008293292,-1.77673641,-0.9991476524,-1.67710541,2.639653549,0.0
1.018334292,0.0663983497,-0.9025001943,-0.1022444494,0.9106971335,0.0
1.028374292,0.5231217331,-0.01700077951,0.576634866,0.7787510146,0.0
1.038414292,0.1180827659,-0.3173108518,1.023716483,1.07825097,0.0
1.048454292,-0.06834371835,-1.390486593,1.431639297,1.996926365,0.0
1.058495292,-0.6860041112,-1.738880659,1.243926133,2.245364071,0.0
1.068535292,-0.9452775469,-1.591454226,1.057711025,2.131907317,0.0
1.078575292,-0.7620044661,-1.572470071,0.74065979,1.897864551,0.0
1.088616292,-0.528140983,-0.7516449541,0.3267785903,0.975031939,0.0
1.098656292,0.01986679226,0.4349620932,0.4412367404,0.6199004541,0.0
1.108696292,0.5107551643,0.6538169432,0.4112942819,0.9260185848,0.0
1.118737292,0.5556676278,0.3418773437,-0.1603352944,0.671828875,0.0
1.128777292,1.040874114,-0.03418691576,-0.9725322962,1.424923413,0.0
1.138817292,0.9421412466,-0.4532942837,-1.64690805,1.950746514,0.0
1.148858292,0.5748910801,-0.4197657645,-1.143014885,1.346545981,0.0
1.158898292,0.2955187176,-0.1239902079,-0.2632194293,0.4147159896,0.0
1.168938292,-0.1823253934,0.3443887228,0.4549683781,0.5990345287,0.0
1.178979292,-0.2379284674,1.019915793,0.7868212918,1.309933558,0.0
1.189019292,-0.08499512672,1.805366424,0.7963990311,1.975050256,0.0
1.199059292,0.0392171292,2.288489694,0.476242851,2.337847368,0.0
1.209100292,0.1800818168,2.364295921,-0.1797561999,2.377948056,0.0
1.219140292,0.04917230621,1.830546289,-0.5465509415,1.911029975,0.0
1.229180292,0.01629604384,1.220448977,-0.3945209956,1.282734611,0.0
1.239221292,-0.1364947709,0.6290469682,0.1541526313,0.6618866553,0.0
1.249261292,-0.0482107316,-0.004060891271,0.6229038835,0.6247799721,0.0
1.259301292,0.2188776541,-0.03993648291,0.1408559167,0.2633300959,0.0
1.269341292,-0.1582282868,-0.1889141822,0.6111369467,0.6589485007,0.0
1.279382292,-0.7846733902,-1.152485036,1.928244492,2.379508543,0.0
1.289422292,-0.8240362613,-1.468957397,1.849242761,2.501313731,0.0
1.299462292,-0.3777941582,-1.200286608,1.085998758,1.662170169,0.0
1.309503292,0.08847641274,-1.199515945,-0.2325074407,1.225041342,0.0
1.319543292,0.5532283887,-1.079514708,-0.7401288629,1.420987118,0.0
1.329583292,0.7483107986,-0.9588737851,-0.6842376673,1.395560523,0.0
1.339624292,0.692198286,-0.4113878739,-0.6107907184,1.010665005,0.0
1.349664292,0.4900892039,0.6820180643,-0.3914616593,0.9265950024,0.0
1.359704292,0.2535196294,1.242109403,-0.1598873612,1.277760517,0.0
1.369745292,-0.1038855802,1.004008443,0.2267211092,1.034518066,0.0
1.379785292,-0.06417816192,0.421429882,0.1966278291,0.4694512596,0.0
1.389825292,-0.09457030781,0.2543813628,0.1928341556,0.332924064,0.0
1.399865292,0.1023367989,0.3661543983,0.05558838286,0.38422901,0.0
1.409906292,0.39200757,-0.01008118451,-0.02690640137,0.3930591808,0.0
1.419946375,0.2723036635,0.4042127556,-0.02145453058,0.4878499091,0.0
1.429986375,0.02301274046,0.7060360873,0.4226449335,0.8231921298,0.0
1.440027375,-0.4555874155,-0.7775311625,0.179537441,0.9188842662,0.0
1.450067375,-0.9243518239,-5.180161783,-0.3611661386,5.274366632,0.0
1.460107375,-0.5114432354,-8.259219591,-1.067989261,8.343673262,0.0
1.470148375,0.735992981,-5.906666633,0.3660007627,5.963585577,0.0
1.480188375,0.2218338601,-1.866009652,2.576525291,3.188994334,0.0
1.490228375,-1.427245992,-2.087116849,3.308751057,4.164243199,0.0
1.500269375,-1.368369646,-1.781859448,3.038373467,3.778779155,0.0
1.510309375,-0.3931816909,-0.6196048844,1.828215004,1.969992933,0.0
1.520349375,-0.07895290643,0.05613794804,0.693853852,0.7005841838,0.0
1.530390375,-0.4319285578,0.1644564486,0.0600684464,0.4660648246,0.0
1.540430375,-1.151704871,-0.2840822947,-0.1965120542,1.202390888,0.0
1.550470375,-1.632859383,-0.8031554157,-0.08403267503,1.821633848,0.0
1.560511375,-1.622088081,-1.164575908,0.2019547156,2.007035748,0.0
1.570551375,-1.501113282,-1.580532796,0.5697994709,2.253019406,0.0
1.580591375,-0.5004946165,-0.7072944081,0.6906579832,1.108047242,0.0
1.590632375,-0.01601362333,-0.2842015779,0.8005926541,0.8496914563,0.0
1.600672375,-0.1894648437,0.3228908497,0.61880155,0.723236328,0.0
1.610712375,-0.1753524426,0.9407737291,0.06736701407,0.9593445695,0.0
1.620752375,0.111201324,1.21117237,-0.4426434343,1.294309644,0.0
1.630793375,0.5025649694,1.115955141,-0.7786807251,1.450610594,0.0
1.640833375,0.5291059197,0.8653651124,-0.7303523183,1.24988974,0.0
1.650873375,0.001103808135,0.5691995466,-0.3741924195,0.6811822877,0.0
1.660914375,-0.4718042296,0.3173266393,0.01505891919,0.5687901178,0.0
1.670954375,-0.6982170443,0.1145124561,0.3680575208,0.7975503007,0.0
1.680994375,-0.7544435777,0.1729547918,0.6694861655,1.023381746,0.0
1.691035375,-0.7677932096,0.09968391716,0.7078298669,1.04903118,0.0
1.701075375,-0.9272804019,-0.08877008915,0.5625055079,1.088182668,0.0
1.711115375,-1.100273639,-0.207508328,0.4797277915,1.218113517,0.0
1.721156375,-1.041018979,-0.2855528694,0.4185694972,1.157782959,0.0
1.731196375,-0.92229682,-0.3958693635,0.377671659,1.072371139,0.0
1.741236375,-0.802370427,-0.4730643046,0.4392416704,1.029816189,0.0
1.751277375,-0.6731598249,-0.4287669683,0.5233620536,0.9544071993,0.0
1.761317375,-0.5827992931,-0.3982790011,0.5967327695,0.9243220093,0.0
1.771357375,-0.6666062656,-0.380575971,0.7141240291,1.048415524,0.0
1.781397375,-0.7696020457,-0.2627721173,0.8244657393,1.158050193,0.0
1.791438375,-0.833796726,-0.2336670166,0.837177513,1.204443209,0.0
1.801478375,-0.8014687863,-0.2185022628,0.7751525883,1.136202882,0.0
1.811518375,-0.6615734209,-0.1923459131,0.6131940702,0.9223249478,0.0
1.821559375,-0.5322967453,-0.2082099938,0.4124018542,0.7048166541,0.0
1.831599375,-0.3911892521,-0.2443071949,0.1553874171,0.4866829418,0.0
1.841639375,-0.2549008879,-0.239447574,-0.05312670507,0.3537400884,0.0
1.851680375,-0.1213368876,-0.1747212356,-0.2963088957,0.3647589782,0.0
1.861720375,0.02664956242,-0.05032581568,-0.5312698281,0.5343131265,0.0
1.871760375,0.1274959061,0.06790196121,-0.6885330319,0.7035222942,0.0
1.881801375,0.240843012,0.1321581835,-0.7660554171,0.8138255611,0.0
1.891841375,0.4044880132,0.128127113,-0.9159125376,1.009417102,0.0
1.901881375,0.6203970359,0.1811882561,-1.089823934,1.267058749,0.0
1.911922375,0.8566688409,0.2578674728,-1.239078791,1.528297545,0.0
1.921962375,1.114230066,0.3481069672,-1.366549262,1.797260133,0.0
1.932002375,1.240488116,0.4053903848,-1.496235827,1.985415267,0.0
1.942043375,1.307690458,0.4322279352,-1.484729676,2.025166051,0.0
1.952083375,1.341019003,0.3896426636,-1.369845922,1.956177707,0.0
1.962123375,1.328673484,0.2939494711,-1.302150367,1.883447663,0.0
1.972163375,1.248865568,0.2016236901,-1.264721171,1.78880881,0.0
1.982204375,1.227519138,0.1546851665,-1.278439908,1.779083847,0.0
1.992244375,1.206481002,0.1453454089,-1.274861412,1.761247659,0.0
2.002284375,0.9959914716,0.1790680557,-1.332224936,1.672987645,0.0
2.012325375,0.8447523616,0.2906264985,-1.307729781,1.583738455,0.0
2.022365375,0.8571373491,0.4706768864,-1.237402979,1.577145301,0.0
2.032405375,0.7125338057,0.5539207721,-1.190006618,1.493535536,0.0
2.042446375,0.5134584783,0.5315768069,-1.101139466,1.326168026,0.0
2.052486375,0.3524691363,0.5511597168,-0.9353112602,1.141410828,0.0
2.062526375,0.05393793315,0.4484808558,-0.6608616686,0.8004889279,0.0
2.072567375,-0.2410764621,0.2141425788,-0.245816946,0.4054637784,0.0
2.082607375,-0.564736513,-0.1284259057,0.1244533074,0.5923758673,0.0
2.092647375,-0.8387712447,-0.4554788035,0.5007450235,1.077842159,0.0
2.102688375,-1.014958377,-0.7146671623,0.8602552307,1.510274386,0.0
2.112728375,-1.124501139,-0.7817370647,1.05736487,1.730212738,0.0
2.122768375,-1.237554422,-0.7595661771,1.003419701,1.765030544,0.0
2.132809375,-1.24177275,-0.8116239381,0.8135160971,1.691904672,0.0
2.142849375,-1.209909956,-0.84327784,0.5698531922,1.581054167,0.0
2.152889375,-1.068053581,-0.8065456313,0.3082160926,1.373408703,0.0
2.162929375,-0.7809263483,-0.7269223416,0.1133764151,1.072900864,0.0
2.172970375,-0.403498372,-0.5336280102,-0.009040891752,0.6690676551,0.0
2.183010375,-0.01354317471,-0.2649414343,-0.06311367631,0.2726916158,0.0
2.193050375,0.3913781172,0.1004154038,-0.1842551208,0.4440833632,0.0
2.203091375,0.7450614278,0.491342116,-0.3727798784,0.9672116851,0.0
2.213131375,1.030709461,0.7279128599,-0.5794836295,1.388531743,0.0
2.223171375,1.266066176,0.745966723,-0.788521589,1.667679889,0.0
2.233212375,1.378744215,0.561197632,-0.9662278283,1.774675916,0.0
2.243252375,1.430225586,0.3704187727,-0.9773866546,1.771451373,0.0
2.253292375,1.358662684,0.2015371513,-0.8682659161,1.624951449,0.0
2.263333375,1.223162085,0.09119317532,-0.5641791272,1.350088801,0.0
2.273373375,1.12033836,0.04235196769,-0.2095840895,1.140560047,0.0
2.283413375,1.069364088,0.08357717693,0.09019564033,1.076410679,0.0
2.293454375,1.058815565,0.2266187829,0.2421238629,1.109536136,0.0
2.303494375,1.097884759,0.3734774512,0.2416385257,1.184578207,0.0
2.313534375,1.204825802,0.4676690787,0.09535054564,1.295921026,0.0
2.323575375,1.307705222,0.4958877414,-0.1907396829,1.411516641,0.0
2.333615375,1.419914168,0.4866123033,-0.5565894413,1.600855891,0.0
2.343655375,1.509412382,0.4391498691,-0.9127585495,1.817775155,0.0
2.353695375,1.521869144,0.3814735186,-1.12624624,1.931330715,0.0
2.363736375,1.508706038,0.3484063447,-1.164830847,1.937630458,0.0
2.373776375,1.378249979,0.3333070797,-1.038908719,1.757838997,0.0
2.383816375,1.086961649,0.2559922707,-0.8027624828,1.375298248,0.0
2.393857375,0.8256707773,0.17383012,-0.5623039252,1.013969845,0.0
2.403897375,0.6613840442,0.1339854383,-0.4260024047,0.7980344607,0.0
2.41393775,0.6476920579,0.1033963144,-0.3724980426,0.7542881355,0.0
2.42397875,0.8623131582,0.04138366878,-0.3696089333,0.939099225,0.0
2.43401875,1.132368933,-0.04339569569,-0.3761379343,1.193994276,0.0
2.44405875,1.178474301,-0.05405049205,-0.3475690234,1.229848511,0.0
2.45409975,1.14159964,0.01900929809,-0.2826608366,1.17622627,0.0
2.46413975,1.067399643,0.1327972841,-0.1556756848,1.08683579,0.0
2.47417975,0.8005316969,0.226219418,0.07173889498,0.8349686772,0.0
2.48422075,0.3607658967,0.6722619849,0.5096912634,0.9175365893,0.0
2.49426075,-0.2094355702,1.43252632,0.9240857756,1.717535861,0.0
2.50430075,-0.8594983086,2.351786388,1.286189808,2.814945964,0.0
2.51434175,-1.524514716,3.379588906,1.324697231,3.937078745,0.0
2.52438175,-2.152069914,4.462413138,0.7636557198,5.012754331,0.0
2.53442175,-2.93544493,5.508396403,0.03324610789,6.241824506,0.0
2.54446175,-4.743089722,7.701669452,-0.03995285054,9.045120712,0.0
2.55450275,-5.765825334,10.89066369,-1.92439527,12.47215276,0.0
2.56454275,-3.113180113,11.82939206,-8.248683493,14.75354826,0.0
2.57458275,-3.506201005,9.87904977,-14.83044392,18.16125372,0.0
2.58462375,0.2144802555,7.054336486,-16.83974953,18.25888357,0.0
2.59466375,2.661770679,4.027057527,-12.90144981,13.77496362,0.0
2.60470375,5.311029485,1.435164583,-7.867434508,9.60016965,0.0
2.61474475,5.99336213,-1.118985168,-2.490163085,6.585850713,0.0
2.62478475,6.001785629,-4.620641717,2.49838544,7.975819106,0.0
2.63482475,6.361779401,-8.59727344,5.726999238,12.13193587,0.0
2.64486575,6.242672787,-12.21661924,6.998496162,15.40115897,0.0
2.65490575,5.012181217,-14.98237329,7.123245338,17.33014986,0.0
2.66494575,3.707678515,-16.49820899,7.627808594,18.55050521,0.0
2.67498675,1.852168708,-16.57933092,8.329745783,18.64643149,0.0
2.68502675,-0.2434321591,-17.02479519,7.432206366,18.57796012,0.0
2.69506675,-2.290720991,-19.21039787,4.611465096,19.88849917,0.0
2.70510775,-3.734163478,-20.3213665,1.040252701,20.68777511,0.0
2.71514775,-3.518238375,-19.54691682,-1.615628808,19.92662076,0.0
2.72518775,-1.275586028,-15.94021387,-2.549588338,16.19314481,0.0
2.73522775,0.7375381078,-12.93169629,-3.532933306,13.42588355,0.0
2.74526875,1.546178504,-10.23894472,-3.371285859,10.89000576,0.0
2.75530875,2.27460972,-7.142885551,-2.519216731,7.908294146,0.0
2.76534875,1.975518207,-4.186561384,-1.51771265,4.871695813,0.0
2.77538975,1.374371228,-1.410505705,-0.1082330581,1.972343026,0.0
2.78542975,0.8834524508,1.066255562,1.416220189,1.98067382,0.0
2.79546975,0.5625019996,3.279571112,2.487736491,4.154615269,0.0
2.80551075,0.5544300646,5.124431385,2.95997283,5.943789101,0.0
2.81555075,0.512246789,6.639066061,3.077193131,7.335442216,0.0
2.82559075,0.5234918618,8.158562697,3.030801322,8.719056467,0.0
2.83563175,0.8280597304,9.830409122,2.608861563,10.20435128,0.0
2.84567175,0.9850686534,11.3605436,1.932970212,11.5658413,0.0
2.85571175,0.813968233,12.52108727,0.8803661442,12.57836297,0.0
2.86575275,0.3461444955,13.65294332,-0.4127625543,13.66356653,0.0
2.87579275,-0.5210595663,14.6345657,-1.023321211,14.67955049,0.0
2.88583275,-0.9502560856,14.92951095,-1.073673924,14.99820188,0.0
2.89587375,-1.061906695,14.33654949,-1.71424517,14.47767017,0.0
2.90591375,-1.729557566,12.85544509,-2.890389209,13.28940133,0.0
2.91595375,-1.87933531,11.05982597,-3.153149047,11.6530683,0.0
2.92599475,-1.927088936,9.971431099,-3.162157268,10.63683922,0.0
2.93603475,-2.630564966,8.957650205,-3.988468827,10.15220433,0.0
2.94607475,-3.261973917,8.186662077,-4.040487996,9.694712633,0.0
2.95611475,-3.819167376,7.939687382,-3.43514564,9.456474012,0.0
2.96615575,-4.091134824,8.286702674,-2.902773612,9.68673939,0.0
2.97619575,-3.648743843,8.782754722,-2.366480295,9.800527595,0.0
2.98623575,-3.156938336,9.087192344,-1.917213573,9.809130045,0.0
2.99627675,-2.744057375,9.347902733,-1.581604591,9.869883964,0.0
3.00631675,-2.799881035,9.640055355,-1.432933432,10.14018241,0.0
3.01635675,-3.164355821,9.994877264,-1.507595213,10.59167421,0.0
3.02639775,-3.717701227,10.01690256,-1.798221127,10.83481603,0.0
3.03643775,-4.21148134,9.208061893,-2.736574109,10.48874715,0.0
3.04647775,-4.183214437,7.329115861,-4.49652287,9.562109613,0.0
3.05651875,-3.247025218,4.45650745,-6.162890453,8.269513296,0.0
3.06655875,-1.970963811,-0.3959962481,-7.263821173,7.536883269,0.0
3.07659875,-0.6993065268,-9.990543308,-9.091831525,13.52632196,0.0
3.08663975,1.422683263,-27.48807419,-11.77319447,29.93703991,0.0
3.09667975,8.682328793,-48.97527726,-12.89404958,51.38304322,0.0
3.10671975,18.96894996,-47.58160511,-5.887495952,51.56057424,0.0
3.11676075,18.49935071,-26.59981665,1.72372643,32.44606995,0.0
3.12680075,12.12493607,-17.34362749,4.340887531,21.60228677,0.0
3.13684075,9.896344664,-16.80437387,9.506504949,21.69558147,0.0
3.14688175,8.939091727,-17.87699296,13.69013045,24.22630615,0.0
3.15692175,5.635745836,-17.69456802,13.69695415,23.07522311,0.0
3.16696175,2.312563119,-15.587725,9.249182437,18.27217816,0.0
3.17700175,0.5077646059,-12.55452632,5.506925243,13.71860713,0.0
3.18704275,-0.9121228109,-9.760834857,3.242022632,10.32553029,0.0
3.19708275,-1.089263624,-7.620061617,1.969303494,7.945438348,0.0
3.20712275,-0.2195578314,-5.888777077,1.239615566,6.021839241,0.0
3.21716375,0.7680528259,-3.618544729,0.3929584734,3.719971433,0.0
3.22720375,1.441262352,-0.8108778334,-0.1515855575,1.660643914,0.0
3.23724375,1.336149588,1.894249949,-0.06533320628,2.318996986,0.0
3.24728475,1.191869834,4.363196998,0.5580314378,4.557350198,0.0
3.25732475,1.316304722,7.019516902,0.5673869828,7.164370429,0.0
3.26736475,1.023433551,9.655512469,0.02478166938,9.709631889,0.0
3.27740575,0.1410504097,11.84911706,-0.4095050704,11.85703018,0.0
3.28744575,-1.164266737,13.4793734,-0.3088627946,13.53308615,0.0
3.29748575,-1.459400123,14.46257921,0.2239138426,14.53775029,0.0
3.30752675,-1.271245932,15.01806353,0.1747791231,15.07278495,0.0
3.31756675,-1.784724876,15.31437703,-0.2306405343,15.41974648,0.0
3.32760675,-2.747922385,15.56463318,-0.9857341397,15.83605239,0.0
3.33764775,-4.110625056,15.31866888,-2.222219106,16.01552723,0.0
3.34768775,-5.477824236,14.29169199,-4.089451411,15.84243135,0.0
3.35772775,-6.227769989,11.81708016,-5.873947368,14.59218148,0.0
3.36776875,-6.038655832,8.997769121,-5.779611315,12.28125077,0.0
3.37780875,-6.637801309,6.790521811,-6.402145654,11.45246967,0.0
3.38784875,-6.920365666,5.309279999,-6.242501464,10.72607755,0.0
3.39788875,-6.362510303,4.927660884,-4.837192179,9.389451918,0.0
3.40792975,-4.824886714,5.438207595,-2.526561418,7.696567173,0.0
3.417969625,-3.42197888,5.843439521,-1.0291666,6.849445874,0.0
3.428009625,-2.247256591,6.381855816,-0.2173422118,6.769452229,0.0
3.438050625,-1.2040509,7.239396184,0.6646793157,7.368880123,0.0
3.448090625,-0.236605681,8.271368936,1.536364684,8.416171503,0.0
3.458130625,0.4695534901,9.456913544,2.280405334,9.739298884,0.0
3.468171625,0.8260823482,10.51385157,2.673287355,10.87979559,0.0
3.478211625,1.182615007,11.54870934,2.308097747,11.83632463,0.0
3.488251625,2.070854427,12.21958845,0.7735398531,12.41793638,0.0
3.498292625,3.489342313,11.24031783,-1.74539855,11.8981793,0.0
3.508332625,3.51002216,9.349480312,-2.873101916,10.39171556,0.0
3.518372625,3.670757149,8.271533827,-2.555617987,9.403399023,0.0
3.528413625,3.586700208,5.184143152,-5.573612738,8.414565797,0.0
3.538453625,4.915103989,-3.664754105,-10.51010818,12.16762277,0.0
3.548493625,4.563648906,-18.12728887,-13.0332367,22.78795191,0.0
3.558534625,2.606152548,-39.91225204,-15.37181306,42.84941693,0.0
3.568574625,6.916230515,-50.47269306,-13.22414361,52.63273661,0.0
3.578614625,12.52234208,-27.79441216,-2.502512405,30.58759498,0.0
3.588655625,9.325875687,-17.03788828,3.027395904,19.65773945,0.0
3.598695625,9.167534841,-17.64414046,5.278813666,20.57243936,0.0
3.608735625,7.435780769,-22.04938245,6.107603275,24.05761667,0.0
3.618776625,4.363134432,-24.1230507,6.522417033,25.36731048,0.0
3.628816625,3.07254518,-22.14089371,7.774257957,23.66640647,0.0
3.638856625,3.525861683,-19.03061119,7.079592365,20.60865087,0.0
3.648896625,3.483187534,-15.33741973,5.576263865,16.68723339,0.0
3.658937625,2.745391125,-12.03636478,3.236368375,12.76265372,0.0
3.668977625,2.661132163,-8.798638099,1.567099111,9.324883721,0.0
3.679017625,2.010181525,-6.122451695,1.589916408,6.637249332,0.0
3.689058625,1.191099317,-3.59519972,2.779797896,4.698026709,0.0
3.699098625,-0.044984238,-1.085358415,3.582777311,3.743837567,0.0
3.709138625,-0.8060135347,1.447370061,3.37479068,3.759488004,0.0
3.719179625,-1.814506792,4.233653689,2.106973994,5.065135523,0.0
3.729219625,-2.863636444,6.975734705,0.8708118669,7.590757648,0.0
3.739259625,-1.603333868,9.062928153,0.3699041812,9.2110898,0.0
3.749300625,0.1618137264,10.95187468,-0.9644222081,10.99544691,0.0
3.759340625,0.0506871736,12.639194,-1.979565504,12.79337617,0.0
3.769380625,-0.9281526603,14.04363439,-3.144013358,14.42116342,0.0
3.779421625,-1.124513856,15.22267865,-4.10337597,15.80608019,0.0
3.789461625,-0.8140085057,15.67955903,-4.632446076,16.36981179,0.0
3.799501625,-0.7789829531,15.21293485,-4.66664644,15.93166,0.0
3.809542625,-1.226274851,14.43477219,-4.849723347,15.27698317,0.0
3.819582625,-2.520344658,13.03348345,-5.817947999,14.49387274,0.0
3.829622625,-3.348941309,10.77066011,-6.613873917,13.07539121,0.0
3.839663625,-3.685692399,8.677345212,-6.679055169,11.55380571,0.0
3.849703625,-4.105393844,7.161594302,-6.190597485,10.31824543,0.0
3.859743625,-4.576470388,6.561643664,-4.995637105,9.431629704,0.0
3.869783625,-4.200025182,6.86472707,-3.236062565,8.673914353,0.0
3.879824625,-3.307971331,7.317488673,-1.824903141,8.235204082,0.0
3.889864625,-2.62890231,7.77897549,-1.105607323,8.285285426,0.0
3.899904625,-2.20294259,8.408780842,-0.3768045169,8.700720255,0.0
3.909945625,-1.38076589,9.051385165,0.4580515053,9.167545965,0.0
3.919985625,-0.6516024564,9.558903603,1.235593266,9.660430351,0.0
3.930025625,-0.7017858924,10.08269894,2.01185032,10.30538029,0.0
3.940066625,-1.051085107,10.61684793,2.781419329,11.02535865,0.0
3.950106625,-1.446846297,11.04633528,3.144589893,11.57598086,0.0
3.960146625,-1.783192613,10.8623234,2.491512038,11.28616311,0.0
3.970187625,-1.606566647,10.04180234,1.117081314,10.2306755,0.0
3.980227625,-1.008636514,8.891212386,-0.2537469399,8.9518374,0.0
3.990267625,0.00118040666,6.733511458,-1.539398219,6.907237134,0.0
4.000308625,1.50372728,2.753825149,-3.146979066,4.443897605,0.0
4.010348625,3.829105596,-4.835228684,-6.095176772,8.671370479,0.0
4.020388625,5.885948778,-20.97831521,-9.526996517,23.7801969,0.0
4.030429625,7.51500294,-47.63203149,-12.31116053,49.76796527,0.0
4.040469625,8.827564859,-54.42426011,-9.78406526,55.99690994,0.0
4.050509625,11.00010836,-27.94221106,-3.226492428,30.20231442,0.0
4.060550625,11.18725785,-16.34010963,2.322854511,19.93864524,0.0
4.070590625,10.60528565,-17.03605342,5.248554325,20.74238468,0.0
4.080630625,7.980547725,-20.32676699,6.017708766,22.65125641,0.0
4.090671625,4.90806511,-20.61399158,7.212348719,22.38400603,0.0
4.100711625,3.370105307,-18.42003791,8.425548903,20.53400304,0.0
4.110751625,1.226345894,-13.93483993,8.980282438,16.62315135,0.0
4.120792625,-0.8701308855,-9.997370517,7.430670887,12.48676959,0.0
4.130832625,-1.577588869,-6.970431281,5.290697547,8.891972752,0.0
4.140872625,-2.300111035,-4.349278286,3.794257067,6.213140838,0.0
4.150912625,-2.643664775,-2.170040892,2.641791912,4.321701682,0.0
4.160953625,-2.825720758,0.1979650873,1.632406955,3.269348627,0.0
4.170993625,-2.787115102,2.973993284,0.7827316761,4.150339205,0.0
4.181033625,-2.490498716,5.282227271,-0.4794856803,5.859557603,0.0
4.191074625,-2.190779212,7.124261584,-1.972809631,7.71016177,0.0
4.201114625,-1.357146647,9.294438132,-3.294319544,9.953942358,0.0
4.211154625,-0.6868322962,11.18752916,-3.958496584,11.88706198,0.0
4.221195625,-0.3426668639,12.70111134,-4.248996198,13.39737357,0.0
4.231235625,-0.5971037022,13.90755448,-4.552595914,14.64591185,0.0
4.241275625,-0.8200583274,14.57853768,-4.404960151,15.25155502,0.0
4.251316625,-0.8014744142,14.95813892,-4.149257317,15.54363592,0.0
4.261356625,-1.306790718,14.95902302,-4.204533386,15.59352983,0.0
4.271396625,-1.8759296,14.83016559,-4.112056162,15.5036102,0.0
4.281437625,-2.284468271,13.94360841,-3.814045215,14.63522982,0.0
4.291477625,-2.800155855,12.26752861,-3.70895964,13.11828924,0.0
4.301517625,-3.685474298,10.42852081,-3.611787102,11.63536734,0.0
4.311558625,-4.586637819,8.8436716,-3.528468372,10.56872097,0.0
4.321598625,-4.155560031,7.778397201,-3.208008209,9.384213278,0.0
4.331638625,-3.153820893,7.443579785,-2.374043815,8.425529673,0.0
4.341679625,-2.330949835,7.522852827,-1.419391719,8.002581748,0.0
4.351719625,-1.702934754,7.627764739,-0.6795259809,7.845032648,0.0
4.361759625,-0.8546658772,7.853743252,-0.213693001,7.902999527,0.0
4.371800625,-0.4216229863,8.27741788,0.1666889155,8.289824962,0.0
4.381840625,-0.483881215,9.064512749,0.8464891309,9.116801865,0.0
4.391880625,-0.7740947539,9.884108781,1.362707641,10.00758718,0.0
4.401921625,-1.165341455,10.29477979,1.15479644,10.42468543,0.0
4.411961625,-1.481043153,10.31036729,0.4642577766,10.42653815,0.0
4.422001292,-1.145080268,9.708803993,-0.5705882603,9.792734794,0.0
4.432041292,-0.1768861672,8.740190501,-1.894283279,8.944860415,0.0
4.442082292,0.7183544165,7.089078303,-3.223919068,7.820787582,0.0
4.452122292,1.604119149,3.263064423,-4.773011386,6.00020211,0.0
4.462162292,3.094455866,-4.924473567,-6.905562855,9.028449223,0.0
4.472203292,3.961322251,-23.2808926,-10.08829472,25.68006473,0.0
4.482243292,5.429946649,-52.62070749,-14.93048276,54.96673988,0.0
4.492283292,12.34437154,-53.47215564,-11.41947184,56.05407456,0.0
4.502324292,13.18935385,-26.88557709,-0.4884587809,29.95049086,0.0
4.512364292,10.28602417,-18.92935729,3.188427054,21.77817549,0.0
4.522404292,7.379065116,-19.47873127,4.952363616,21.41021904,0.0
4.532445292,6.173884388,-20.72508166,5.947342204,22.42803463,0.0
4.542485292,4.299394812,-19.89958111,7.063927674,21.54941294,0.0
4.552525292,1.912941451,-16.67971358,6.804248149,18.11546253,0.0
4.562566292,0.08524889588,-13.90033785,5.81912212,15.06946721,0.0
4.572606292,-0.4485966307,-11.31265373,4.776621164,12.28794056,0.0
4.582646292,-0.3982547352,-8.42995478,3.29931599,9.061359193,0.0
4.592687292,-0.392885237,-5.854691902,2.184370079,6.261249773,0.0
4.602727292,-0.8251238434,-3.425460897,1.982313841,4.042793574,0.0
4.612767292,-1.681795754,-0.5642411077,2.152565757,2.789326859,0.0
4.622808292,-2.176078143,2.033619504,2.137049732,3.665774942,0.0
4.632848292,-2.720405973,4.101981994,1.394501292,5.115808713,0.0
4.642888292,-2.968272075,6.375103451,0.1091160607,7.033099561,0.0
4.652929292,-2.608251991,8.831278426,-1.196293545,9.285772737,0.0
4.662969292,-2.23757711,10.92242108,-1.935063515,11.31594028,0.0
4.673009292,-1.878534973,12.65025928,-1.88036749,12.9264742,0.0
4.683050292,-1.408826531,13.92081363,-1.669223948,14.09113739,0.0
4.693090292,-1.24394192,14.92317959,-1.699268696,15.07103827,0.0
4.703130292,-1.52166069,15.41191794,-1.969534605,15.61158968,0.0
4.713171292,-1.770342041,15.59159586,-1.98213594,15.81647354,0.0
4.723211292,-1.678187145,15.59802546,-1.692366058,15.77906249,0.0
4.733251292,-1.329508174,14.87393434,-1.774888397,15.03834245,0.0
4.743291292,-1.433791365,12.97147958,-2.088236006,13.21649612,0.0
4.753332292,-1.599525576,10.92535872,-2.712039192,11.37000888,0.0
4.763372292,-2.110784332,9.159375637,-3.519213983,10.0366548,0.0
4.773412292,-2.515843764,7.947886932,-4.063698519,9.274266666,0.0
4.783453292,-2.760697966,7.43428856,-4.384369766,9.061611219,0.0
4.793493292,-2.639700656,7.438334833,-4.29737723,8.986895776,0.0
4.803533292,-2.185393342,7.782421255,-3.672118673,8.878427799,0.0
4.813574292,-1.758952834,8.016464247,-2.661771263,8.628014856,0.0
4.823614292,-1.3699788,8.149142248,-1.641722154,8.424999283,0.0
4.833654292,-1.219044622,8.381964927,-0.4820363454,8.483853185,0.0
4.843695292,-1.290689386,8.670981102,0.6197908258,8.788397637,0.0
4.853735292,-1.136430774,8.851646032,1.438641338,9.039513332,0.0
4.863775292,-0.668584671,8.884568195,1.469950839,9.030133606,0.0
4.873816292,-0.5136990912,9.043158717,1.094574212,9.123634092,0.0
4.883856292,-0.547557832,9.103983209,0.5734645057,9.138445786,0.0
4.893896292,0.07958835259,8.564334905,-0.1575058633,8.566152857,0.0
4.903937292,1.745367121,6.166221027,-1.679971715,6.625020235,0.0
4.913977292,3.02523682,1.581877071,-3.794154741,5.103920364,0.0
4.924017292,4.339426897,-7.279007562,-6.194683519,10.49707963,0.0
4.934058292,4.147303762,-26.989433,-8.982365216,28.74565197,0.0
4.944098292,2.345714201,-57.80815607,-10.34791577,58.7738432,0.0
4.954138292,5.729835722,-53.98845075,-6.588263698,54.68993555,0.0
4.964179292,9.070562278,-21.04799063,-0.3013466375,22.92125257,0.0
4.974219292,7.72474315,-15.7758159,3.376812648,17.88717103,0.0
4.984259292,3.040272642,-18.58638769,3.294566297,19.11939414,0.0
4.994300292,2.944344977,-19.32323743,2.91185083,19.76197226,0.0
5.004340292,6.110825091,-20.18084621,3.665218374,21.40192895,0.0
5.014380292,6.16998488,-17.79975709,5.737513701,19.69312391,0.0
5.024421292,3.349247996,-13.08701822,7.091648154,15.2570961,1.0
5.034461292,0.09986459613,-8.32724259,7.868642542,11.45724564,1.0
5.044501292,-1.430695556,-4.880099632,8.702397022,10.07938372,1.0
5.054542292,-1.061367143,-2.110648384,9.278551247,9.574593989,1.0
5.064582292,0.5725419612,-0.04419501007,8.512032731,8.53138082,1.0
5.074622292,1.686665608,1.828994438,6.525188613,6.983419503,1.0
5.084662292,2.309156385,4.243913214,3.306032102,5.854301909,1.0
5.094703292,2.821550817,6.837904138,-0.396907829,7.407807897,1.0
5.104743292,3.122073435,8.48785274,-3.93598305,9.863211913,1.0
5.114783292,2.972372435,10.15549326,-7.365445197,12.89258796,1.0
5.124824292,3.185135071,12.42403518,-8.4687838,15.36951641,1.0
5.134864292,2.536514256,13.71355907,-7.783777224,15.97131162,1.0
5.144904292,1.682006254,14.43560133,-6.25035369,15.82032401,1.0
5.154945292,0.5997532218,14.9148438,-5.120730683,15.78081595,1.0
5.164985292,-0.09530398719,14.92466244,-5.088425401,15.76853528,1.0
5.175025292,-0.3927169834,14.69536973,-5.463541242,15.68306096,1.0
5.185066292,-0.9539204626,14.09226452,-5.209489662,15.05458953,1.0
5.195106292,-1.385889658,12.24393626,-4.795670516,13.22244762,1.0
5.205146292,-2.100108193,10.04848454,-4.226314849,11.10154193,1.0
5.215187292,-3.428581556,8.286178764,-3.279914929,9.548495794,1.0
5.225227292,-4.515928025,7.648159243,-2.288213705,9.171906437,1.0
5.235267292,-4.216387154,8.198550051,-1.309403839,9.311749673,1.0
5.245308292,-3.357201086,9.197264425,-0.8416171577,9.826942122,1.0
5.255348292,-2.567383754,9.678540559,-0.4830414087,10.02491574,1.0
5.265388292,-1.448343915,10.06287804,-0.2854996963,10.17058134,1.0
5.275429292,-0.8127844642,10.20051916,-0.25442931,10.23601211,1.0
5.285469292,-0.7678271234,9.888109446,-0.02099559724,9.917898352,1.0
5.295509292,-0.8606643896,9.247806002,-0.2370046073,9.290792767,1.0
5.305550292,-1.616659526,8.573167709,-1.150121006,8.799748344,1.0
5.315590292,-1.942336282,8.476726073,-1.866144723,8.894383131,1.0
5.325630292,-1.382372997,8.331561343,-2.494225731,8.806079236,1.0
5.335671292,-0.4519567332,6.954036857,-3.456131882,7.778672193,1.0
5.345711292,0.7242773536,3.815699392,-4.866036494,6.225949782,1.0
5.355751292,1.768610242,-1.972890907,-6.990297781,7.47559655,1.0
5.365792292,2.191293036,-14.15175175,-8.680638363,16.74596444,1.0
5.375832292,1.715207621,-38.69205274,-10.26208449,40.06653542,1.0
5.385872292,3.193871104,-57.82278347,-10.29874888,58.81954887,1.0
5.395913292,9.305944868,-35.48773413,-3.606922803,36.86447851,1.0
5.405953292,9.879497666,-17.51421884,5.037819504,20.72997735,1.0
5.4159935,10.1796984,-17.07564492,8.640540497,21.67632,1.0
5.4260345,5.930585253,-21.35678209,5.501400794,22.83745593,1.0
5.4360745,3.986249809,-23.96054255,3.317079539,24.51531773,1.0
5.4461145,4.232775437,-21.29010278,5.542560514,22.40323284,1.0
5.4561555,2.958560143,-17.1196499,7.885609993,19.07926455,1.0
5.4661955,1.068919699,-13.09682985,8.403725924,15.59782519,1.0
5.4762355,0.4656327859,-9.463026808,7.420492054,12.03450841,1.0
5.4862755,1.014772874,-6.322228249,6.013401707,8.784152442,1.0
5.4963165,1.220861791,-2.931905025,5.165827918,6.064020833,1.0
5.5063565,0.9715180966,0.3708070278,4.19193556,4.318989349,1.0
5.5163975,0.4323957503,3.132402542,2.953356121,4.326802993,1.0
5.5264375,1.06943367,5.622850971,1.502747287,5.917633887,1.0
5.5364775,1.613966152,8.11117043,-1.332938297,8.376914526,1.0
5.5465175,1.679310541,10.4212001,-6.41325361,12.35116663,1.0
5.5565585,2.346822833,12.22000945,-9.278538383,15.5218389,1.0
5.5665985,2.683171488,13.07759952,-8.901922731,16.04578595,1.0
5.5766385,2.27913795,14.79344391,-8.515978432,17.22098548,1.0
5.5866795,1.596065632,15.46775417,-7.985255318,17.48036462,1.0
5.5967195,1.152841789,15.91110994,-6.268635594,17.14025251,1.0
5.6067595,0.7424000676,16.57854271,-5.142877597,17.37378561,1.0
5.6168005,0.5018679813,16.43525786,-5.271177202,17.26716194,1.0
5.6268405,0.971326308,14.54528574,-5.729390749,15.66316476,1.0
5.6368805,0.5687363009,11.64948961,-5.055504407,12.71189183,1.0
5.6469215,-1.443463537,9.395458723,-4.336015046,10.4479308,1.0
5.6569615,-3.212156809,7.821594676,-4.559226657,9.606343859,1.0
5.6670015,-4.451289394,6.535207817,-4.449621769,9.07315008,1.0
5.6770425,-5.565876871,5.438743785,-3.717270287,8.624211135,1.0
5.6870825,-6.425494756,5.028428875,-2.630271143,8.572654553,1.0
5.6971225,-6.543530159,5.709260539,-1.232878988,8.771170586,1.0
5.7071635,-6.013184776,7.049218419,-0.1471492749,9.266688965,1.0
5.7172035,-5.356136076,8.234922656,0.3859622799,9.831129726,1.0
5.7272435,-3.934879096,9.083198111,0.5640768009,9.914935404,1.0
5.7372845,-2.623433994,9.641442899,0.48012606,10.00351679,1.0
5.7473245,-2.284599103,10.19091803,0.5954821962,10.46082227,1.0
5.7573645,-1.558105508,10.26945199,0.2278098242,10.38947709,1.0
5.7674055,-0.804142718,9.448854911,-0.9080135339,9.526384058,1.0
5.7774455,-0.2515197355,8.260579069,-2.143191648,8.537780693,1.0
5.7874855,0.41744939,6.899188221,-3.467220542,7.73270201,1.0
5.7975265,0.8784530814,3.480524712,-4.730625504,5.938396227,1.0
5.8075665,1.260874726,-4.095756463,-6.55738923,7.833541957,1.0
5.8176065,1.722082047,-20.99028329,-9.152968258,22.96376248,1.0
5.8276475,5.075474988,-50.96323703,-13.05547834,52.85316915,1.0
5.8376875,12.87342411,-57.04294265,-9.647724563,59.26804319,1.0
5.8477275,12.82129969,-31.41959699,0.7328176506,33.94280222,1.0
5.8577685,11.81224451,-20.82613324,5.722799767,24.61721721,1.0
5.8678085,8.838705559,-15.58161466,7.247612107,19.3245262,1.0
5.8778485,3.741640313,-15.95556398,7.657127702,18.08898833,1.0
5.8878895,-0.0263671419,-17.6844383,10.91172653,20.77993814,1.0
5.8979295,-2.593438947,-17.23802912,9.204326692,19.71281825,1.0
5.9079695,-1.891489625,-14.72094662,5.292994334,15.75753126,1.0
5.9180105,-0.4139673731,-12.06805084,2.237128629,12.28063372,1.0
5.9280505,0.4754379818,-9.44539336,0.4542994201,9.468256701,1.0
5.9380905,1.009717079,-6.934728767,0.05418483183,7.008061618,1.0
5.9481315,1.911869657,-3.671401219,-0.007202600241,4.139382125,1.0
5.9581715,1.352143915,-0.7905710381,0.2569428818,1.587235136,1.0
5.9682115,0.2254347217,2.095428082,1.456011661,2.561563901,1.0
5.9782525,-0.7994395101,4.891998131,2.068588192,5.371201575,1.0
5.9882925,-1.484582473,7.964017646,1.258808466,8.198424296,1.0
5.9983325,-1.72270536,11.47593957,-1.785399352,11.74106271,1.0
6.0083735,-1.376093087,13.5809793,-3.833634557,14.17862422,1.0
6.0184135,0.07380750284,14.61991609,-4.096922983,15.18328594,1.0
6.0284535,1.263263898,16.09062531,-3.120325118,16.43899289,1.0
6.0384945,1.183532435,16.91886703,-2.936396272,17.2125313,1.0
6.0485345,0.7133917384,17.51615544,-2.35863991,17.68863509,1.0
6.0585745,0.2842884091,17.81058029,-2.400315939,17.97384507,1.0
6.0686145,-0.2033266917,17.33706458,-3.125501658,17.61771581,1.0
6.0786555,-0.2400429668,15.30771588,-3.93418737,15.80701162,1.0
6.0886955,-0.4651160382,12.39216318,-5.233757946,13.46009894,1.0
6.0987355,-1.955435068,9.486256042,-6.575365909,11.70675945,1.0
6.1087765,-3.987353178,7.053737732,-6.885185893,10.63296695,1.0
6.1188165,-5.65921656,5.382665479,-6.103723063,9.912378874,1.0
6.1288565,-6.684424667,4.020499874,-5.028078627,9.280491746,1.0
6.1388975,-6.647234037,3.481791803,-2.63540266,7.953234668,1.0
6.1489375,-5.975974849,3.998570477,-0.04829507768,7.190491894,1.0
6.1589775,-5.294212893,4.863712226,1.103788839,7.273426742,1.0
6.1690185,-4.159625892,5.980821607,1.603052178,7.459389448,1.0
6.1790585,-3.187575991,7.39269556,2.009801456,8.297703914,1.0
6.1890985,-2.426466588,8.70437572,2.354783671,9.338035281,1.0
6.1991395,-1.5352695,9.668006215,2.543297904,10.11413668,1.0
6.2091795,-0.3426361661,10.1089237,2.791951919,10.49298496,1.0
6.2192195,0.8707160456,9.461722879,2.280377852,9.771513159,1.0
6.2292605,2.179208742,8.464673207,1.064834104,8.805311744,1.0
6.2393005,2.74988471,6.774715617,-0.1606814861,7.313306787,1.0
6.2493405,3.288634297,2.543615992,-1.866451117,4.557273047,1.0
6.2593815,4.073186796,-7.369006736,-4.802714072,9.693254015,1.0
6.2694215,5.549792351,-34.79639209,-10.1630502,36.67256041,1.0
6.2794615,10.84149796,-73.14547289,-15.77624625,75.60878407,1.0
6.2895025,12.37983608,-55.12322691,-8.709536473,57.16368175,1.0
6.2995425,6.627438873,-21.06434647,-1.16481696,22.11303771,1.0
6.3095825,3.113691159,-16.42615024,5.157018503,17.49595165,1.0
6.3196235,2.853491524,-17.81018151,16.01069972,24.1181982,1.0
6.3296635,-2.182574984,-17.29601128,19.2722041,25.98717935,1.0
6.3397035,-2.905744582,-15.39018501,13.13118224,20.43842198,1.0
6.3497445,-1.254349087,-12.87480054,8.313180621,15.37669837,1.0
6.3597845,-0.5469320337,-10.03789874,5.251234689,11.3416935,1.0
6.3698245,0.5390748377,-7.185946201,2.444725542,7.609540555,1.0
6.3798655,1.201450058,-4.962753534,-0.08756432019,5.106865221,1.0
6.3899055,1.380019639,-2.247829911,-0.8802983896,2.780668762,1.0
6.3999455,1.940635619,1.778801939,-1.293916318,2.933329573,1.0
6.4099865,2.055968732,5.110262412,-1.884114386,5.82165581,1.0
6.420026917,1.607062052,8.184516733,-3.262848076,8.956290536,1.0
6.430066917,2.09796475,11.39599176,-5.525048688,12.83729906,1.0
6.440107917,2.376865973,12.09205483,-5.451083749,13.47522156,1.0
6.450147917,1.215316438,12.00473719,-4.108978187,12.74654506,1.0
6.460187917,0.6714712221,12.43613424,-2.666162522,12.73643321,1.0
6.470228917,0.4227946222,13.54133284,-1.445574966,13.62483532,1.0
6.480268917,0.08237082325,15.25534588,-0.7579698873,15.27438644,1.0
6.490308917,-0.5220926231,16.85666552,-0.4517833632,16.87079908,1.0
6.500349917,-1.177275476,17.97421462,-0.4831314558,18.01920599,1.0
6.510389917,-1.809860594,18.39588189,-1.377794042,18.53597536,1.0
6.520429917,-2.294263381,17.60699544,-2.92049126,17.99442142,1.0
6.530470917,-2.308650455,15.24848125,-5.537312638,16.38621001,1.0
6.540510917,-2.588115642,11.86659555,-8.088662742,14.59249456,1.0
6.550550917,-2.410035181,8.661323841,-8.728850411,12.53074737,1.0
6.560591917,-2.904806981,6.423734744,-10.24393591,12.43545313,1.0
6.570631917,-3.602592355,5.60125545,-8.750530717,10.99656865,1.0
6.580671917,-3.42409031,5.923744011,-5.097271069,8.53213396,1.0
6.590712917,-3.345442628,5.884303957,-2.31044248,7.152283823,1.0
6.600752917,-3.698787823,5.685188137,-0.6628682868,6.814821339,1.0
6.610792917,-3.424912428,6.105747954,0.5425422366,7.021718828,1.0
6.620833917,-3.301303751,6.808797283,1.314907823,7.680319621,1.0
6.630873917,-3.416689489,7.483690515,1.72893513,8.406462245,1.0
6.640913917,-3.249685408,7.932273113,1.78697927,8.756409475,1.0
6.650954917,-3.163713212,8.0735588,1.53017599,8.805275211,1.0
6.660994917,-3.063522926,7.404910979,0.4313730723,8.025207913,1.0
6.671034917,-2.007526304,4.955473166,-2.017180057,5.714533361,1.0
6.681075917,-1.37764026,-0.668318038,-5.031152508,5.25899584,1.0
6.691115917,-1.741446271,-13.44056543,-8.511306506,16.00386743,1.0
6.701155917,-1.098783622,-44.41451454,-14.96592741,46.88107732,1.0
6.711196917,9.901397828,-74.84482345,-17.0050737,77.38835706,1.0
6.721236917,17.3861005,-49.26401277,-5.612476841,52.54254791,1.0
6.731276917,14.31654734,-18.70766245,0.5916562168,23.56459673,1.0
6.741317917,12.62282297,-16.68908783,10.69456328,23.49968076,1.0
6.751357917,9.413748229,-16.5347038,28.05072603,33.89481252,1.0
6.761397917,-0.9852135913,-16.01239073,26.0293272,30.57602292,1.0
6.771438917,-3.972978676,-15.03158697,14.70255946,21.39856119,1.0
6.781478917,-4.240651929,-12.89312922,7.582772169,15.54716514,1.0
6.791518917,-2.73463868,-10.46057057,2.290899185,11.05214931,1.0
6.801559917,-0.9579470015,-7.821052054,-1.824785028,8.088037963,1.0
6.811599917,-0.4046353631,-4.750293199,-3.635633801,5.995569063,1.0
6.821639917,-0.4235616307,-1.550533072,-5.022446004,5.273378531,1.0
6.831680917,0.02904165834,1.189796119,-4.566715186,4.719252675,1.0
6.841720917,1.371264603,5.088042408,-3.93207711,6.574935175,1.0
6.851760917,2.239321919,8.457118605,-3.640534937,9.475806688,1.0
6.861801917,3.858723497,9.524972795,-2.018191041,10.47320146,1.0
6.871841917,3.898430769,10.99091303,-1.614113941,11.77299008,1.0
6.881881917,3.353673753,12.95855255,-1.586980521,13.47923288,1.0
6.891922917,3.303378051,14.36698776,-1.454159848,14.81341367,1.0
6.901962917,3.086927284,15.27392131,-1.33683839,15.63997855,1.0
6.912002917,2.084376113,15.95631594,-0.8972716872,16.11687744,1.0
6.922043917,0.9383233072,16.78044239,-0.3433631212,16.81016346,1.0
6.932083917,-0.5235327923,17.2870241,-0.3472268882,17.29843506,1.0
6.942123917,-2.443894945,16.96558746,-1.021207881,17.17109914,1.0
6.952163917,-4.077801418,15.94947352,-2.389149511,16.63496936,1.0
6.962204917,-5.382119349,13.44357558,-4.462966869,15.15305271,1.0
6.972244917,-6.882555231,10.2182947,-6.202156845,13.79310924,1.0
6.982284917,-8.525693581,7.116491219,-6.890212744,13.06931253,1.0
6.992325917,-9.625968243,4.182806302,-9.046479351,13.85618713,1.0
7.002365917,-8.189594455,3.348866465,-8.364482337,12.17575167,1.0
7.012405917,-5.416845378,5.464897796,-4.806918805,9.072694757,1.0
7.022446917,-3.890922067,7.124614756,-2.578671804,8.517567624,1.0
7.032486917,-2.518849525,7.713429957,-1.702338485,8.290932454,1.0
7.042526917,-0.9496136959,8.228114743,-0.9735466419,8.339750083,1.0
7.052567917,0.1119868974,8.662764595,-0.2525441676,8.667168514,1.0
7.062607917,0.8268911643,9.147952516,0.3574314489,9.192200035,1.0
7.072647917,1.158518777,9.157867055,0.6331686705,9.252545451,1.0
7.082688917,0.9901783159,8.627488343,0.5667974373,8.702601193,1.0
7.092728917,0.5639797372,7.64861591,0.282422928,7.674578894,1.0
7.102768917,0.7457820971,4.708203186,-0.9681275886,4.864220308,1.0
7.112809917,0.4757696651,-2.095196532,-3.276168618,3.91784202,1.0
7.122849917,-1.645491562,-19.37823634,-6.869720008,20.62563306,1.0
7.132889917,-4.572279396,-59.9206054,-16.23562924,62.24934013,1.0
7.142930917,1.603910695,-76.6150563,-18.03543029,78.72557479,1.0
7.152970917,7.797822236,-33.82865217,-1.546844648,34.75020098,1.0
7.163010917,11.32521823,-18.29166697,4.441830646,21.96760132,1.0
7.173051917,15.85378033,-14.60485015,5.218875028,22.17838261,1.0
7.183091917,16.48806524,-14.91219267,8.934416878,23.95941549,1.0
7.193131917,11.27735409,-15.1120236,11.39587364,22.03220163,1.0
7.203172917,6.891678057,-12.91498846,11.52595314,18.63168669,1.0
7.213212917,3.210881239,-9.642106558,10.07658158,14.31144554,1.0
7.223252917,0.04506244451,-6.743970957,8.308430343,10.70108357,1.0
7.233293917,-1.173587198,-3.900195166,6.517830477,7.685762381,1.0
7.243333917,-1.441133129,-0.8135991275,4.986755769,5.254192739,1.0
7.253373917,-1.431686075,2.268833109,3.488303847,4.400635457,1.0
7.263414917,-1.020798869,5.466720958,1.571784192,5.779063411,1.0
7.273454917,-0.3693750447,6.459658282,1.556610668,6.654822298,1.0
7.283494917,0.530573644,7.309241175,1.459040519,7.472303138,1.0
7.293535917,0.703150998,9.451737004,-0.5315119028,9.492747685,1.0
7.303575917,0.877800386,11.35536062,-2.273540118,11.61394563,1.0
7.313615917,0.5947912015,12.44445366,-3.332401291,12.89663141,1.0
7.323656917,0.3248715209,13.75732431,-4.502709224,14.47908505,1.0
7.333696917,-0.4524143509,15.14843071,-5.125806066,15.99854742,1.0
7.343736917,-1.955515906,15.98316167,-5.625717276,17.0567932,1.0
7.353777917,-3.46027288,15.92917199,-6.107053637,17.40712822,1.0
7.363817917,-5.105581716,14.95313604,-6.960721979,17.26600396,1.0
7.373857917,-6.771815983,13.06309843,-8.173542679,16.83178042,1.0
7.383898917,-7.907387363,10.97550678,-9.017066687,16.25718351,1.0
7.393938917,-8.489537323,8.995195177,-8.854977191,15.21171921,1.0
7.403978917,-8.440601975,7.721652312,-8.191966086,14.0703939,1.0
7.414019917,-7.356131752,7.359274045,-6.976907072,12.52792166,1.0
7.424059792,-5.252224038,7.793049154,-5.001346326,10.64570042,1.0
7.434099792,-3.233907866,7.74195326,-3.623801376,9.139361946,1.0
7.444140792,-1.820333981,7.732007146,-3.019899189,8.49807869,1.0
7.454180792,-0.3540496387,8.000882587,-2.826710692,8.492924505,1.0
7.464220792,1.073345311,7.885352131,-2.591995854,8.369545441,1.0
7.474261792,2.093262419,7.774369639,-1.715727439,8.232028394,1.0
7.484301792,2.636534973,7.955626307,-1.020258367,8.442999096,1.0
7.494341792,2.894601544,8.081545511,-0.4290143055,8.595007227,1.0
7.504382792,2.912018645,7.745310146,0.1205806965,8.275519413,1.0
7.514422792,2.916088307,5.728461626,0.374366228,6.43886587,1.0
7.524462792,3.330117368,0.9836572087,-0.6112720174,3.525750511,1.0
7.534503792,3.644566593,-8.981919658,-3.650152438,10.35767151,1.0
7.544543792,4.202886517,-28.0134933,-7.483006976,29.29872788,1.0
7.554583792,6.277270178,-48.57402261,-10.63636126,50.11957676,1.0
7.564624792,7.852177368,-36.77458233,-5.82002493,38.0512718,1.0
7.574664792,8.05252695,-17.18876749,0.1706695537,18.98225609,1.0
7.584704792,9.60886923,-13.42382953,1.594268052,16.58527232,1.0
7.594745792,10.43929723,-16.59962777,0.6937499177,19.6216171,1.0
7.604785792,10.82068772,-20.68273378,-1.101087864,23.36825098,1.0
7.614825792,9.182202582,-21.00070537,-0.823108162,22.93512541,1.0
7.624866792,6.014693942,-17.43250868,0.1462834485,18.44153738,1.0
7.634906792,2.801217417,-13.62680042,0.5161594534,13.92131206,1.0
7.644946792,0.2737938264,-10.48197372,1.006683398,10.53376227,1.0
7.654987792,-1.137485027,-8.339388426,1.339010046,8.522453837,1.0
7.665027792,-1.718783486,-6.73918735,1.309610245,7.077142206,1.0
7.675067792,-1.514339538,-4.240953353,2.350583031,5.079778555,1.0
7.685108792,-1.098485414,-1.252831442,3.99612751,4.329583341,1.0
7.695148792,-1.37500916,1.339105355,4.82032764,5.188392034,1.0
7.705188792,-1.940223536,3.763334652,4.748009276,6.361662296,1.0
7.715229792,-2.199709226,6.026953799,4.155843036,7.644208534,1.0
7.725269792,-2.543658092,8.033808258,3.334925534,9.062781026,1.0
7.735309792,-2.564624746,9.856300592,2.721394737,10.54181914,1.0
7.745350792,-2.485721248,11.39449487,2.099262686,11.8499041,1.0
7.755390792,-2.574086418,12.71427459,1.555630674,13.06517073,1.0
7.765430792,-2.863928804,14.03170373,1.160805624,14.36795976,1.0
7.775471792,-3.632116409,14.94523529,0.7756740868,15.39980512,1.0
7.785511792,-4.615959266,15.40853825,0.4951749659,16.09271044,1.0
7.795551792,-5.631808906,15.14483935,0.3893579042,16.16276678,1.0
7.805592792,-5.991341332,13.19649213,-0.1745587196,14.49393136,1.0
7.815632792,-5.743784255,10.53410632,-1.041756313,12.04340939,1.0
7.825672792,-5.693126317,8.078959873,-2.371503199,10.16392185,1.0
7.835713792,-5.605640277,6.362692736,-4.046057469,9.395618277,1.0
7.845753792,-5.490931354,5.323738409,-5.446522336,9.389202487,1.0
7.855793792,-4.230185121,5.098082662,-5.797834747,8.803397113,1.0
7.865834792,-2.926988102,5.92002986,-5.048171999,8.31252389,1.0
7.875874792,-2.175894686,7.441938472,-3.917805811,8.687126583,1.0
7.885914792,-1.223996483,8.347241237,-2.872970939,8.912270511,1.0
7.895955792,-0.9924560988,9.30962569,-1.61246678,9.500218351,1.0
7.905995792,-0.995643416,10.70901408,-0.2312924258,10.75768491,1.0
7.916035792,-0.8534174967,11.81343618,0.3979036464,11.85090389,1.0
7.926076792,-0.5868940982,12.65524578,0.3743176961,12.67437589,1.0
7.936116792,0.3769914816,13.51308611,-0.8501489031,13.54504972,1.0
7.946156792,1.759445024,12.73943633,-3.918783465,13.44417155,1.0
7.956197792,2.635325477,10.25789087,-5.805828475,12.07795139,1.0
7.966237792,3.341518269,7.975447199,-5.525291932,10.26169349,1.0
7.976277792,4.395656646,5.440483916,-6.702442278,9.687280066,1.0
7.986318792,6.351317562,0.7590791041,-8.021374154,10.25952627,1.0
7.996358792,7.018031124,-9.783880488,-7.620204874,14.24937194,1.0
8.006398792,6.829419243,-33.58697506,-7.289955304,35.04096615,1.0
8.016439792,8.468944014,-59.34881787,-7.482897048,60.41522113,1.0
8.026479792,4.762656844,-39.75293179,-0.3194873317,40.03848846,1.0
8.036519792,1.691169279,-12.24026889,6.283841279,13.86257181,1.0
8.046560792,0.3468571249,-8.461104652,5.221031481,9.948355217,1.0
8.056600792,1.169650999,-13.99997206,1.304828538,14.10921255,1.0
8.066640792,3.917762249,-21.82411496,-2.036779339,22.26632715,1.0
8.076681792,3.816533205,-25.64637434,-4.029991075,26.24010805,1.0
8.086721792,3.060277137,-22.32878112,-3.904052575,22.8731587,1.0
8.096761792,2.071103226,-16.05141856,-1.640644512,16.26742822,1.0
8.106802792,0.9281756106,-11.45890546,0.01880815387,11.49645067,1.0
8.116842792,-0.00626836136,-8.074276838,1.163694148,8.157706161,1.0
8.126882792,-0.5305706473,-5.202549017,2.449590279,5.774817229,1.0
8.136923792,-1.021501704,-2.839196836,4.37516274,5.314748668,1.0
8.146963792,-2.079524094,-0.1637144369,6.247965102,6.586978882,1.0
8.157003792,-2.877418916,2.736792794,6.744978433,7.827152003,1.0
8.167044792,-2.440784373,4.826720985,4.962240733,7.340197335,1.0
8.177084792,-0.8640461268,6.849620789,2.869212348,7.476380151,1.0
8.187124792,1.13832001,8.903464642,1.523531799,9.104317889,1.0
8.197165792,1.230470666,10.62917035,0.1492454926,10.70119595,1.0
8.207205792,0.6389796335,12.29897961,-0.8327452505,12.34368904,1.0
8.217245792,0.1499930683,13.58965657,-1.739127996,13.70130759,1.0
8.227286792,-0.2162279883,14.52462401,-1.891007668,14.64880088,1.0
8.237326792,-0.09953788295,15.46150467,-1.686757409,15.55355859,1.0
8.247366792,0.171229717,16.36965795,-1.836622716,16.47325724,1.0
8.257407792,0.3001616992,16.55707641,-1.984963653,16.67833796,1.0
8.267447792,0.2524006185,15.3019704,-2.209871541,15.46277907,1.0
8.277487792,0.3150563116,13.256108,-2.449768766,13.48425107,1.0
8.287528792,-0.06228307933,11.71144904,-2.416371224,11.95829284,1.0
8.297568792,-0.904964211,10.66914075,-2.337047896,10.9595309,1.0
8.307608792,-1.965747364,9.648824424,-2.337688166,10.12070953,1.0
8.317649792,-2.76762107,8.83654209,-2.219766199,9.522161754,1.0
8.327689792,-3.417819756,8.530015842,-1.82351969,9.368451644,1.0
8.337729792,-3.823162778,8.38078262,-1.372742048,9.313351259,1.0
8.347770792,-4.162405366,8.342323728,-0.9127556258,9.367662806,1.0
8.357810792,-4.525799879,8.426526557,-0.6323237479,9.585877513,1.0
8.367850792,-5.006486614,8.273188589,-0.5872820975,9.687902658,1.0
8.377891792,-5.196514691,8.187838537,-0.4634678543,9.708721197,1.0
8.387931792,-4.93128148,8.292400201,-0.6750364888,9.671458649,1.0
8.397971792,-4.796725938,8.685929509,-0.9244711071,9.965369937,1.0
8.408012792,-4.11034936,9.369356752,-1.556218904,10.34899198,1.0
8.418052875,-2.316507797,8.398100903,-3.45607224,9.372232524,1.0
8.428092875,-1.114068244,5.887018819,-5.302812393,8.00112229,1.0
8.438133875,0.1420353001,1.526777004,-6.73622749,6.908544191,1.0
8.448173875,0.9703200021,-6.283526114,-7.931313,10.1651339,1.0
8.458213875,0.4964014193,-22.0856422,-7.597226486,23.36107566,1.0
8.468254875,1.20152154,-51.60020931,-8.820469848,52.36244784,1.0
8.478294875,6.617041939,-60.19460592,-9.328199955,61.27145453,1.0
8.488334875,9.38414553,-25.20621933,-5.693978841,27.49249126,1.0
8.498375875,12.36922572,-11.98241837,-1.040956414,17.25281673,1.0
8.508415875,15.7956976,-16.88909301,1.453813108,23.17022007,1.0
8.518455875,12.32755846,-19.57557519,2.632214173,23.28304948,1.0
8.528496875,10.88826048,-20.51944678,6.817897305,24.20920561,1.0
8.538536875,7.327402042,-19.1023039,9.854535903,22.70904473,1.0
8.548576875,1.571700577,-15.06438985,10.0255541,18.16364003,1.0
8.558617875,-1.918010403,-10.72175166,8.320720021,13.70653509,1.0
8.568657875,-3.777875508,-7.705535631,5.841254416,10.38113076,1.0
8.578697875,-3.48328869,-4.802953808,3.544796137,6.911385174,1.0
8.588738875,-2.977520324,-1.986639465,2.311219575,4.260762792,1.0
8.598778875,-2.133186184,0.6576737666,1.854723941,2.902243783,1.0
8.608818875,-0.6383181672,3.089800313,1.407731202,3.454855018,1.0
8.618859875,0.5068367989,5.310333667,0.6107277147,5.369312389,1.0
8.628899875,0.9277687906,7.990866306,-1.239324374,8.13944864,1.0
8.638939875,0.7934459679,10.7721874,-1.983259774,10.98193504,1.0
8.648980875,0.5423864083,13.57021341,-2.104564941,13.74314624,1.0
8.659020875,-0.410119759,15.53328859,-2.138008091,15.68509902,1.0
8.669060875,-1.329965572,16.80033228,-1.776939601,16.94631191,1.0
8.679101875,-1.03954051,17.49383194,-1.5875401,17.59645089,1.0
8.689141875,-0.5981200214,17.96271431,-1.619014492,18.04544433,1.0
8.699181875,-1.087961157,18.27653672,-1.280583497,18.35361948,1.0
8.709222875,-2.15792897,18.03605009,-1.224109919,18.20588381,1.0
8.719262875,-3.340830052,16.45182887,-0.9813101363,16.81626558,1.0
8.729302875,-4.086960205,13.42063228,-1.15906615,14.07693322,1.0
8.739343875,-5.382455564,10.53074417,-1.818342565,11.96552424,1.0
8.749383875,-7.276372222,8.123710953,-2.621255322,11.2165615,1.0
8.759423875,-9.159508953,6.584424416,-3.698843372,11.87150755,1.0
8.769464875,-9.953970144,6.465713074,-4.571129249,12.71936279,1.0
8.779504875,-8.822747338,7.214922663,-4.869928985,12.3940384,1.0
8.789544875,-6.929426512,7.593237516,-4.567222139,11.24872107,1.0
8.799585875,-5.233749175,7.884683209,-3.945163178,10.25303234,1.0
8.809625875,-3.252999026,7.266215608,-3.43235301,8.669540882,1.0
8.819665875,-1.859446299,6.46751694,-2.498685402,7.178422156,1.0
8.829706875,-1.221521503,6.07468579,-1.062001128,6.286634125,1.0
8.839746875,-0.4837524301,5.297513062,-0.09029972076,5.320320958,1.0
8.849786875,0.2938379355,3.620060912,0.1839387864,3.636621401,1.0
8.859827875,1.524184349,-0.3633149904,-0.8946567392,1.804313274,1.0
8.869867875,3.690156164,-10.95891005,-4.244233056,12.31781134,1.0
8.879907875,10.20971566,-38.76185213,-9.836609509,41.27321602,1.0
8.889948875,22.80324291,-67.45231032,-14.87203399,72.73911912,1.0
8.899988875,22.64071371,-45.16271958,-6.029227781,50.87852931,1.0
8.910028875,12.11732065,-17.38904632,2.578243203,21.3507782,1.0
8.920069875,7.744211454,-8.557556228,6.799660424,13.3955202,1.0
8.930109875,5.181704278,-8.964716565,9.938031803,14.35202698,1.0
8.940149875,1.385503304,-13.17562926,7.508731216,15.22819327,1.0
8.950190875,0.00953344658,-13.04976561,3.701418778,13.56454844,1.0
8.960230875,0.03140671089,-11.614135,2.127953657,11.80751053,1.0
8.970271875,-0.5239706026,-9.813724676,1.427742566,9.930870357,1.0
8.980311875,-0.566589788,-7.774241585,0.4715859823,7.809113237,1.0
8.990351875,-0.9363622972,-5.830517759,-0.202684302,5.908704817,1.0
9.000391875,-0.7441068698,-3.012251616,-0.5282024518,3.147435886,1.0
9.010432875,-0.07974154964,0.05813828051,-0.3005703465,0.3163562985,1.0
9.020472875,0.03402918711,2.827686592,0.1692639562,2.832952477,1.0
9.030513875,0.3551973009,6.005142515,0.4703465553,6.033997649,1.0
9.040553875,0.8288505663,8.84554037,0.08350406846,8.884680671,1.0
9.050593875,1.765185528,10.51009882,0.3594061267,10.66335923,1.0
9.060634875,2.750509778,12.00731348,0.0551567487,12.31843834,1.0
9.070674875,3.086149604,13.22207019,-0.9920602423,13.61365649,1.0
9.080714875,2.931149565,14.085587,-1.727855734,14.49071717,1.0
9.090755875,2.358600441,14.63875465,-2.152024451,14.98290168,1.0
9.100795875,1.271363461,15.29108406,-2.220236315,15.50364686,1.0
9.110835875,0.6273618007,15.88913611,-2.111565812,16.04110156,1.0
9.120876875,-0.1529372875,15.95199718,-2.197138644,16.10332333,1.0
9.130916875,-1.167454492,15.28165133,-2.623829266,15.54915745,1.0
9.140956875,-1.805344643,14.14365219,-2.866826684,14.54375679,1.0
9.150997875,-2.11096618,12.51421796,-3.263917531,13.10400652,1.0
9.161037875,-2.708409825,11.15580217,-3.870717013,12.11486096,1.0
9.171077875,-3.547150226,10.00092562,-4.4719938,11.51518635,1.0
9.181118875,-3.91345899,9.120702737,-4.792266852,11.02126133,1.0
9.191158875,-3.349140407,8.413016565,-4.452990934,10.09082343,1.0
9.201198875,-3.232047282,8.017469383,-3.657811121,9.38645445,1.0
9.211239875,-3.394443172,8.605013984,-2.631493211,9.617341974,1.0
9.221279875,-3.638933385,8.953409804,-1.583073412,9.793441924,1.0
9.231319875,-3.911092622,9.234576092,-0.5572280303,10.04412984,1.0
9.241360875,-3.872540175,9.616201054,-0.09037460167,10.36706601,1.0
9.251400875,-3.763046092,9.592958372,-0.1377282776,10.30554876,1.0
9.261440875,-3.356253253,8.727901992,-0.3291830385,9.356766031,1.0
9.271481875,-3.232009276,7.267386805,-0.7328783154,7.987359111,1.0
9.281521875,-2.928316297,3.93815529,-1.778424793,5.219856145,1.0
9.291561875,-2.510372525,-1.152080993,-3.156118848,4.194084764,1.0
9.301602875,-1.682738618,-12.30735165,-4.257672297,13.13127135,1.0
9.311642875,-0.4653664452,-42.5253774,-9.472981693,43.57019246,1.0
9.321682875,4.542243126,-75.72184967,-13.40191651,77.03273236,1.0
9.331723875,9.033747039,-43.24760209,-3.81311083,44.3452758,1.0
9.341763875,8.933902323,-10.01786384,4.271103936,14.08596945,1.0
9.351803875,13.50248277,-5.19170711,11.10934838,18.23975014,1.0
9.361844875,11.69153576,-10.25423753,10.80352614,18.93561652,1.0
9.371884875,8.649305474,-17.66837249,5.793044708,20.50710215,1.0
9.381924875,7.547462588,-22.05380294,2.948720156,23.4953052,1.0
9.391965875,5.713992106,-20.70771075,2.424883308,21.61802603,1.0
9.402005875,2.538909276,-16.34905587,2.024449754,16.66841579,1.0
9.412045875,-0.3337514681,-12.84621701,1.303014732,12.91644413,1.0
9.422086375,-1.568715427,-9.837851458,0.8549025433,9.99875231,1.0
9.432126375,-1.035274674,-6.117344736,0.8775780456,6.266086777,1.0
9.442166375,0.1127755406,-2.454352983,0.7672658638,2.573958778,1.0
9.452207375,0.7529902522,0.5549387723,1.200409985,1.521819796,1.0
9.462247375,0.608878752,3.876346128,1.167650374,4.093922329,1.0
9.472287375,1.359733747,6.389761836,0.4113469434,6.545772566,1.0
9.482328375,3.162379754,8.617791905,-0.5679903424,9.197260247,1.0
9.492368375,5.243395911,9.692801918,-1.431791325,11.11276906,1.0
9.502408375,6.252354607,11.63263325,-3.21063127,13.59110914,1.0
9.512449375,5.857675737,14.07908489,-5.298076149,16.14319074,1.0
9.522489375,4.971183465,15.52953234,-4.985523176,17.05093784,1.0
9.532529375,2.812699302,15.79022344,-3.069732669,16.32990178,1.0
9.542570375,1.453294753,16.40660884,-2.380368748,16.64196607,1.0
9.552610375,1.338893101,17.1331862,-1.920856535,17.29243748,1.0
9.562650375,0.6559731039,17.4756506,-1.401235676,17.54400542,1.0
9.572691375,-0.2534998219,16.87904516,-1.59086278,16.95574451,1.0
9.582731375,-1.064506367,14.33744645,-2.75500424,14.63849695,1.0
9.592771375,-1.51515347,11.89859503,-2.604174435,12.27411822,1.0
9.602812375,-3.10548313,9.992049551,-3.444594156,11.01591161,1.0
9.612852375,-4.39305522,8.487021266,-4.482911137,10.55580202,1.0
9.622892375,-4.989687563,7.4338354,-5.875378182,10.70882624,1.0
9.632933375,-5.240728996,6.607374737,-6.298126611,10.52563728,1.0
9.642973375,-5.51567794,6.615487164,-4.703910745,9.81397727,1.0
9.653013375,-5.826203683,7.016185158,-3.159272252,9.651554522,1.0
9.663054375,-6.178888435,7.659625048,-2.229308416,10.09050713,1.0
9.673094375,-5.958366544,8.495529549,-1.555805506,10.49269674,1.0
9.683134375,-5.053533896,8.978607795,-1.442669485,10.40360024,1.0
9.693175375,-4.073718892,8.952122247,-1.987377384,10.03420885,1.0
9.703215375,-3.032935556,7.825475473,-1.953976334,8.617121792,1.0
9.713256375,-2.478847846,6.676116943,-1.543528692,7.2868172,1.0
9.723296375,-2.355466918,5.880419067,-1.334679013,6.473709977,1.0
9.733336375,-2.498449175,4.423801634,-1.756683676,5.375705229,1.0
9.743376375,-1.892753062,0.6806696963,-3.198783642,3.778629669,1.0
9.753417375,-0.7805344386,-8.169216909,-5.659734038,9.968847892,1.0
9.763457375,1.540841604,-26.91572066,-9.552129604,28.6019823,1.0
9.773498375,7.214371855,-52.29887206,-14.32894694,54.704094,1.0
9.783538375,13.31730847,-47.84630154,-8.887766622,50.45405506,1.0
9.793578375,15.02530121,-24.82110066,2.166027217,29.09533276,1.0
9.803619375,16.34383314,-15.93672426,4.097006013,23.19235908,1.0
9.813659375,13.8651914,-13.283066,4.926392623,19.82303507,1.0
9.823699375,8.062464877,-15.64110307,4.740310832,18.22410469,1.0
9.833740375,4.183352432,-17.43626142,4.109439533,18.39595453,1.0
9.843780375,0.8452052285,-17.33445204,4.398111892,17.9036585,1.0
9.853820375,-0.8558132471,-16.29839559,4.207793208,16.85454357,1.0
9.863861375,-2.20026208,-14.71399896,3.222492932,15.22259437,1.0
9.873901375,-2.891921472,-12.4621754,2.040666714,12.95505099,1.0
9.883941375,-1.666847786,-9.624506439,1.165074091,9.837016996,1.0
9.893982375,0.2610441189,-6.50769082,0.641492182,6.544440088,1.0
9.904022375,1.402769547,-3.374921073,0.5029377294,3.68928191,1.0
9.914062375,1.933757393,-0.2550175399,0.9836735809,2.184505737,1.0
9.924103375,2.086099142,2.542312063,1.412110766,3.578996657,1.0
9.934143375,2.126749569,4.790014504,1.517933821,5.456319801,1.0
9.944183375,1.940536362,7.1661984,1.544815664,7.583306424,1.0
9.954224375,1.613775825,9.51401219,0.6070590985,9.668982423,1.0
9.964264375,1.725594469,11.28199795,-0.7498597991,11.43780764,1.0
9.974304375,1.440326798,12.99650449,-1.487453309,13.16040226,1.0
9.984345375,0.6206323133,14.54066176,-2.045454853,14.69693554,1.0
9.994385375,-0.08795886107,15.56591021,-2.053371983,15.70100742,1.0
10.00442538,-0.8768722136,16.21343438,-1.252308117,16.28535032,1.0
10.01446637,-1.808022814,16.92388628,-0.5314282876,17.02848465,1.0
10.02450637,-2.341024149,17.53652012,-0.4017142403,17.69664675,1.0
10.03454638,-3.112269116,17.6404649,-0.8980865698,17.93540578,1.0
10.04458738,-4.408172903,16.83328719,-2.335877284,17.55698916,1.0
10.05462737,-6.32792753,13.66285903,-5.148664586,15.91304907,1.0
10.06466737,-6.66883716,10.18798975,-5.425658301,13.33065235,1.0
10.07470838,-7.448812459,7.327998458,-6.097203417,12.09794437,1.0
10.08474837,-7.896333202,5.52688296,-6.134562448,11.42503259,1.0
10.09478837,-7.033038588,4.912073377,-5.094602399,9.977327811,1.0
10.10482937,-5.905570865,5.265774375,-3.128117702,8.508188254,1.0
10.11486938,-4.515658468,5.944402224,-1.65666486,7.646674287,1.0
10.12490937,-2.893957765,6.483027264,-1.064281615,7.17895044,1.0
10.13495037,-1.111936057,7.129471453,-0.7828932054,7.258008458,1.0
10.14499038,0.08398048863,7.862700017,-0.4251165515,7.874631951,1.0
10.15503037,0.8288070045,8.677403099,0.3272031713,8.72303316,1.0
10.16507137,1.25430918,9.240561887,1.448040737,9.43705979,1.0
10.17511137,1.474874925,9.161257855,2.169497686,9.529460727,1.0
10.18515138,1.65874603,8.046642312,1.398758065,8.334051536,1.0
10.19519237,2.407224424,5.871585678,-0.1952759528,6.348888131,1.0
10.20523237,3.624267399,1.117021673,-2.453642546,4.517013763,1.0
10.21527238,6.063866687,-11.5703873,-6.466197224,14.57587212,1.0
10.22531338,11.35917535,-48.07773901,-15.12413436,51.6646813,1.0
10.23535337,16.77160725,-82.46501312,-17.17818637,85.8886214,1.0
10.24539337,13.54767707,-46.12187812,-4.201180007,48.25367457,1.0
10.25543438,5.658714284,-12.92135724,0.2913656048,14.10912521,1.0
10.26547437,3.364311593,-4.86713694,2.152845401,6.296217738,1.0
10.27551537,3.869210186,-5.112621179,4.384595468,7.767519566,1.0
10.28555538,4.798385963,-10.4585755,7.454117053,13.71022138,1.0
10.29559538,2.838751863,-12.22373998,8.640673814,15.2361273,1.0
10.30563637,-0.02646362096,-9.405206616,7.835693482,12.24159729,1.0
10.31567637,-1.050337248,-5.790421647,7.783000714,9.757422369,1.0
10.32571638,-1.369793297,-2.569778189,6.841842238,7.435785017,1.0
10.33575737,-1.395371211,-0.007548170686,4.896086504,5.091049091,1.0
10.34579737,-1.318098502,1.911767623,3.25951984,4.002088042,1.0
10.35583738,-1.038727017,4.015712759,1.967786872,4.590978975,1.0
10.36587838,-0.5402179684,6.123401282,1.089568995,6.242999224,1.0
10.37591837,0.5216270386,8.155336788,0.5036744785,8.187508832,1.0
10.38595837,1.245479446,9.631283362,0.03488331914,9.711542364,1.0
10.39599938,1.420187818,11.10696155,-0.3970393914,11.20442629,1.0
10.40603937,2.430956372,12.59406519,-0.9771311313,12.86370134,1.0
10.41607937,3.085970679,14.00968546,-1.532717775,14.42718703,1.0
10.426121,2.41156452,15.20229526,-1.80634174,15.49800939,1.0
10.436161,1.212061512,15.653429,-1.662033627,15.7880109,1.0
10.446201,0.2325865974,15.43825614,-1.20186945,15.48671493,1.0
10.456242,-0.4227862168,14.91353168,-0.3745135778,14.92422312,1.0
10.466282,-1.448885952,13.28072946,0.1224260412,13.36009107,1.0
10.476322,-2.806557971,11.22733701,-0.0801261868,11.57308447,1.0
10.486363,-4.30892782,9.253661404,-0.315981195,10.21258794,1.0
10.496403,-5.817970803,7.484261788,-0.2851020491,9.483893819,1.0
10.506443,-6.533629653,6.691688079,0.1647424139,9.353830544,1.0
10.516484,-6.377585594,7.203211859,0.3638231134,9.627680217,1.0
10.526524,-5.644776276,8.108478956,0.5203296876,9.893516724,1.0
10.536564,-5.042785544,9.045217522,1.124583292,10.41682935,1.0
10.546605,-4.880845445,9.709469991,1.764271023,11.00950099,1.0
10.556645,-4.745105549,9.894365966,2.42622846,11.23837573,1.0
10.566685,-5.001176172,9.555004095,2.67625891,11.1118058,1.0
10.576726,-5.970375556,8.698167731,1.870420207,10.71456849,1.0
10.586766,-5.868738084,6.160816446,-0.6977482438,8.537247717,1.0
10.596806,-4.131368053,1.729744969,-4.273057491,6.190253627,1.0
10.606847,-4.555924734,-4.940006111,-8.32004993,10.69501479,1.0
10.616887,-5.6271592,-18.39794128,-15.55243706,24.7391888,1.0
10.626927,0.1972621058,-38.51843722,-19.81884743,43.31853681,1.0
10.636968,16.31962332,-48.06415476,-13.97503837,52.64783733,1.0
10.647008,23.07772057,-33.33547696,-0.9809020007,40.55610163,1.0
10.657048,16.31244294,-16.69253535,4.249571857,23.72330905,1.0
10.667089,11.26586899,-10.36863597,6.967641574,16.82190373,1.0
10.677129,10.07594072,-10.19503681,11.13041122,18.14798642,1.0
10.687169,8.286854117,-13.32597404,11.83324654,19.65398838,1.0
10.69721,6.513537451,-18.17609558,5.934790571,20.19946435,1.0
10.70725,6.578288348,-18.74552551,0.3791429646,19.8698856,1.0
10.717291,6.280005505,-15.77360097,-1.781361265,17.07097551,1.0
10.727331,5.474575523,-12.1260295,-2.291950515,13.50054094,1.0
10.737371,2.812093822,-8.716337954,-1.985066272,9.371387682,1.0
10.747411,1.035417931,-5.556937648,-1.073214333,5.753558492,1.0
10.757452,0.7953748181,-2.317557957,-0.2194192524,2.460048941,1.0
10.767492,0.7369889081,0.6820116323,0.06430519268,1.006194651,1.0
10.777533,0.6217704007,3.12600101,0.4526831766,3.219223944,1.0
10.787573,0.3288218267,5.108327569,0.6533058965,5.16042081,1.0
10.797613,-0.4056312901,6.911679627,0.1410091503,6.925007985,1.0
10.807654,-1.192591819,8.629648889,-0.3159040483,8.71739127,1.0
10.817694,-1.477531023,9.883181412,-0.4951480687,10.00527583,1.0
10.827734,-1.796376769,10.52666516,-0.07958586752,10.67913773,1.0
10.837775,-2.264905827,11.42651656,0.3733575833,11.6548048,1.0
10.847815,-3.249584836,12.48884806,0.1644622592,12.90574195,1.0
10.857855,-4.119198536,13.48321736,-0.3588078835,14.10296742,1.0
10.867896,-5.272781678,14.08710844,-1.445831659,15.11089938,1.0
10.877936,-7.313205003,14.03095412,-3.809356332,16.27457639,1.0
10.887976,-8.840760856,13.10968553,-5.196429906,16.64409178,1.0
10.898017,-9.679743916,12.33437982,-5.318781724,16.55668466,1.0
10.908057,-10.06035088,11.50037391,-4.956874158,16.06361918,1.0
10.918097,-9.731509901,10.64796448,-3.921325834,14.94851928,1.0
10.928138,-8.48332641,9.972739706,-2.842822695,13.39791048,1.0
10.938178,-6.376826041,9.243430531,-1.984304087,11.40361263,1.0
10.948218,-4.544707728,8.863336371,-1.347425504,10.05130118,1.0
10.958259,-3.052335741,8.890684968,-0.7577417728,9.430546393,1.0
10.968299,-1.69931562,8.972690998,-0.315351998,9.137631214,1.0
10.978339,-0.8936184199,8.660208192,-0.01394560933,8.706202059,1.0
10.98838,-1.123089913,8.09293004,0.1408641211,8.171700575,1.0
10.99842,-1.519464184,7.751453816,0.6922816819,7.929253533,1.0
11.00846,-1.709050065,7.125447984,0.6979932421,7.360710269,1.0
11.018501,-1.650675995,7.011096911,0.2188981193,7.206117369,1.0
11.028541,-1.126858736,6.618563384,-0.8798428184,6.771212245,1.0
11.038581,-0.1067765898,4.517489231,-2.883515223,5.360389,1.0
11.048622,1.289733074,-0.1788160408,-5.52634677,5.677666352,1.0
11.058662,3.276523544,-11.09234468,-8.120846987,14.13236968,1.0
11.068702,6.457560301,-34.37891493,-11.42026589,36.79717856,1.0
11.078743,12.88895782,-57.84113437,-12.928837,60.65374584,1.0
11.088783,16.02182931,-40.56155494,-3.758979646,43.77292178,1.0
11.098823,12.2096096,-17.96408022,1.110464459,21.74892816,1.0
11.108864,9.950238451,-13.07509107,1.905859158,16.54078447,1.0
11.118904,9.026232197,-14.62249237,2.173141086,17.32087449,1.0
11.128944,7.413727995,-17.72993549,1.684956905,19.29126888,1.0
11.138985,5.465712898,-17.4106284,1.917725205,18.34888739,1.0
11.149025,3.98808408,-14.97043912,2.50850697,15.69431328,1.0
11.159066,2.411188252,-12.37906074,2.234910049,12.80819255,1.0
11.169106,1.52979139,-9.486929056,1.903585468,9.796209586,1.0
11.179146,1.023243297,-7.067040147,1.782627918,7.359880813,1.0
11.189187,0.8878384472,-4.554159459,2.591033403,5.314327764,1.0
11.199227,1.231000132,-1.78349316,3.646369289,4.24172349,1.0
11.209267,1.074571472,1.076398727,4.062502763,4.337887362,1.0
11.219308,0.6155800997,3.863677551,3.962570339,5.568564157,1.0
11.229348,0.07410717264,6.552279932,3.433600806,7.397802287,1.0
11.239388,-0.2326669966,8.781572415,2.758152673,9.207472736,1.0
11.249429,-0.006747102141,10.62055039,2.14234614,10.83447198,1.0
11.259469,0.2629133275,12.40891428,1.556620023,12.50893053,1.0
11.269509,0.28931336,13.97927526,1.110341814,14.02628596,1.0
11.27955,-0.1371832806,15.45448918,0.7577137792,15.47366101,1.0
11.28959,-0.8656171274,16.73240167,0.4224835503,16.76010295,1.0
11.29963,-1.135552815,17.54825197,0.07010928512,17.58509434,1.0
11.309671,-1.238130665,17.92909516,-0.7142274517,17.98598181,1.0
11.319711,-2.398777244,17.33338551,-2.003330927,17.61288506,1.0
11.329751,-4.175361627,15.53200455,-3.943187989,16.55975668,1.0
11.339792,-5.377437483,12.70504886,-5.497148114,14.85105174,1.0
11.349832,-6.596322915,9.905220737,-5.159658521,12.9710042,1.0
11.359872,-8.441086124,7.729896886,-6.583570138,13.20403865,1.0
11.369913,-9.505731947,6.48065388,-7.655110413,13.81877455,1.0
11.379953,-9.878981942,6.089254128,-6.710390398,13.40532131,1.0
11.389993,-8.979312385,6.722232179,-4.535237285,12.09896002,1.0
11.400034,-7.877726777,7.34374501,-2.177421833,10.9877357,1.0
11.410074,-6.967469666,7.396233126,-0.8939205748,10.20044077,1.0
11.420114,-5.284551539,7.367220996,-0.3244281192,9.072358226,1.0
11.43015488,-4.10374376,7.606553965,0.135648423,8.644002346,1.0
11.44019488,-3.226186326,8.466119224,0.3784932293,9.067894466,1.0
11.45023487,-1.905184243,8.727376912,0.5141591209,8.947692125,1.0
11.46027587,-1.187884518,8.210710505,0.08059449395,8.296585569,1.0
11.47031588,-0.007379770875,7.876104174,-0.3728933144,7.884929984,1.0
11.48035587,0.8978523888,7.618872879,-0.9246997333,7.727123168,1.0
11.49039687,1.466709142,5.835144076,-2.045242599,6.354774534,1.0
11.50043688,2.377162427,1.142955828,-3.859385694,4.674623746,1.0
11.51047688,3.831280175,-11.99974952,-6.670923446,14.25390879,1.0
11.52051787,7.629547555,-53.20101324,-12.75816379,55.23883189,1.0
11.53055787,17.94290161,-87.82811674,-15.70182991,91.00699572,1.0
11.54059788,20.24783659,-46.23164206,-4.017710752,50.63083659,1.0
11.55063887,14.73782285,-17.179295,2.411237369,22.7628132,1.0
11.56067887,12.59747412,-8.409336328,2.369971375,15.33069,1.0
11.57071888,8.394122458,-7.397268668,4.249274526,11.96817486,1.0
11.58075988,5.656106426,-11.26076905,8.193387544,15.03090346,1.0
11.59079987,2.415808576,-11.55293804,8.891961415,14.77746549,1.0
11.60084087,0.9719351493,-9.811319132,6.79561649,11.97443295,1.0
11.61088088,0.6730823493,-7.425926456,4.575591259,8.748340354,1.0
11.62092087,0.1668861128,-4.687294713,3.335271689,5.755225446,1.0
11.63096187,-0.1262329075,-2.18071323,2.725849146,3.493092971,1.0
11.64100188,-0.4603284842,0.4612441581,2.485341471,2.569352198,1.0
11.65104188,-0.8130471504,2.943680148,2.368086233,3.864470324,1.0
11.66108287,-0.5621747017,5.178661972,2.241100935,5.670724258,1.0
11.67112287,-0.4898459597,7.181570145,2.190871013,7.524281667,1.0
11.68116288,-0.5559545799,8.648233679,1.85810714,8.863046508,1.0
11.69120388,-0.8477601694,9.97613343,1.155326782,10.07852745,1.0
11.70124387,-1.238967986,11.53470058,0.6087852331,11.61701246,1.0
11.71128388,-1.403098745,13.00295163,0.2899166465,13.08164702,1.0
11.72132488,-1.766832688,14.42643874,0.3027384027,14.53738226,1.0
11.73136487,-1.871797811,15.92964795,0.1196807734,16.03968935,1.0
11.74140487,-1.091377685,17.39497072,-0.5374696674,17.43745926,1.0
11.75144588,-1.179041774,18.2161572,-1.663808257,18.32994218,1.0
11.76148588,-2.162089118,18.42170437,-2.876016753,18.76979738,1.0
11.77152587,-3.026132028,18.30873733,-3.619169796,18.90676407,1.0
11.78156687,-4.33232633,16.6380814,-4.644055138,17.80904411,1.0
11.79160688,-6.306222666,13.49823886,-6.353715506,16.19693173,1.0
11.80164687,-7.022034713,10.2909674,-7.376125136,14.47826659,1.0
11.81168787,-6.25203418,8.138306188,-6.593677635,12.19821888,1.0
11.82172788,-5.417507867,7.72509983,-5.283834085,10.81413249,1.0
11.83176788,-4.223338616,7.854140863,-3.238877415,9.487594251,1.0
11.84180887,-2.34273139,7.645278904,-1.752695875,8.186001632,1.0
11.85184887,-1.281287794,7.28914488,-0.5448827674,7.420931796,1.0
11.86188888,-0.9437093237,7.086518392,0.7718155092,7.190620932,1.0
11.87192987,-0.4304160292,6.672884603,1.746533495,6.911079954,1.0
11.88196987,-0.7359422565,5.231377544,1.822122205,5.588295925,1.0
11.89200988,-0.8399665618,2.14224206,0.8360196912,2.44819807,1.0
11.90205088,-0.5122292474,-3.491110511,-1.409306442,3.799523134,1.0
11.91209087,1.589026754,-18.07343017,-6.033419065,19.12004262,1.0
11.92213087,7.751006504,-55.70396301,-15.5548543,58.35206157,1.0
11.93217188,15.05182769,-68.09366568,-15.62152074,71.46563323,1.0
11.94221187,8.85461174,-28.05194693,-2.685805074,29.53860904,1.0
11.95225187,5.482173979,-9.739542806,3.112226139,11.60167562,1.0
11.96229288,7.717138846,-6.683359889,6.702871463,12.21269902,1.0
11.97233288,6.136754569,-12.01552531,5.772315159,14.67488423,1.0
11.98237287,6.000813237,-16.20235391,2.542314402,17.46394555,1.0
11.99241387,7.1259602,-16.46799759,1.324836541,17.99248302,1.0
12.00245388,4.888845897,-14.29250359,2.041392792,15.24282643,1.0
12.01249387,2.279465394,-11.15882869,3.006217289,11.77933625,1.0
12.02253487,-0.1129875022,-8.385522957,3.57223712,9.11540671,1.0
12.03257488,-1.776451358,-5.689353694,4.525679426,7.483735641,1.0
12.04261488,-2.008620903,-2.899802057,5.602937694,6.620900294,1.0
12.05265587,-1.772984544,0.03481198311,6.171657768,6.421374127,1.0
12.06269587,-1.648703145,3.431429735,5.918730608,7.037350645,1.0
12.07273588,-1.209787749,6.807980427,5.022681062,8.546315519,1.0
12.08277688,-1.91594999,9.001147057,3.861864914,9.980256175,1.0
12.09281687,-2.135279341,10.61094458,2.933136449,11.21404709,1.0
12.10285787,-2.058820126,12.20648367,1.873187109,12.51981685,1.0
12.11289788,-2.339459288,13.50863755,0.4054131889,13.71571063,1.0
12.12293787,-2.669866734,14.16400517,-1.086674623,14.45434511,1.0
12.13297887,-3.169334433,14.30960084,-1.933344433,14.78334122,1.0
12.14301888,-4.056559069,14.56764666,-2.405793611,15.31208162,1.0
12.15305888,-5.514655262,14.38803072,-3.019398667,15.70170752,1.0
12.16309987,-7.249609516,13.22474354,-4.020322704,15.60812847,1.0
12.17313987,-7.493150725,12.00270821,-3.630812772,14.60804961,1.0
12.18317988,-7.668912181,10.71440873,-5.248348503,14.18294505,1.0
12.19322087,-7.081545335,9.68632905,-6.645947649,13.71648187,1.0
12.20326087,-5.616062939,9.300098822,-7.020005144,12.93493229,1.0
12.21330088,-3.822889421,9.092757139,-6.986228703,12.08718774,1.0
12.22334188,-1.697019565,8.563792868,-6.471985967,10.86761363,1.0
12.23338187,0.2520278585,8.021220957,-5.822969003,9.915163725,1.0
12.24342187,2.214633367,7.639593072,-5.447726278,9.640835278,1.0
12.25346288,4.023338698,7.309438226,-4.975960055,9.71469608,1.0
12.26350287,4.989533197,7.206735976,-4.363218632,9.791330951,1.0
12.27354287,5.373749644,7.487140372,-3.336375058,9.80131903,1.0
12.28358388,5.722166514,7.593586594,-2.634445471,9.866410184,1.0
12.29362388,5.906478937,8.402721373,-1.526020374,10.38368711,1.0
12.30366387,5.720721082,9.292834826,-0.1170039546,10.91316264,1.0
12.31370487,4.31773168,8.52705949,0.9187460983,9.601960467,1.0
12.32374488,2.716475474,4.929785178,1.133172852,5.741611413,1.0
12.33378487,2.103794132,-2.651243352,0.04506807245,3.384829714,1.0
12.34382587,1.525714419,-16.17712434,-1.069725884,16.2840864,1.0
12.35386588,2.45938802,-40.02093541,-3.643498014,40.26163109,1.0
12.36390588,6.993868675,-52.39696963,-5.17044371,53.11393521,1.0
12.37394687,9.104642774,-25.03431119,0.6850140314,26.64733573,1.0
12.38398687,6.992953001,-11.91194305,2.379193457,14.0162884,1.0
12.39402688,3.426297049,-12.89068626,1.040129764,13.3787583,1.0
12.40406788,0.516165593,-18.19228535,-1.514993841,18.26255403,1.0
12.41410787,-1.481679038,-22.16837329,-2.797683359,22.39328424,1.0
12.424148,-1.925191661,-22.54814527,-3.274664129,22.86588382,1.0
12.434189,-1.104511116,-20.3524503,-3.416696506,20.66678478,1.0
12.444229,0.3408181205,-16.44745281,-2.748707081,16.67903629,1.0
12.454269,1.57698339,-12.38733104,-1.873975314,12.62713864,1.0
12.46431,2.560229686,-8.595167273,-1.15789371,9.042808985,1.0
12.47435,3.469340742,-4.664825032,-0.3467738751,5.82384494,1.0
12.48439,4.049112639,-1.206371221,0.8059239992,4.301181022,1.0
12.494431,3.461342628,1.176747472,2.365951999,4.35469359,1.0
12.504471,2.21757934,3.216770262,3.926380752,5.539109573,1.0
12.514511,1.486116051,5.764432527,4.945146983,7.738972927,1.0
12.524552,1.246494815,7.575709902,4.883502127,9.099105608,1.0
12.534592,1.657233648,9.008269551,4.493741934,10.20240463,1.0
12.544633,2.056227325,10.55178362,3.631720845,11.34714082,1.0
12.554673,1.629199026,11.62488452,2.548816506,12.01202294,1.0
12.564713,0.1892319784,12.6664432,2.003271285,12.82527535,1.0
12.574754,-0.7885790379,14.17915414,1.822793466,14.3175712,1.0
12.584794,-1.26933667,15.64124808,1.748090608,15.7897333,1.0
12.594834,-1.319567907,16.65569321,1.520356176,16.77691446,1.0
12.604875,-1.36042328,16.96890283,1.038041577,17.05496834,1.0
12.614915,-1.825384806,16.25227276,0.4310544356,16.36014081,1.0
12.624955,-2.556785091,14.31679292,-0.5092457056,14.55221772,1.0
12.634996,-3.975301482,11.94530492,-2.113508842,12.76558856,1.0
12.645036,-6.441316736,8.672734682,-4.47431573,11.693006,1.0
12.655076,-7.672254449,6.372097397,-4.95457094,11.13619714,1.0
12.665117,-8.82882318,5.7520376,-5.356860546,11.82074491,1.0
12.675157,-8.543944495,6.764047957,-4.263082725,11.70150446,1.0
12.685197,-7.464192975,8.416305624,-2.245291634,11.47125589,1.0
12.695238,-6.855865615,9.149212591,-1.146371187,11.49021981,1.0
12.705278,-6.189770688,9.540074399,-0.6437818786,11.39037909,1.0
12.715318,-4.698437167,9.710926532,0.03982713997,10.78790953,1.0
12.725359,-3.6649418,9.667312151,0.5559901017,10.35363934,1.0
12.735399,-3.164189175,9.741816203,0.8139470369,10.27509542,1.0
12.745439,-2.936568764,9.610728645,0.5060209296,10.06208718,1.0
12.75548,-2.796225064,9.395569235,-0.4317871282,9.812341004,1.0
12.76552,-2.245142384,9.307882635,-1.857955697,9.753427236,1.0
12.77556,-1.244454283,8.526206381,-3.798734865,9.416753596,1.0
12.785601,-0.5485540514,5.776027556,-5.609397113,8.070238029,1.0
12.795641,0.6062735251,1.11158727,-7.010912724,7.124330921,1.0
12.805681,2.3793009,-8.965670246,-8.775269701,12.76909057,1.0
12.815722,4.025059241,-36.59094935,-12.12899988,38.7583709,1.0
12.825762,11.65470181,-76.30694077,-15.56050855,78.74459163,1.0
12.835802,20.70915852,-57.38642681,-7.23338817,61.43608983,1.0
12.845843,15.30683646,-17.88714256,1.21500003,23.57382736,1.0
12.855883,8.025185369,-7.895113472,0.3143076488,11.26211376,1.0
12.865923,4.72563666,-8.834125435,-0.3674016094,10.02538767,1.0
12.875964,7.378717207,-12.12116227,4.77276668,14.97155116,1.0
12.886004,7.098526819,-13.81702321,10.05071817,18.50178773,1.0
12.896044,3.271117793,-12.26187084,13.04901599,18.20248627,1.0
12.906085,-0.8560012351,-7.980265889,12.50710423,14.8608559,1.0
12.916125,-2.81427805,-4.055716485,8.42971329,9.768780031,1.0
12.926165,-3.734672771,-1.981158285,4.299171156,6.029563954,1.0
12.936206,-4.993190045,-0.8618714011,1.751023425,5.361049541,1.0
12.946246,-5.376254007,0.3702778548,0.06731541239,5.389410376,1.0
12.956286,-4.258147675,1.831807534,-0.8998794723,4.721983008,1.0
12.966327,-1.997689387,3.337511172,-1.27644016,4.093781039,1.0
12.976367,-0.7965964477,4.975474736,-2.298688992,5.538401018,1.0
12.986407,0.1577960314,7.01021866,-3.499580203,7.836780387,1.0
12.996448,1.499539504,9.451189705,-4.275448417,10.48108128,1.0
13.006488,1.682160767,11.46115664,-4.237941452,12.33482566,1.0
13.016528,1.502746263,12.97861201,-3.338373052,13.48507882,1.0
13.026569,1.259961391,14.16261822,-2.152687526,14.38058834,1.0
13.036609,1.112298877,14.87837822,-0.855241828,14.94438978,1.0
13.046649,0.6071570393,15.24896306,0.5735673801,15.27182024,1.0
13.05669,0.09925633952,15.74198625,1.321568971,15.79767474,1.0
13.06673,-0.1576010267,15.94613476,1.806394365,16.04889755,1.0
13.07677,-0.5411184396,15.46225428,2.202267237,15.62767089,1.0
13.086811,-1.159298211,14.15991914,2.263732583,14.38651339,1.0
13.096851,-1.459798903,12.98492583,1.98299665,13.2163379,1.0
13.106891,-2.026938183,12.27417806,1.153166821,12.4937472,1.0
13.116932,-2.649329558,11.76957153,-0.1998636782,12.06572446,1.0
13.126972,-3.674986147,10.66415074,-2.061130069,11.46638092,1.0
13.137013,-4.659068741,9.175215159,-3.136888525,10.75786059,1.0
13.147053,-4.83364175,8.139956272,-3.586464565,10.12352255,1.0
13.157093,-4.858737122,6.823509462,-3.811182418,9.202864729,1.0
13.167134,-4.205789952,5.328967574,-3.25981571,7.530800952,1.0
13.177174,-3.946640185,3.319805803,-2.500116216,5.73128785,1.0
13.187214,-3.534679284,-0.1446472514,-2.50285973,4.333495967,1.0
13.197255,-3.297449267,-6.324685249,-4.450880674,8.407446339,1.0
13.207295,-3.49956383,-19.87762832,-9.142467828,22.15743155,1.0
13.217335,-0.7231155118,-43.75446681,-14.86700422,46.21692413,1.0
13.227376,13.83679265,-51.28929648,-13.11384057,54.71765327,1.0
13.237416,19.91626438,-33.12207697,-0.7169445066,38.65544696,1.0
13.247456,14.0477368,-22.16346864,4.924915032,26.69855875,1.0
13.257497,10.54498448,-16.17696647,11.50008974,22.47538666,1.0
13.267537,8.877694793,-14.56681635,19.15813077,25.65228213,1.0
13.277577,5.623307054,-14.81628547,16.51948817,22.8918629,1.0
13.287618,2.236803085,-14.82052236,7.938693355,16.96095585,1.0
13.297658,2.037908729,-13.71799594,1.881382859,13.9955738,1.0
13.307698,2.223758093,-11.34737567,-1.492978928,11.65920326,1.0
13.317739,2.487924187,-8.155392337,-3.211958588,9.111359333,1.0
13.327779,2.143937021,-5.192215818,-3.425100124,6.579276701,1.0
13.337819,1.785284016,-2.697176154,-2.93006783,4.364320762,1.0
13.34786,1.29511339,-0.3385105169,-2.667512645,2.984548839,1.0
13.3579,0.2770016089,1.96726764,-2.209221915,2.971116512,1.0
13.36794,-0.3791493966,4.168397593,-0.8898186799,4.279143611,1.0
13.377981,-1.167400698,6.16344243,0.4131455835,6.286615644,1.0
13.388021,-1.837811016,7.921662755,0.6705996215,8.159656487,1.0
13.398061,-1.299484037,9.523534965,0.5527244318,9.627662296,1.0
13.408102,-1.322673071,11.0232914,0.3296970087,11.10725517,1.0
13.418142,-1.597200138,12.44015946,0.008484876361,12.54227602,1.0
13.42818175,-1.927003713,13.20090327,-0.0585569777,13.34093772,1.0
13.43822275,-2.281707947,13.51039873,0.1308185863,13.70234208,1.0
13.44826275,-2.893193242,14.15600384,0.3268569795,14.45233017,1.0
13.45830275,-3.644848428,14.84091862,0.2824607887,15.2845533,1.0
13.46834375,-4.596994992,15.27629528,-0.223762418,15.95454888,1.0
13.47838375,-5.868453909,14.98470516,-1.279069653,16.14361048,1.0
13.48842375,-7.611359206,13.24851013,-2.879186529,15.54816789,1.0
13.49846475,-8.881237037,10.76941114,-4.464440952,14.65564126,1.0
13.50850475,-9.136666805,8.51170938,-5.303293034,13.56660583,1.0
13.51854475,-8.823950111,7.139840321,-5.307587814,12.53035928,1.0
13.52858575,-7.11717242,6.985486107,-4.499290357,10.94051064,1.0
13.53862575,-4.785754515,7.383083907,-3.517090859,9.47540513,1.0
13.54866575,-3.115665472,7.717626504,-3.012936909,8.851379497,1.0
13.55870675,-1.004959346,8.248181217,-2.808804179,8.771078474,1.0
13.56874675,0.7343953755,8.840348627,-2.444919085,9.201561267,1.0
13.57878675,1.796640186,9.450405008,-1.680904346,9.76542422,1.0
13.58882775,2.546134388,10.01915958,-0.9200185255,10.3784774,1.0
13.59886775,2.863962134,10.29411203,-0.5974942962,10.70177654,1.0
13.60890775,2.756647015,10.12812011,-0.8803550345,10.53342037,1.0
13.61894875,2.57754563,8.554063686,-2.177165725,9.195422645,1.0
13.62898875,2.952048683,4.318419605,-4.346718374,6.801271935,1.0
13.63902975,3.932567691,-4.740269902,-6.940038038,9.278974909,1.0
13.64906975,5.222350028,-28.02932288,-9.797171209,30.1479758,1.0
13.65910975,9.34181812,-64.14413346,-14.55602824,66.43506139,1.0
13.66915075,14.22387131,-52.8602609,-8.520050433,55.39961152,1.0
13.67919075,10.96200439,-20.19125192,-0.1679506715,22.97564802,1.0
13.68923075,10.07360535,-10.51387613,3.178461059,14.90374888,1.0
13.69927175,9.100737419,-11.65714244,5.005501943,15.61305355,1.0
13.70931175,5.402360655,-17.72615468,4.869820812,19.1603031,1.0
13.71935175,2.092956756,-18.47888312,5.832824485,19.49029068,1.0
13.72939275,0.2026497303,-15.90310861,6.650468717,17.23887075,1.0
13.73943275,-0.4199382573,-12.84673274,6.234980775,14.28600278,1.0
13.74947275,-0.8133139296,-9.798677452,5.130890805,11.09060863,1.0
13.75951375,-1.3121589,-6.440363055,4.364488063,7.889790448,1.0
13.76955375,-0.8204890479,-3.365864906,4.004858572,5.295388657,1.0
13.77959375,-0.4729546693,-0.8274084967,3.760102311,3.879002492,1.0
13.78963475,-0.6574189742,1.943997476,3.071154127,3.693685634,1.0
13.79967475,-1.06832533,4.51456153,1.834027137,4.988611065,1.0
13.80971475,-1.722577598,6.730807121,0.7522524798,6.988341854,1.0
13.81975575,-1.200572537,8.677172719,-0.01388362885,8.759845522,1.0
13.82979575,0.06689141616,10.48920321,-0.9570395136,10.53298548,1.0
13.83983575,0.3830169643,11.95002947,-2.448112249,12.20422714,1.0
13.84987675,0.3415570624,12.95352161,-2.793100312,13.25563249,1.0
13.85991675,0.1443230233,13.512899,-1.995368773,13.66018906,1.0
13.86995675,-0.3491283296,14.0942514,-1.290602701,14.15752339,1.0
13.87999775,-0.8619545777,14.78632434,-0.8993538076,14.83870582,1.0
13.89003775,-1.447440374,15.20506918,-1.322813258,15.33098324,1.0
13.90007775,-1.68754576,15.14690108,-1.323141872,15.2979452,1.0
13.91011875,-2.109979316,13.98163052,-1.849640957,14.2604059,1.0
13.92015875,-2.742479212,12.07457283,-3.180264925,12.78399727,1.0
13.93019875,-3.696127925,10.23626904,-4.388030707,11.73445265,1.0
13.94023975,-4.786722814,8.49037289,-5.091610379,10.9965287,1.0
13.95027975,-5.496894929,7.435404793,-4.827543104,10.43102443,1.0
13.96031975,-5.490198698,7.270817952,-3.735946294,9.847048804,1.0
13.97036075,-4.81503474,7.610933529,-2.339013146,9.304936928,1.0
13.98040075,-3.843702877,7.923619233,-1.258861091,8.896208451,1.0
13.99044075,-3.10275979,8.13562524,-0.5122195995,8.72226377,1.0
14.00048175,-2.237206835,8.41252423,0.12716404,8.705850276,1.0
14.01052175,-1.500284878,8.809254888,0.7575792933,8.968152139,1.0
14.02056175,-0.5976646695,9.408755291,1.301603653,9.517145121,1.0
14.03060275,0.538142353,9.931202255,1.40570748,10.0446199,1.0
14.04064275,1.529923829,9.801732622,0.9138636732,9.962418187,1.0
14.05068275,1.843669488,7.895084236,-0.5860313416,8.128647182,1.0
14.06072375,2.243466426,4.365486183,-2.60398674,5.556199974,1.0
14.07076375,2.6538401,-1.137845947,-5.271281283,6.010321708,1.0
14.08080375,3.003620248,-13.46402446,-9.376621917,16.68000983,1.0
14.09084475,3.315457814,-42.84082767,-15.8291273,45.791812,1.0
14.10088475,9.348061777,-66.64580621,-15.99905207,69.17383473,1.0
14.11092475,13.76319257,-40.40077054,-4.160023795,42.88302144,1.0
14.12096575,9.000195715,-19.09851958,2.641434063,21.27755031,1.0
14.13100575,9.432525392,-13.53767248,5.600421052,17.42428844,1.0
14.14104575,7.361351561,-15.71584451,6.109166236,18.39834715,1.0
14.15108675,1.198679793,-18.82529089,6.370058473,19.90994865,1.0
14.16112675,-0.4180613011,-18.04906599,5.256380239,18.80353934,1.0
14.17116675,-0.5565986507,-15.57050144,4.604352836,16.24654986,1.0
14.18120775,0.6322664452,-13.08657149,4.091202067,13.72574401,1.0
14.19124775,1.044732546,-9.83593591,3.425792434,10.46771967,1.0
14.20128775,0.2852226479,-6.957491977,2.288996794,7.32990811,1.0
14.21132875,-1.190188905,-4.345622606,1.690300237,4.812286396,1.0
14.22136875,-2.341278942,-1.463401957,1.919083074,3.362441407,1.0
14.23140875,-2.982272941,1.650980051,2.342293872,4.135943375,1.0
14.24144975,-2.984960614,4.778590214,2.090571531,6.009609274,1.0
14.25148975,-3.129257909,7.088671337,1.54675577,7.90151693,1.0
14.26153075,-3.275767499,8.690083956,0.8676893806,9.327437843,1.0
14.27157075,-2.397578273,10.38683016,-0.2209744656,10.66224423,1.0
14.28161075,-1.408923595,12.29373583,-1.518496762,12.46703007,1.0
14.29165175,-0.8582379413,14.00881072,-2.85492877,14.32249868,1.0
14.30169175,-0.595701613,15.24252878,-3.695432106,15.69540578,1.0
14.31173175,-0.547307425,15.82531609,-2.985466105,16.11375755,1.0
14.32177275,-0.5370264119,16.27655975,-1.849273751,16.39007651,1.0
14.33181275,-0.8074482952,16.63582438,-1.311056846,16.70692956,1.0
14.34185275,-1.025829813,16.8927674,-0.8053364271,16.94303645,1.0
14.35189375,-1.340098651,16.89924144,-0.2592041463,16.95427416,1.0
14.36193375,-2.16243498,15.4205648,-1.409315212,15.63509236,1.0
14.37197375,-2.525773506,12.78176549,-2.872755761,13.34188093,1.0
14.38201475,-3.496498135,9.967998784,-4.412248705,11.44790101,1.0
14.39205475,-4.884158769,7.601033024,-5.521902886,10.58877337,1.0
14.40209475,-5.813600594,6.211721136,-4.95798279,9.84708204,1.0
14.41213575,-5.929253258,6.06213825,-3.8084161,9.295676282,1.0
14.42217575,-5.032412583,6.530950459,-1.927642229,8.467248365,1.0
14.43221529,-4.398623815,7.103418015,-0.4708832932,8.368283578,1.0
14.44225629,-3.332889533,7.772909589,0.1413967842,8.458502773,1.0
14.45229629,-2.173829303,8.702978235,0.4835015845,8.9833812,1.0
14.46233629,-1.10167317,9.650434163,0.7209938496,9.739835493,1.0
14.47237729,-0.1698812029,10.55831029,0.8504681611,10.59386954,1.0
14.48241729,0.4204963741,11.19524983,0.7628909039,11.22908894,1.0
14.49245729,1.46889717,10.86255846,0.07161436299,10.96165881,1.0
14.50249829,1.43609546,9.11412345,-0.9828888845,9.278776158,1.0
14.51253829,1.525510205,6.431620299,-2.085955592,6.931387436,1.0
14.52257829,2.792803273,1.240126612,-4.328653402,5.298575696,1.0
14.53261929,4.265859276,-14.06438382,-9.209961653,17.34438933,1.0
14.54265929,7.736218311,-62.48267286,-18.35169683,65.57986168,1.0
14.55269929,12.38893434,-95.11313933,-20.55345418,98.0940337,1.0
14.56274029,10.96969582,-48.67597934,-2.827479601,49.97679294,1.0
14.57278029,9.210823533,-17.41058513,5.423000157,20.42979871,1.0
14.58282029,12.3813201,-9.235977085,8.381465575,17.57410952,1.0
14.59286129,7.504555135,-10.44162793,16.48262966,20.9050956,1.0
14.60290129,1.806044117,-12.86665303,19.52210942,23.45048639,1.0
14.61294129,-1.010453098,-12.34909259,14.56370096,19.12125751,1.0
14.62298229,-2.305609903,-10.21041148,9.657439712,14.2419971,1.0
14.63302229,-2.839284545,-7.916146492,6.18185999,10.43754305,1.0
14.64306229,-2.93162202,-5.631606007,2.863924127,6.965016532,1.0
14.65310329,-2.886989346,-3.599119109,0.7475640361,4.674100751,1.0
14.66314329,-2.829023558,-1.249176933,-0.7925058087,3.192472828,1.0
14.67318329,-1.966929817,1.288277264,-2.016999378,3.097863409,1.0
14.68322429,-1.703544911,3.222508135,-1.855648971,4.090239241,1.0
14.69326429,-0.872195245,6.109790719,-2.722069505,6.74536356,1.0
14.70330429,0.2183749397,9.402395859,-4.057083564,10.24268825,1.0
14.71334529,2.040489982,11.44005871,-5.337408029,12.78774676,1.0
14.72338529,3.713975381,12.13507982,-4.725085852,13.54179499,1.0
14.73342529,3.802568884,13.16338987,-4.522686237,14.42875787,1.0
14.74346629,2.200544355,14.47846259,-3.984642994,15.17714249,1.0
14.75350629,1.397526349,15.89218484,-2.98546786,16.23045401,1.0
14.76354629,0.9041515942,17.2504486,-1.668678403,17.35453701,1.0
14.77358729,-0.136738746,18.19873834,-0.8343011945,18.21836527,1.0
14.78362729,-1.391757193,18.67461282,-0.657213006,18.73793161,1.0
14.79366729,-2.772261712,18.40993392,-1.069038252,18.64816197,1.0
14.80370829,-3.913588214,16.86988842,-2.012467201,17.43442951,1.0
14.81374829,-5.044823883,14.13824468,-3.326190963,15.37542705,1.0
14.82378829,-6.450315601,11.18241753,-4.691223457,13.73537807,1.0
14.83382929,-7.842042389,8.62634989,-5.503543798,12.89187867,1.0
14.84386929,-8.376404809,7.058331889,-4.766449056,11.94584627,1.0
14.85390929,-8.635288528,6.568505956,-4.278795363,11.66282848,1.0
14.86395029,-7.903636959,7.178628995,-3.073259125,11.11058563,1.0
14.87399029,-5.842893391,7.669043743,-2.322310574,9.916993572,1.0
14.88403029,-3.389271018,7.334204693,-2.277853024,8.394422607,1.0
14.89407129,-1.691623608,6.683881461,-1.917294996,7.156247754,1.0
14.90411129,-0.5795494106,6.442708958,-1.498926131,6.640117152,1.0
14.91415129,-0.3461034188,4.794230931,-1.531409168,5.044764795,1.0
14.92419229,-0.3548064145,0.0839560765,-2.630606189,2.655753214,1.0
14.93423229,0.599433306,-11.33157415,-4.883944176,12.35381738,1.0
14.94427329,6.682858198,-40.18701505,-10.17103984,41.9893656,1.0
14.95431329,21.02137645,-66.59529562,-15.32964294,71.49706021,1.0
14.96435329,19.7862457,-41.55703171,-3.853289387,46.18798807,1.0
14.97439429,10.80864947,-15.51171471,3.625339193,19.25053975,1.0
14.98443429,9.032309793,-6.656780201,5.018726006,12.2915806,1.0
14.99447429,7.66972202,-8.398321928,7.078362111,13.39625534,1.0
15.00451529,7.449594816,-16.19446952,7.228366581,19.23555534,1.0
15.01455529,5.297921782,-18.03393808,5.24098335,19.5130419,1.0
15.02459529,2.944014316,-16.09903594,3.636689808,16.76519285,1.0
15.03463629,1.014849181,-13.34703688,2.597986912,13.63535289,1.0
15.04467629,-0.2016614047,-10.21602598,2.021573216,10.41607471,1.0
15.05471629,-0.6024433064,-7.376398201,1.66150767,7.585169484,1.0
15.06475729,-0.3174063076,-4.816145711,1.745872175,5.132648042,1.0
15.07479729,-0.2036949201,-2.193033314,1.811438173,2.851700368,1.0
15.08483729,-0.8929302026,0.3226218778,1.592022429,1.853630124,1.0
15.09487829,-1.960797842,3.033921397,1.032822937,3.75714392,1.0
15.10491829,-2.136268544,5.708316214,0.2068885048,6.098468672,1.0
15.11495829,-1.118579225,8.058603961,-0.6301181781,8.160230769,1.0
15.12499929,-0.3594311236,10.38941463,-1.95304955,10.57750111,1.0
15.13503929,-0.3887595879,12.12434667,-2.923944626,12.47799536,1.0
15.14507929,-0.6527780391,13.37704713,-3.445961235,13.82917778,1.0
15.15512029,-0.9260710515,14.23465825,-3.205421401,14.62045928,1.0
15.16516029,-1.440453244,14.97352061,-2.667966388,15.27741043,1.0
15.17520029,-2.495246947,15.60396857,-2.486852977,15.99670373,1.0
15.18524129,-3.79686668,15.92307802,-3.536218271,16.74710273,1.0
15.19528129,-5.148271068,15.55007361,-4.439460477,16.97110172,1.0
15.20532129,-6.196074572,14.40186523,-4.91257039,16.4298025,1.0
15.21536229,-6.804151086,12.33547325,-5.930538476,15.28501419,1.0
15.22540229,-6.744026506,10.18080469,-6.261438841,13.7235671,1.0
15.23544229,-6.726456792,8.836747327,-5.4924528,12.3895263,1.0
15.24548329,-6.260986851,8.543603602,-4.135374273,11.37077127,1.0
15.25552329,-4.406336001,8.53759208,-2.757118886,9.995397942,1.0
15.26556329,-2.831551602,8.29146757,-1.908648133,8.967109715,1.0
15.27560429,-1.652973659,8.142354215,-1.319397315,8.412553914,1.0
15.28564429,-0.3942469074,8.355992764,-0.65806955,8.391132297,1.0
15.29568429,0.2814541174,8.518596815,-0.1655083992,8.524851972,1.0
15.30572529,0.6535427088,8.937585484,0.4611517721,8.973305596,1.0
15.31576529,0.5640960968,9.565816766,0.960058431,9.630408454,1.0
15.32580529,-0.02591529831,9.791180736,1.10375434,9.853231219,1.0
15.33584629,-0.2983796141,9.872444755,1.248791016,9.955585108,1.0
15.34588629,0.1999315059,9.73203732,0.5992273378,9.752517439,1.0
15.35592629,0.9133514571,7.762650649,-0.9290980089,7.871224752,1.0
15.36596729,1.39401188,3.36307286,-3.211060456,4.854321522,1.0
15.37600729,1.910415893,-5.270008929,-6.225320005,8.377188798,1.0
15.38604729,2.986757755,-26.87974625,-10.35656848,28.96031752,1.0
15.39608829,5.941509606,-64.10871805,-14.94902194,66.09616118,1.0
15.40612829,13.22218947,-59.26890749,-8.365109743,61.29930464,1.0
15.41616829,12.20894184,-24.70307344,1.001290218,27.57358665,1.0
15.42621004,10.71006658,-12.48808324,2.902516919,16.7057581,1.0
15.43625004,10.41036638,-10.34168498,2.798456069,14.93845818,1.0
15.44629004,7.047794622,-16.06494668,1.84401155,17.6395663,1.0
15.45633104,5.170567671,-19.86407681,1.751254244,20.60056332,1.0
15.46637104,3.48242798,-18.64136438,2.751967489,19.1624919,1.0
15.47641204,1.940601559,-15.71383775,3.24271962,16.16186443,1.0
15.48645204,0.9898026323,-12.38717199,2.873502743,12.75455829,1.0
15.49649204,0.6598138475,-9.524464087,2.309864191,9.822741117,1.0
15.50653304,1.031001529,-6.47588606,2.55861527,7.03893291,1.0
15.51657304,1.589835863,-3.04403591,3.17768221,4.67882431,1.0
15.52661304,1.807068549,-0.2156862438,4.340655981,4.706730462,1.0
15.53665404,1.309807589,2.273434283,5.148047705,5.778104752,1.0
15.54669404,0.3098790407,4.598726937,4.540883356,6.470234626,1.0
15.55673404,-0.7858008796,6.740864916,3.472012335,7.623097304,1.0
15.56677504,-1.412593015,8.651698739,2.362024863,9.078902552,1.0
15.57681504,-1.417164807,10.46509047,1.27316455,10.63707773,1.0
15.58685504,-0.9953124636,12.31059803,-0.2157938325,12.35265306,1.0
15.59689604,-0.599081596,14.07557539,-1.947604038,14.22230231,1.0
15.60693604,-0.6315644869,15.40905397,-3.343273019,15.78021839,1.0
15.61697604,-1.064343084,15.98227056,-3.505395259,16.3967556,1.0
15.62701704,-1.726670503,16.16873242,-3.207909392,16.57407559,1.0
15.63705704,-2.208981741,16.09790275,-3.412350855,16.60319884,1.0
15.64709704,-2.842741711,15.17325565,-4.370607759,16.04403564,1.0
15.65713804,-3.554657466,13.54219823,-4.948623737,14.84976766,1.0
15.66717804,-4.329581355,11.58536202,-5.971245621,13.73396018,1.0
15.67721804,-5.621014946,9.612153026,-7.087068615,13.19908468,1.0
15.68725904,-6.209331379,8.271882321,-6.8755643,12.41987189,1.0
15.69729904,-6.456815366,7.73010797,-5.855162019,11.65023417,1.0
15.70733904,-6.228134855,7.88236011,-4.618895153,11.05691897,1.0
15.71738004,-5.389528356,8.417021908,-3.286477844,10.52113161,1.0
15.72742004,-4.235196477,8.687991822,-2.368602249,9.9512998,1.0
15.73746004,-3.263650898,8.789152746,-1.745432464,9.536621921,1.0
15.74750104,-2.275849914,9.064412177,-0.9928279817,9.398338595,1.0
15.75754104,-1.543100384,9.336624039,-0.02817656279,9.463324001,1.0
15.76758104,-1.446467397,9.768942606,0.9900137168,9.924950112,1.0
15.77762204,-1.702759046,10.42230405,1.466099278,10.66176614,1.0
15.78766204,-1.889611061,10.32783527,0.9719779801,10.54417149,1.0
15.79770204,-1.759652308,9.384695168,-0.04008851051,9.548323766,1.0
15.80774304,-0.6795781673,8.53659396,-1.644145825,8.720004496,1.0
15.81778304,1.074718968,5.929255012,-4.29616978,7.400551373,1.0
15.82782304,3.582883438,-0.2860750258,-6.677132605,7.583072759,1.0
15.83786404,7.51689159,-16.0234139,-9.722688206,20.1936653,1.0
15.84790404,15.70602821,-55.11403976,-15.67168517,59.41244329,1.0
15.85794404,22.0709844,-77.06715365,-15.39132755,81.62945234,1.0
15.86798504,16.63479176,-35.99759964,-3.850632412,39.84182283,1.0
15.87802504,11.52684075,-14.04819756,2.95310586,18.41034347,1.0
15.88806604,7.58345337,-9.945098748,6.709655403,14.19271749,1.0
15.89810604,4.664361933,-13.94799733,7.441720955,16.48278231,1.0
15.90814604,3.248994268,-19.93321897,6.094494402,21.09578262,1.0
15.91818704,3.401106659,-20.06696584,6.204849488,21.27794167,1.0
15.92822704,2.617177766,-16.13434845,7.567764705,18.01215928,1.0
15.93826704,0.704769288,-11.20787163,7.084688798,13.27802325,1.0
15.94830804,-1.030115091,-7.952514419,5.219528747,9.568025032,1.0
15.95834804,-2.080345043,-5.078072906,3.916063925,6.74167758,1.0
15.96838804,-2.445584644,-2.097393331,3.694378438,4.90187465,1.0
15.97842904,-2.032446406,0.6639390582,3.548105661,4.1425484,1.0
15.98846904,-2.219288481,3.105262105,2.025332684,4.320864102,1.0
15.99850904,-2.268273823,5.42512445,0.5437734409,5.905313793,1.0
16.00855004,-2.021032203,8.320215991,-1.55815901,8.702782589,1.0
16.01859004,-1.66778758,10.6661306,-3.588962495,11.37666512,1.0
16.02863004,-0.9597255783,12.22146424,-3.725762199,12.81275011,1.0
16.03867104,-1.325482366,13.49183967,-3.362334942,13.96753154,1.0
16.04871104,-1.943968239,14.81612175,-2.860035143,15.21434445,1.0
16.05875104,-2.299039094,15.94166749,-2.581355091,16.31213466,1.0
16.06879204,-2.810174181,16.81768448,-2.138729637,17.18446259,1.0
16.07883204,-3.605361304,17.23828639,-2.367524754,17.76970234,1.0
16.08887204,-4.585419551,16.69549404,-2.880667629,17.55174748,1.0
16.09891304,-5.542255874,14.93927113,-3.738251851,16.36682464,1.0
16.10895304,-6.008380119,12.80501636,-4.839834536,14.94968475,1.0
16.11899304,-6.569887653,10.84748083,-5.554863641,13.8451354,1.0
16.12903404,-6.967909961,9.242452877,-5.910011825,12.99626655,1.0
16.13907404,-6.356916856,8.257653707,-5.550891042,11.80727013,1.0
16.14911404,-4.836819711,8.038121749,-4.386450205,10.35602103,1.0
16.15915504,-3.800385827,8.214878985,-3.110686567,9.570973832,1.0
16.16919504,-2.477369085,8.711520433,-2.062598305,9.288824339,1.0
16.17923504,-0.3292670922,9.080487927,-1.788765594,9.260850941,1.0
16.18927604,0.5422794043,9.45894779,-1.50828343,9.59378336,1.0
16.19931604,1.333576374,9.973153689,-0.9650443518,10.10809235,1.0
16.20935604,2.207361039,9.937969823,-0.6791798258,10.20279237,1.0
16.21939704,2.353198198,9.022889929,-0.419806695,9.334148172,1.0
16.22943704,2.392507275,8.51450201,0.2335412649,8.847337286,1.0
16.23947704,2.845604215,8.414147417,0.8311384356,8.921105941,1.0
16.24951804,3.364005491,7.634453369,0.8102346396,8.381998053,1.0
16.25955804,3.515794239,4.926442325,-0.2843430805,6.059001081,1.0
16.26959804,3.873975374,-1.659188957,-2.740595824,5.027072574,1.0
16.27963904,4.291714202,-19.12069105,-5.541849493,20.36496337,1.0
16.28967904,6.103020228,-61.07657187,-11.79094311,62.50296654,1.0
16.29971904,8.302330527,-75.67440302,-13.54009791,77.32320619,1.0
16.30976004,4.853828969,-36.22601995,-1.913972754,36.59982881,1.0
16.31980004,2.526607611,-15.08638239,3.534867564,15.69961683,1.0
16.32984104,0.8883620654,-10.43368741,3.89301537,11.17168693,1.0
16.33988104,2.189871432,-11.16017121,3.539154743,11.91094348,1.0
16.34992104,4.043401079,-14.19329271,3.531105466,15.17456279,1.0
16.35996104,4.214248827,-15.69495241,2.856495824,16.50003009,1.0
16.37000204,2.437013065,-14.31889324,1.998576848,14.66165222,1.0
16.38004204,0.5708180559,-10.9208704,1.711121149,11.0688382,1.0
16.39008304,-0.7067262049,-7.700895281,2.115182315,8.017309167,1.0
16.40012304,-1.710078444,-4.98154707,2.682173953,5.910519149,1.0
16.41016304,-1.690169552,-2.286024508,3.343313949,4.388659172,1.0
16.42020404,-1.027969017,0.3593739671,3.681842885,3.839509992,1.0
16.43024412,-0.6388195659,3.06315689,3.322672108,4.564117715,1.0
16.44028413,-0.4755704212,5.778293352,2.357121388,6.258662998,1.0
16.45032513,-0.8629193683,7.405949444,1.928493583,7.701415747,1.0
16.46036512,-1.053117745,8.989130445,1.469059138,9.169059815,1.0
16.47040512,-0.4307161376,11.06152868,0.3879464229,11.07670689,1.0
16.48044613,0.1614701293,13.20619383,-0.7189081478,13.22673266,1.0
16.49048612,1.057519529,14.67180077,-0.785325501,14.73081198,1.0
16.50052612,1.647452425,15.45477101,-0.2569518171,15.54445466,1.0
16.51056712,1.433174191,16.2253054,-0.1376019595,16.28905945,1.0
16.52060713,0.6538027637,17.03009277,-0.06926198702,17.04277897,1.0
16.53064712,-0.3600396726,17.81452482,0.09470786355,17.81841442,1.0
16.54068812,-1.869820575,17.95344063,-0.08774975002,18.05076063,1.0
16.55072813,-3.861504725,16.38454145,-1.000923963,16.86316299,1.0
16.56076812,-5.497143436,13.61632221,-1.922917678,14.80947092,1.0
16.57080912,-6.569461391,10.67153577,-3.629664379,13.04660731,1.0
16.58084912,-7.49907337,7.85592134,-5.454482151,12.15331136,1.0
16.59088913,-8.293935095,5.808934516,-7.292537434,12.47854887,1.0
16.60093012,-8.350094678,5.726366569,-7.706396341,12.72414633,1.0
16.61097012,-6.89913618,7.523652141,-6.256361704,11.97269741,1.0
16.62101013,-5.403984427,9.314226864,-5.303730406,12.0036422,1.0
16.63105113,-4.389518824,10.37405049,-4.966671168,12.3108335,1.0
16.64109112,-1.403622656,11.03937007,-5.13271689,12.25490232,1.0
16.65113112,-0.02584206194,11.14510644,-6.357604489,12.83094698,1.0
16.66117213,0.2703590257,10.44532103,-6.826609071,12.48120254,1.0
16.67121212,0.9523577942,7.503779209,-4.617914575,8.862213201,1.0
16.68125212,1.978752887,2.391517049,-3.763266824,4.87821627,1.0
16.69129313,3.373856003,-6.49627764,-3.398031024,8.070386753,1.0
16.70133313,6.832793087,-29.79066094,-6.0720294,31.16151603,1.0
16.71137412,17.8215251,-70.74702923,-11.12658363,73.80074367,1.0
16.72141412,23.66123527,-62.0458344,-5.88865487,66.66495239,1.0
16.73145413,17.74402026,-24.289128,1.355116786,30.11060171,1.0
16.74149512,12.12175284,-11.59721316,3.237541326,17.08548855,1.0
16.75153512,7.839386584,-10.32267334,4.842328081,13.8369689,1.0
16.76157513,3.826845939,-16.07610784,5.933262109,17.55817737,1.0
16.77161613,0.4313593313,-19.34998728,5.641505928,20.16022489,1.0
16.78165612,-0.4141376732,-18.52419553,4.441976534,19.05383126,1.0
16.79169612,0.02319283471,-15.68936598,3.261245646,16.02474543,1.0
16.80173713,0.319575917,-11.49918576,2.042344719,11.68351718,1.0
16.81177712,-0.05905497774,-7.954589596,1.451823885,8.086208983,1.0
16.82181712,-0.1654364419,-4.089393523,1.664619266,4.4183103,1.0
16.83185812,-0.3130536403,-0.3091113013,2.307021421,2.34859537,1.0
16.84189813,-2.25257361,2.762364423,2.639406248,4.435223829,1.0
16.85193812,-3.947316708,5.360696905,2.06002553,6.968650205,1.0
16.86197912,-4.511244113,7.617363127,1.460745567,8.972698706,1.0
16.87201913,-3.874204585,9.671416311,0.9731041539,10.4638753,1.0
16.88205912,-2.732335754,11.89770274,-0.4883641291,12.21718006,1.0
16.89210012,-1.673064399,13.48528728,-1.173992264,13.63929526,1.0
16.90214012,-1.436622879,14.66449877,-1.183991003,14.78219348,1.0
16.91218013,-1.981143959,15.63840633,-1.144693694,15.80490454,1.0
16.92222112,-2.387174614,16.73623744,-1.227870848,16.95015968,1.0
16.93226112,-2.840005506,17.28294976,-1.487393083,17.57777921,1.0
16.94230113,-3.662153555,17.06068073,-2.148051268,17.58102158,1.0
16.95234213,-3.987036844,14.78897196,-3.507648191,15.71348943,1.0
16.96238212,-2.795887387,11.7464341,-3.858149593,12.67600168,1.0
16.97242212,-2.746783347,9.377112499,-4.93119845,10.94494293,1.0
16.98246313,-2.889021253,7.594643186,-5.72798157,9.941570389,1.0
16.99250312,-3.15669246,6.720532978,-5.647093527,9.328447679,1.0
17.00254312,-3.467082548,7.125956107,-4.447510339,9.087368159,1.0
17.01258413,-3.308678552,8.151044932,-2.965037103,9.283228548,1.0
17.02262413,-3.104925891,8.935938908,-2.072759011,9.684415258,1.0
17.03266412,-2.828851358,9.6805865,-1.417305433,10.18454268,1.0
17.04270512,-2.900649903,10.1305046,-1.085500649,10.59335664,1.0
17.05274513,-2.812041197,10.39884151,-0.6506677059,10.79198077,1.0
17.06278612,-2.779443555,10.40589793,-0.4234426399,10.77902231,1.0
17.07282612,-3.125997209,10.11059483,-0.3678665362,10.58920734,1.0
17.08286613,-3.332126764,9.782834421,-0.3053223056,10.33925238,1.0
17.09290713,-3.254864872,9.558422962,-0.4910216886,10.10933713,1.0
17.10294712,-3.388983627,9.187872042,-0.9431015056,9.838274398,1.0
17.11298712,-3.444871022,8.735336142,-1.525578325,9.513181545,1.0
17.12302813,-3.037090295,7.890363194,-2.176518438,8.730348293,1.0
17.13306812,-1.089016433,5.433446208,-3.323418798,6.461687627,1.0
17.14310812,0.634621996,0.5616104454,-5.012577658,5.083707914,1.0
17.15314912,1.850878812,-11.2580957,-8.161408537,14.027796,1.0
17.16318913,5.870879334,-44.56645795,-14.23470503,47.15149229,1.0
17.17322912,18.91567364,-75.35512633,-18.118428,79.77766108,1.0
17.18327012,21.61175812,-48.84374765,-7.62844594,53.95343327,1.0
17.19331013,14.72837609,-18.87589737,0.3338596416,23.94443622,1.0
17.20335012,13.77174354,-10.73428575,2.980915217,17.71360117,1.0
17.21339112,12.14405295,-10.03863549,3.271335894,16.09204347,1.0
17.22343112,9.404465189,-16.79750924,0.7357982688,19.2650378,1.0
17.23347113,6.418467572,-20.62956388,-0.6517527299,21.6148193,1.0
17.24351212,5.32903891,-18.7664983,0.3127348208,19.51096915,1.0
17.25355212,4.013503973,-14.56682805,2.042015959,15.24698405,1.0
17.26359213,1.625939934,-10.72449751,3.840734246,11.5069443,1.0
17.27363313,-2.301280917,-8.085640901,6.834239688,10.83421962,1.0
17.28367312,-5.258893957,-5.535514619,11.21433514,13.56684194,1.0
17.29371312,-5.238496529,-2.216299385,11.07745065,12.45245927,1.0
17.30375413,-3.018832657,1.093992999,6.942014397,7.648642702,1.0
17.31379412,-2.237411634,3.382450533,3.649627358,5.455892436,1.0
17.32383412,-2.553638997,5.794349806,1.856799703,6.598732222,1.0
17.33387513,-2.454641543,8.548942695,0.479574631,8.907282309,1.0
17.34391513,-1.816464147,10.97393973,-0.3309757948,11.12818225,1.0
17.35395612,-1.010050225,12.85053811,-0.5331350899,12.90119235,1.0
17.36399612,-0.6267267931,14.38177537,-0.630887087,14.40924244,1.0
17.37403613,-0.7255913691,15.72838562,-0.8308408123,15.76701917,1.0
17.38407712,-0.9469891731,16.96482381,-1.047208257,17.0234744,1.0
17.39411712,-1.373430265,18.06090193,-1.219445595,18.15405014,1.0
17.40415713,-1.904128674,18.85643784,-1.497460965,19.01140035,1.0
17.41419813,-2.790035786,18.73209796,-1.904764413,19.03428279,1.0
17.42423812,-3.967905339,17.0538044,-2.8602626,17.74140974,1.0
17.43427712,-4.851959907,14.07188697,-4.418733852,15.52690332,1.0
17.44431813,-5.579792075,11.18068324,-5.427218923,13.62337927,1.0
17.45435812,-6.165498896,8.875050682,-5.863070962,12.2945314,1.0
17.46439812,-6.263997583,7.754250539,-5.797707278,11.53167277,1.0
17.47443913,-5.781766014,7.638521862,-4.750240574,10.69301735,1.0
17.48447913,-5.024769103,7.665797369,-3.367605037,9.764912571,1.0
17.49451912,-4.761963657,7.249867963,-2.247818801,8.960444894,1.0
17.50456012,-4.663366444,6.797279438,-1.06359157,8.311511378,1.0
17.51460013,-4.631289204,6.502069307,0.1750527728,7.984759761,1.0
17.52464012,-4.721410877,6.236731431,1.143018978,7.90537994,1.0
17.53468112,-4.807547965,6.250369477,1.860541921,8.101928923,1.0
17.54472113,-4.995482154,6.769255487,2.00632821,8.648873608,1.0
17.55476113,-5.257090091,7.62205201,1.723293736,9.418195918,1.0
17.56480212,-5.051885566,8.333134829,1.271983413,9.827544233,1.0
17.57484212,-2.992672506,7.51381537,0.1959343493,8.09023488,1.0
17.58488213,-0.9752492049,5.487626508,-1.465540284,5.763068976,1.0
17.59492312,0.3622832492,1.483124616,-3.497682781,3.816371656,1.0
17.60496312,1.796962221,-10.64867199,-7.349385234,13.0628003,1.0
17.61500412,8.562491863,-50.65071972,-13.81656128,53.19500955,1.0
17.62504413,22.34555795,-87.78989934,-18.56511201,92.47190801,1.0
17.63508412,21.72934329,-48.93694759,-7.982124134,54.13597238,1.0
17.64512512,10.10756013,-18.28822413,-0.4702727707,20.90079113,1.0
17.65516513,7.582688554,-9.299953811,1.806608373,12.13466688,1.0
17.66520512,6.537624471,-7.792152776,3.503168639,10.75780503,1.0
17.67524612,6.850507227,-9.487229018,4.687787633,12.60604286,1.0
17.68528612,6.86834942,-9.249906907,5.69677498,12.85255798,1.0
17.69532613,5.189021484,-8.101876865,5.499599851,11.08205537,1.0
17.70536712,2.328166853,-6.4043062,5.214163342,8.580384499,1.0
17.71540712,0.4798277789,-3.955135605,4.98549394,6.381887039,1.0
17.72544713,-0.8193640436,-1.546017267,4.838973241,5.145598979,1.0
17.73548813,-2.060811249,1.086129078,5.039388896,5.551761867,1.0
17.74552812,-2.508120469,3.5586593,5.322741458,6.87650354,1.0
17.75556812,-2.491744757,5.519785609,5.245188668,8.011793137,1.0
17.76560913,-2.345881285,6.842108871,4.549663535,8.545001526,1.0
17.77564912,-1.979395788,8.141761892,3.496915627,9.079356436,1.0
17.78568912,-1.32784698,9.895206796,2.374313517,10.26234183,1.0
17.79573013,-0.4774460618,12.10788792,1.454213058,12.20424682,1.0
17.80577013,-0.589722835,13.87383827,0.9305598859,13.91751066,1.0
17.81581012,-1.349199696,14.81845479,0.6947065222,14.89595782,1.0
17.82585112,-1.440527942,15.75744395,0.09068447669,15.82341253,1.0
17.83589113,-1.411230029,16.55404989,-0.614040674,16.62543786,1.0
17.84593112,-1.931791267,16.81379491,-1.025271842,16.95543273,1.0
17.85597212,-2.801931946,16.53725318,-1.856799703,16.87540431,1.0
17.86601213,-3.976594886,15.08947791,-3.604448261,16.0155455,1.0
17.87605313,-4.017115506,13.28660474,-4.28591084,14.52721977,1.0
17.88609312,-4.392664918,11.51050831,-5.227052359,13.38317537,1.0
17.89613312,-5.27676831,9.961081527,-6.350515324,12.93817892,1.0
17.90617413,-5.115536016,8.885810144,-6.431210409,12.10317305,1.0
17.91621412,-5.014609566,8.298007681,-4.864014527,10.84720599,1.0
17.92625412,-4.839084923,8.097328901,-2.762140474,9.82918604,1.0
17.93629512,-4.754575115,8.14245011,-1.235210858,9.509533331,1.0
17.94633513,-3.240690052,7.966465291,-0.5276849002,8.616559209,1.0
17.95637512,-2.02220457,7.057043163,-0.01507762115,7.341076001,1.0
17.96641612,-0.8949751201,6.128956722,0.5755484533,6.220638793,1.0
17.97645613,0.07534926742,4.561421117,0.5555229092,4.59574214,1.0
17.98649612,0.1309635973,1.398695499,-0.6487883377,1.547393573,1.0
17.99653712,0.3197640511,-5.169346772,-2.795469604,5.885494491,1.0
18.00657712,1.041259884,-20.6868549,-6.330116143,21.65872938,1.0
18.01661713,3.959200589,-52.76124181,-11.7222968,54.19258389,1.0
18.02665812,12.2929523,-60.38806924,-9.624883,62.37366396,1.0
18.03669812,14.14632203,-31.71935099,-1.317972933,34.75590175,1.0
18.04673813,11.6544995,-19.37798257,0.5755110312,22.6200084,1.0
18.05677913,11.91683249,-14.75330394,1.36697377,19.01419183,1.0
18.06681912,10.41897932,-15.14997437,1.940930319,18.48902551,1.0
18.07685912,7.738187653,-15.72223084,2.111683487,17.65013592,1.0
18.08690013,5.630979186,-15.46170113,2.27222464,16.61129535,1.0
18.09694012,2.754453432,-14.60561965,2.041555637,15.00263605,1.0
18.10698112,0.859909514,-12.6104374,1.939204951,12.78761477,1.0
18.11702113,-0.2449341626,-9.960100365,2.110932705,10.18428343,1.0
18.12706113,-2.016508358,-7.21721828,2.314785061,7.843008067,1.0
18.13710212,-3.002661012,-4.22182945,3.273946091,6.128502269,1.0
18.14714212,-3.144946573,-0.7293933749,3.78713282,4.976452415,1.0
18.15718213,-3.657418773,2.418220698,3.700413934,5.737383263,1.0
18.16722312,-3.481872787,5.08037437,3.802695769,7.238379443,1.0
18.17726312,-2.582215217,7.637154198,2.693571346,8.499958016,1.0
18.18730313,-1.765208917,10.21434432,1.063886855,10.42020382,1.0
18.19734413,-1.159833085,12.59125385,-0.4199376726,12.6515309,1.0
18.20738412,-1.21643501,14.7186241,-1.836866544,14.88259683,1.0
18.21742412,-1.06033087,16.02392261,-2.664410112,16.27849743,1.0
18.22746513,-0.3964695802,16.73100535,-2.336395347,16.89800199,1.0
18.23750512,-0.8249399485,16.99956329,-1.70866868,17.10512282,1.0
18.24754512,-1.883869826,17.26624427,-1.523748146,17.43542271,1.0
18.25758612,-2.929339852,16.82285342,-1.887159031,17.17995338,1.0
18.26762613,-3.751709803,15.16667051,-2.685961195,15.85299998,1.0
18.27766612,-3.614276261,12.89254801,-3.695378897,13.89016243,1.0
18.28770712,-3.158772607,10.42711631,-4.430705441,11.76153687,1.0
18.29774713,-3.600530042,8.112817006,-5.220688249,10.29743668,1.0
18.30778813,-3.60501778,7.358941923,-5.446872,9.839643998,1.0
18.31782812,-2.831577914,7.612221086,-4.606056422,9.336996257,1.0
18.32786812,-2.533874531,7.8494742,-3.408030347,8.924653282,1.0
18.33790913,-1.328248245,7.936597129,-2.334444131,8.378749715,1.0
18.34794912,-0.9633417888,7.935415406,-1.154066123,8.07655333,1.0
18.35798912,-0.9494745322,8.116801298,-0.3857221786,8.181243598,1.0
18.36803013,-0.9345921989,8.330112988,0.1512616217,8.383741709,1.0
