"Time (s)","Linear Acceleration x (m/s^2)","Linear Acceleration y (m/s^2)","Linear Acceleration z (m/s^2)","Absolute acceleration (m/s^2)"
1.354641677E-2,-2.449698307E-1,5.949619402E-1,3.122559339E0,3.188160403E0
2.358641673E-2,-3.499406906E-1,3.475304317E-1,3.426422179E0,3.461734369E0
3.362641670E-2,-5.208695318E-1,3.111600195E-1,3.572725362E0,3.623878053E0
4.366641666E-2,-6.688192905E-1,7.029873490E-1,3.498812463E0,3.630867542E0
5.370641674E-2,-3.320632673E-1,1.013270725E0,2.976616344E0,3.161839407E0
6.374641671E-2,1.608389955E-1,1.102748473E0,2.602098089E0,2.830695646E0
7.378641667E-2,4.812275293E-1,1.271030609E0,2.633882384E0,2.963854780E0
8.382641675E-2,7.323912424E-1,1.304474490E0,2.775555741E0,3.153055708E0
9.386641672E-2,9.404310092E-1,1.029408748E0,3.117576342E0,3.415168385E0
1.039064167E-1,1.061241647E0,6.929014868E-1,3.721344627E0,3.931253253E0
1.139454168E-1,1.083753062E0,4.342615968E-1,4.430768006E0,4.582009271E0
1.239854167E-1,1.009869838E0,1.720652841E-1,4.920433141E0,5.025943279E0
1.340254167E-1,8.552893366E-1,-2.045594309E-1,5.009817188E0,5.086416486E0
1.440654168E-1,6.047513486E-1,-5.852291036E-1,4.695776684E0,4.770590735E0
1.541054167E-1,3.631376370E-1,-8.730765666E-1,4.110332987E0,4.217697109E0
1.641454167E-1,3.057126072E-1,-1.086918452E0,3.354100308E0,3.539045181E0
1.741854167E-1,4.990410718E-1,-1.332131527E0,2.439189983E0,2.823696898E0
1.842254167E-1,8.002473029E-1,-1.575583421E0,1.492339243E0,2.312992710E0
1.942654167E-1,1.035722279E0,-1.708221076E0,6.738547665E-1,2.108274206E0
2.043054167E-1,1.257045531E0,-1.728579327E0,4.320156813E-2,2.137759652E0
2.143454168E-1,1.611588382E0,-1.686969955E0,-4.300247043E-1,2.372341879E0
2.243854167E-1,2.025028482E0,-1.606183362E0,-7.379648083E-1,2.687965291E0
2.344254167E-1,2.201506952E0,-1.380656547E0,-8.061526984E-1,2.720795386E0
2.444654168E-1,2.166132906E0,-1.149299180E0,-6.958426362E-1,2.548963975E0
2.545054167E-1,1.920213633E0,-1.066505823E0,-5.653737134E-1,2.268105488E0
2.645454167E-1,1.507110333E0,-1.077806152E0,-5.473490864E-1,1.932003799E0
2.745854167E-1,1.048096449E0,-1.072523192E0,-6.814801204E-1,1.647187700E0
2.846254167E-1,6.452327920E-1,-9.906224120E-1,-9.271853846E-1,1.502441632E0
2.946654167E-1,3.040213732E-1,-8.305879202E-1,-1.320404790E0,1.589268416E0
3.047054167E-1,-7.523301747E-3,-6.314226919E-1,-1.732225943E0,1.843734778E0
3.147454167E-1,-2.511502645E-1,-3.909805065E-1,-2.147522095E0,2.197224013E0
3.247844167E-1,-4.105062599E-1,-2.123369586E-1,-2.597541354E0,2.638337252E0
3.348244167E-1,-5.448373784E-1,-4.343867272E-2,-2.920062075E0,2.970773840E0
3.448644168E-1,-5.758954490E-1,1.019055668E-1,-3.008291296E0,3.064613652E0
3.549044167E-1,-4.825347109E-1,1.467294449E-1,-2.913598562E0,2.956928450E0
3.649444167E-1,-3.924922311E-1,1.973841664E-1,-2.742171648E0,2.777141698E0
3.749844168E-1,-3.417909510E-1,2.104290122E-1,-2.567221202E0,2.598408382E0
3.850244167E-1,-3.689269287E-1,1.492767844E-1,-2.425543166E0,2.457976869E0
3.950644167E-1,-3.689596000E-1,7.421198398E-2,-2.395221260E0,2.424607904E0
4.051044168E-1,-3.268922456E-1,7.140502810E-2,-2.478579751E0,2.501062734E0
4.151444167E-1,-2.595990709E-1,8.291848809E-2,-2.624392937E0,2.638504395E0
4.251844167E-1,-1.677090354E-1,7.018091351E-2,-2.748751520E0,2.754757085E0
4.352245417E-1,-5.751842540E-2,8.787897348E-2,-2.782630872E0,2.784612299E0
4.452645417E-1,1.515322382E-2,1.178979939E-1,-2.761161066E0,2.763718507E0
4.553045417E-1,5.603026334E-2,1.318509123E-1,-2.673628247E0,2.677463736E0
4.653445417E-1,4.997869207E-2,1.780997568E-1,-2.546033816E0,2.552744716E0
4.753845417E-1,-7.337508297E-2,2.333720246E-1,-2.303057447E0,2.316013819E0
4.854245418E-1,-1.333491425E-1,2.412289283E-1,-2.088782721E0,2.106890279E0
4.954645417E-1,-1.036493344E-1,2.623745066E-1,-1.918794222E0,1.939421262E0
5.055045417E-1,-8.060467176E-2,3.997972307E-1,-1.719570229E0,1.767273808E0
5.155445418E-1,-5.153135623E-2,6.432194495E-1,-1.490886210E0,1.624539452E0
5.255845417E-1,-2.381296847E-2,9.028174058E-1,-1.182266659E0,1.487750241E0
5.356235417E-1,-3.728538274E-2,1.148713582E0,-7.456117970E-1,1.369989067E0
5.456635418E-1,-7.239603066E-2,1.318651210E0,-2.069002175E-1,1.336746011E0
5.557035417E-1,-9.080767022E-2,1.362922526E0,3.009076577E-1,1.398695558E0
5.657435417E-1,-7.464404753E-2,1.283011846E0,7.496112925E-1,1.487819956E0
5.757835417E-1,-5.144037721E-2,1.144769635E0,1.096849948E0,1.586260835E0
5.858235417E-1,-8.303682111E-2,9.516513044E-1,1.368350204E0,1.668807239E0
5.958635417E-1,-6.290322223E-2,6.973097026E-1,1.820117195E0,1.950134416E0
6.059035417E-1,-1.198431981E-1,4.905167815E-1,2.458605663E0,2.509922491E0
6.159435418E-1,-3.451710071E-1,5.460080275E-1,3.087197717E0,3.154054143E0
6.259835417E-1,-4.616693969E-1,8.078776270E-1,3.324831485E0,3.452580093E0
6.360235417E-1,-1.544178756E-1,1.100229346E0,3.116151960E0,3.308285437E0
6.460635418E-1,3.744149426E-1,1.488668653E0,2.966949143E0,3.340525127E0
6.561035417E-1,8.151435965E-1,1.943450761E0,3.151901252E0,3.791561874E0
6.661435417E-1,1.110240218E0,2.222534271E0,3.399111004E0,4.210255045E0
6.761835418E-1,1.161169613E0,2.139457908E0,3.609907807E0,4.353967085E0
6.862235417E-1,8.735067755E-1,1.672858577E0,3.727056187E0,4.177609093E0
6.962635417E-1,3.138662205E-1,9.058813468E-1,3.745940355E0,3.866678441E0
7.063035417E-1,-3.369442305E-1,1.080892897E-1,3.645889817E0,3.663021604E0
7.163425417E-1,-8.521542057E-1,-4.904641566E-1,3.470829443E0,3.607406119E0
7.263825417E-1,-1.103004947E0,-9.184712791E-1,3.220856881E0,3.526205957E0
7.364225417E-1,-1.127810151E0,-1.253333133E0,2.692674968E0,3.176995147E0
7.464625417E-1,-1.013765107E0,-1.474124874E0,1.847131332E0,2.571508894E0
7.565025417E-1,-8.413465047E-1,-1.541895857E0,8.887364334E-1,1.968542411E0
7.665425417E-1,-5.344629560E-1,-1.525633581E0,-7.897834182E-2,1.618470282E0
7.765825418E-1,-2.539658085E-1,-1.460176341E0,-8.618187761E-1,1.714451860E0
7.866225417E-1,-1.024119356E-1,-1.359394024E0,-1.383524898E0,1.942313430E0
7.966625417E-1,-4.490449660E-2,-1.245230647E0,-1.491619450E0,1.943590585E0
8.067025418E-1,9.878001072E-2,-1.203200861E0,-1.229855393E0,1.723367079E0
8.167425417E-1,3.933183695E-1,-1.256090096E0,-8.618626302E-1,1.573298720E0
8.267825417E-1,6.400935280E-1,-1.337267868E0,-5.379338998E-1,1.577142338E0
8.368225417E-1,6.940187435E-1,-1.360263505E0,-2.829988056E-1,1.553083109E0
8.468625417E-1,5.311995884E-1,-1.398878810E0,-1.307612836E-1,1.502043089E0
8.569025417E-1,2.214278624E-1,-1.458725354E0,-1.078150553E-1,1.479369475E0
8.669425417E-1,-1.451070252E-1,-1.490992044E0,-3.135721421E-1,1.530503451E0
8.769825418E-1,-5.152912880E-1,-1.472508996E0,-7.456579900E-1,1.729107773E0
8.870225417E-1,-7.167962066E-1,-1.359064241E0,-1.208163977E0,1.954613161E0
8.970615417E-1,-7.093122091E-1,-1.239859979E0,-1.644221254E0,2.178035838E0
9.071015418E-1,-5.667880818E-1,-1.104995120E0,-2.071348078E0,2.415107825E0
9.171415417E-1,-4.011904029E-1,-9.095943287E-1,-2.453981684E0,2.647704985E0
9.271815417E-1,-2.956916490E-1,-6.688979356E-1,-2.778771710E0,2.873400462E0
9.372215418E-1,-1.996284740E-1,-4.226155512E-1,-2.986556026E0,3.022907926E0
9.472615417E-1,-7.071677428E-2,-2.650699268E-1,-3.116301064E0,3.128353441E0
9.573015417E-1,5.587858748E-2,-1.384057872E-1,-3.111964184E0,3.115541632E0
9.673415417E-1,1.635587182E-1,-5.741804972E-2,-2.998984868E0,3.003990434E0
9.773815417E-1,2.443532052E-1,5.209123626E-2,-2.840873233E0,2.851838479E0
9.874215417E-1,2.667514033E-1,2.170968845E-1,-2.709619029E0,2.731359122E0
9.974615417E-1,3.310731144E-1,3.883572994E-1,-2.689894617E0,2.737875791E0
1.007501542E0,3.958735297E-1,5.425565623E-1,-2.757793654E0,2.838399076E0
1.017541542E0,4.541255385E-1,7.196538140E-1,-2.750140234E0,2.878784973E0
1.027581542E0,5.481719358E-1,8.671530448E-1,-2.637886557E0,2.830351986E0
1.037621542E0,6.393227919E-1,1.051431116E0,-2.428490163E0,2.722463130E0
1.047661542E0,6.975665416E-1,1.284908975E0,-2.143582242E0,2.594712890E0
1.057701542E0,7.488570748E-1,1.426277985E0,-1.883862956E0,2.478708423E0
1.067740542E0,5.493248606E-1,1.520747501E0,-1.543908761E0,2.235639736E0
1.077780542E0,2.190057446E-1,1.498210724E0,-1.166886728E0,1.911602345E0
1.087820542E0,-1.615954973E-1,1.360535985E0,-8.656814468E-1,1.620671354E0
1.097860542E0,-5.204824461E-1,1.238507226E0,-7.241741502E-1,1.526181616E0
1.107900542E0,-6.789778045E-1,1.196131577E0,-6.434866673E-1,1.518491587E0
1.117940542E0,-5.790973478E-1,1.255127644E0,-3.372463489E-1,1.422826146E0
1.127980542E0,-3.199907769E-1,1.373759171E0,1.415207452E-1,1.417616478E0
1.138020542E0,2.982344021E-2,1.462470496E0,6.593004620E-1,1.604489479E0
1.148060542E0,2.859738324E-1,1.482525568E0,1.265654386E0,1.970163475E0
1.158100542E0,3.020821258E-1,1.478309433E0,1.963803164E0,2.476524835E0
1.168140542E0,2.752629211E-1,1.457421133E0,2.552162867E0,2.951843718E0
1.178180542E0,2.758677424E-1,1.394134379E0,2.819213392E0,3.157162940E0
1.188220542E0,2.811917236E-1,1.243405731E0,2.742842909E0,3.024617962E0
1.198260542E0,2.797817772E-1,1.216404166E0,2.558583110E0,2.846798986E0
1.208300542E0,4.356923739E-1,1.232940092E0,2.483825873E0,2.807019787E0
1.218340542E0,7.424665797E-1,1.111895565E0,2.682377436E0,2.997118129E0
1.228379542E0,1.022282965E0,7.291331738E-1,3.253260981E0,3.487177176E0
1.238419542E0,1.075740915E0,1.774865301E-1,4.058002161E0,4.201916411E0
1.248459542E0,8.426482411E-1,-4.680671279E-1,4.874539515E0,4.968931311E0
1.258499542E0,3.978810250E-1,-1.082669135E0,5.690062961E0,5.805798676E0
1.268539542E0,-1.394294154E-2,-1.665421942E0,6.491130921E0,6.701388310E0
1.278579542E0,-2.880073113E-1,-2.164702384E0,6.954301736E0,7.289114985E0
1.288619542E0,-4.056266123E-1,-2.468227841E0,6.848197576E0,7.290712700E0
1.298659542E0,-3.735164814E-3,-2.796223310E0,6.266233558E0,6.861819129E0
1.308699542E0,4.531016911E-1,-2.750447212E0,5.041634227E0,5.760931929E0
1.318739542E0,9.652406721E-1,-2.440790658E0,3.274412114E0,4.196537059E0
1.328779542E0,1.623363359E0,-2.148191455E0,1.434793285E0,3.051010799E0
1.338819542E0,2.195976948E0,-1.815369402E0,-5.101871073E-2,2.849646247E0
1.348859542E0,2.625834861E0,-1.501494228E0,-1.123701532E0,3.226793883E0
1.358899542E0,2.934505574E0,-1.311272609E0,-1.890330561E0,3.728821322E0
1.368939542E0,2.969886492E0,-1.105294789E0,-2.306804928E0,3.919598362E0
1.378979542E0,2.711704439E0,-8.769735897E-1,-2.492016653E0,3.785838168E0
1.389018542E0,2.452485821E0,-8.154766685E-1,-2.560807976E0,3.638327416E0
1.399058542E0,2.089387323E0,-9.034942210E-1,-2.625185235E0,3.474685412E0
1.409098542E0,1.562141695E0,-9.828248575E-1,-2.826268058E0,3.375503297E0
1.419138542E0,9.679041519E-1,-9.967213503E-1,-3.133497725E0,3.427696003E0
1.429178542E0,4.684682104E-1,-9.396153957E-1,-3.556875315E0,3.708598328E0
1.439218583E0,1.656642640E-1,-7.967641166E-1,-3.920232990E0,4.003811234E0
1.449258583E0,2.220231637E-2,-6.280889019E-1,-4.084808722E0,4.132874412E0
1.459298583E0,-3.866078490E-2,-4.159770611E-1,-3.980075734E0,4.001941331E0
1.469338583E0,-8.121599816E-3,-2.088549417E-1,-3.799962196E0,3.805706115E0
1.479378583E0,5.498907980E-2,-1.800942421E-2,-3.733581095E0,3.734029450E0
1.489418583E0,4.918312356E-2,1.144253325E-1,-3.753476247E0,3.755542047E0
1.499458583E0,-4.159926658E-2,2.111252694E-1,-3.730910672E0,3.737111026E0
1.509498583E0,-2.012573803E-1,2.448800759E-1,-3.493969799E0,3.508318079E0
1.519538583E0,-3.569475187E-1,1.895415884E-1,-3.200070029E0,3.225490000E0
1.529578583E0,-5.864552647E-1,1.441063839E-1,-2.796708044E0,2.861166250E0
1.539617583E0,-7.198111041E-1,5.648249522E-2,-2.378144467E0,2.485334867E0
1.549657583E0,-6.512061614E-1,-9.744414121E-2,-2.077250842E0,2.179113555E0
1.559697583E0,-6.649142276E-1,-1.766702588E-1,-1.818352506E0,1.944152552E0
1.569737583E0,-7.389797388E-1,-2.006648929E-1,-1.661395111E0,1.829369063E0
1.579777583E0,-7.801898915E-1,-1.658356605E-1,-1.614277663E0,1.800580491E0
1.589817583E0,-9.482758529E-1,-6.908251405E-2,-1.603656780E0,1.864326837E0
1.599857583E0,-1.244596224E0,7.860075787E-2,-1.559987435E0,1.997187682E0
1.609897583E0,-1.339740655E0,1.990998857E-1,-1.437151467E0,1.974829139E0
1.619937583E0,-1.254810286E0,3.360915238E-1,-1.212003259E0,1.776642414E0
1.629977583E0,-1.162049399E0,5.526982655E-1,-9.000700915E-1,1.570337654E0
1.640017583E0,-1.017369988E0,7.570094821E-1,-4.954351670E-1,1.361455491E0
1.650057583E0,-8.034013642E-1,1.028456821E0,6.543852925E-2,1.306697894E0
1.660097583E0,-5.397074334E-1,1.258676611E0,6.970916015E-1,1.536713255E0
1.670137583E0,-2.861739351E-1,1.415646285E0,1.245604284E0,1.907217858E0
1.680176583E0,-9.872172128E-2,1.540501881E0,1.683554889E0,2.284129832E0
1.690216583E0,5.876630802E-2,1.605871121E0,1.984565458E0,2.553580935E0
1.700256583E0,2.684297004E-1,1.633228635E0,2.090500633E0,2.666398915E0
1.710296583E0,4.624410832E-1,1.671976233E0,2.228423002E0,2.824044148E0
1.720336583E0,5.717877069E-1,1.713976490E0,2.542749435E0,3.119331864E0
1.730376583E0,5.047606354E-1,1.849128448E0,2.799653871E0,3.392951682E0
1.740416583E0,5.127212540E-1,1.935859905E0,2.873979583E0,3.502883855E0
1.750456583E0,6.042363551E-1,2.061171730E0,2.916122805E0,3.621781701E0
1.760496583E0,7.995496570E-1,2.225021676E0,3.073870159E0,3.877973552E0
1.770536583E0,1.094650518E0,2.265578403E0,3.355461540E0,4.194070505E0
1.780576583E0,1.299554642E0,2.186250251E0,3.809988416E0,4.580889014E0
1.790616583E0,1.303217631E0,1.882683426E0,4.419426162E0,4.977368851E0
1.800656583E0,1.072483797E0,1.404771926E0,5.029415885E0,5.330912661E0
1.810696583E0,6.235366253E-1,8.895790172E-1,5.525924601E0,5.631695255E0
1.820735583E0,1.038692079E-2,3.597970131E-1,5.704066458E0,5.715412140E0
1.830775583E0,-5.259655264E-1,-2.490986958E-1,5.457297585E0,5.488240777E0
1.840815583E0,-8.300442754E-1,-8.146193205E-1,4.852951595E0,4.990362443E0
1.850855583E0,-9.698966637E-1,-1.150749728E0,4.031180983E0,4.302946037E0
1.860895583E0,-1.000480014E0,-1.290320866E0,2.914265730E0,3.340483938E0
1.870935583E0,-9.674039226E-1,-1.295250214E0,1.660085919E0,2.317202781E0
1.880975583E0,-9.728749430E-1,-1.269662653E0,5.202782321E-1,1.682028045E0
1.891015583E0,-9.547353452E-1,-1.310237067E0,-4.623750097E-1,1.685832554E0
1.901055583E0,-9.188727636E-1,-1.416925071E0,-1.288157980E0,2.123995008E0
1.911095583E0,-8.972093412E-1,-1.539858395E0,-1.828955262E0,2.553669091E0
1.921135583E0,-8.197749567E-1,-1.676929701E0,-1.992850378E0,2.730490218E0
1.931175583E0,-6.421143989E-1,-1.846596311E0,-1.875792044E0,2.709395621E0
1.941215583E0,-4.074214152E-1,-1.977984416E0,-1.546732966E0,2.543776215E0
1.951255583E0,-2.526369739E-1,-1.982747851E0,-1.171827625E0,2.316958019E0
1.961294583E0,-1.866371120E-1,-2.032712016E0,-9.362859911E-1,2.245747762E0
1.971334583E0,-1.677050885E-1,-2.151128073E0,-8.433234483E-1,2.316607740E0
1.981374583E0,-3.263413282E-1,-2.270893668E0,-9.310673511E-1,2.475952973E0
1.991414583E0,-5.029546863E-1,-2.333263286E0,-1.136963017E0,2.643816537E0
2.001454583E0,-6.691739973E-1,-2.344993970E0,-1.461937230E0,2.843246564E0
2.011494583E0,-7.788637429E-1,-2.356415044E0,-1.896501127E0,3.123465562E0
2.021534583E0,-7.770862625E-1,-2.302122185E0,-2.414177933E0,3.425183894E0
2.031574583E0,-7.680786999E-1,-2.169908161E0,-3.025385047E0,3.801499835E0
2.041614583E0,-7.476853658E-1,-1.994358082E0,-3.671532782E0,4.244602518E0
2.051654583E0,-7.183747356E-1,-1.747766965E0,-4.221597315E0,4.625217348E0
2.061694583E0,-6.075503742E-1,-1.461703341E0,-4.671508985E0,4.932412220E0
2.071734583E0,-4.203701473E-1,-1.126461418E0,-4.917565082E0,5.062417675E0
2.081774583E0,-2.501331596E-1,-7.465438432E-1,-5.031075910E0,5.092309802E0
2.091814583E0,-1.005946301E-1,-3.726825222E-1,-5.015325850E0,5.030159532E0
2.101853583E0,1.437207783E-1,-3.763618827E-2,-4.794075395E0,4.796376866E0
2.111893583E0,4.381062142E-1,2.893012270E-1,-4.332868659E0,4.364559895E0
2.121933583E0,5.377108650E-1,6.308593127E-1,-3.776291497E0,3.866198898E0
2.131973583E0,5.555415472E-1,8.330589536E-1,-3.248274475E0,3.399102925E0
2.142013583E0,5.127382110E-1,9.431555924E-1,-2.644433100E0,2.854026868E0
2.152053583E0,4.430716332E-1,1.042960547E0,-2.015938109E0,2.312592838E0
2.162093583E0,3.194961390E-1,1.159493801E0,-1.499941792E0,1.922583948E0
2.172133583E0,1.385172680E-1,1.264957983E0,-1.050603150E0,1.650173540E0
2.182173583E0,-7.291361888E-2,1.345170672E0,-6.424283212E-1,1.492486074E0
2.192213583E0,-2.298150537E-1,1.279665484E0,-3.142609441E-1,1.337579400E0
2.202253583E0,-3.241163896E-1,1.129800763E0,2.402503967E-2,1.175618305E0
2.212293583E0,-3.492561644E-1,1.039020401E0,4.478668982E-1,1.184114868E0
2.222333583E0,-1.995595316E-1,1.014370586E0,8.298462009E-1,1.325675831E0
2.232372583E0,5.011016306E-2,1.050768919E0,1.198754638E0,1.594879002E0
2.242412583E0,4.018908262E-1,1.094739688E0,1.626515885E0,2.001380810E0
2.252452583E0,8.438562027E-1,1.052181898E0,2.043291383E0,2.448309563E0
2.262492583E0,1.195068334E0,9.977127457E-1,2.510566944E0,2.954076070E0
2.272532583E0,1.361706013E0,9.648275663E-1,2.880015664E0,3.328607175E0
2.282572583E0,1.220974861E0,1.045560804E0,3.123977289E0,3.513290638E0
2.292612583E0,7.218196958E-1,1.360450177E0,3.138462596E0,3.495968510E0
2.302652583E0,4.767801005E-1,1.508888325E0,2.839164092E0,3.250371668E0
2.312692583E0,6.821423176E-1,1.451237410E0,2.589227782E0,3.045571978E0
2.322732583E0,1.051791012E0,1.423922580E0,2.523710901E0,3.082683337E0
2.332772583E0,1.381264365E0,1.472827961E0,2.674280797E0,3.350953779E0
2.342812583E0,1.638469933E0,1.523198947E0,2.877486743E0,3.644811203E0
2.352852583E0,1.829215755E0,1.474849490E0,3.190472410E0,3.962363625E0
2.362892583E0,1.968749616E0,1.330265242E0,3.675649806E0,4.376754753E0
2.372931583E0,2.065287585E0,1.043387978E0,4.186240371E0,4.783166287E0
2.382971583E0,2.044113794E0,6.457083169E-1,4.527150001E0,5.009034594E0
2.393011583E0,1.892331917E0,1.011085913E-1,4.720688161E0,5.086849688E0
2.403051583E0,1.647950608E0,-4.392150655E-1,4.777432466E0,5.072722350E0
2.413091583E0,1.415605647E0,-9.327431631E-1,4.540423765E0,4.846586131E0
2.423131583E0,1.319427720E0,-1.364825795E0,3.967296644E0,4.398077037E0
2.433171583E0,1.343323098E0,-1.703728368E0,3.100108954E0,3.783897835E0
2.443212208E0,1.463497121E0,-1.932053076E0,2.041506813E0,3.168975067E0
2.453252208E0,1.645013259E0,-2.015972461E0,1.001732122E0,2.788132140E0
2.463292208E0,1.851292649E0,-2.066899517E0,3.286310613E-2,2.774966318E0
2.473332208E0,1.997433864E0,-2.045056073E0,-7.475583351E-1,2.954799460E0
2.483372208E0,2.030324598E0,-1.987304586E0,-1.284109368E0,3.117777150E0
2.493412208E0,1.896884412E0,-1.868552898E0,-1.619692184E0,3.116578762E0
2.503451208E0,1.629105032E0,-1.705023087E0,-1.894693168E0,3.025053576E0
2.513491208E0,1.258819868E0,-1.545833372E0,-2.332403453E0,3.068278694E0
2.523531208E0,8.765430884E-1,-1.464423027E0,-2.932309653E0,3.392831043E0
2.533571208E0,4.511020895E-1,-1.396197569E0,-3.655469896E0,3.938949213E0
2.543611208E0,-1.714262931E-2,-1.245729122E0,-4.340185865E0,4.515456595E0
2.553651208E0,-3.402118374E-1,-1.110358770E0,-4.913725215E0,5.049092610E0
2.563691208E0,-6.592051524E-1,-9.597049668E-1,-5.156726142E0,5.286530957E0
2.573731208E0,-9.369101813E-1,-7.969325164E-1,-5.038548651E0,5.186508906E0
2.583771208E0,-1.153316802E0,-6.995477244E-1,-4.761195332E0,4.948584410E0
2.593811208E0,-1.324050968E0,-6.763215606E-1,-4.440718213E0,4.683001182E0
2.603851208E0,-1.459129981E0,-6.890263908E-1,-4.124158729E0,4.428600557E0
2.613891208E0,-1.532358464E0,-6.889176326E-1,-3.882531897E0,4.230459065E0
2.623931208E0,-1.551606474E0,-6.280242902E-1,-3.608693340E0,3.978010153E0
2.633970208E0,-1.516645826E0,-5.595571956E-1,-3.259260809E0,3.638145109E0
2.644010208E0,-1.435930861E0,-4.928987910E-1,-2.877695489E0,3.253609992E0
2.654050208E0,-1.329094630E0,-4.061664565E-1,-2.558101299E0,2.911244748E0
2.664090208E0,-1.203319851E0,-3.208446166E-1,-2.340649781E0,2.651331992E0
2.674130208E0,-1.048200675E0,-2.046817839E-1,-2.172979118E0,2.421251234E0
2.684170208E0,-8.500575404E-1,-9.777757868E-2,-2.046993256E0,2.218634640E0
2.694210208E0,-7.003334440E-1,-3.536966130E-2,-1.874961154E0,2.001798510E0
2.704250208E0,-5.954870933E-1,3.070124432E-2,-1.529812294E0,1.641911416E0
2.714290208E0,-4.205657001E-1,1.616819447E-1,-1.003569902E0,1.100076864E0
2.724330208E0,-3.744784214E-1,3.272357695E-1,-5.720448017E-1,7.579924750E-1
2.734370208E0,-4.146486468E-1,5.223064850E-1,-3.921628135E-1,7.736467132E-1
2.744410208E0,-4.109911403E-1,7.045372997E-1,-3.963780713E-1,9.068638815E-1
2.754450208E0,-3.534647344E-1,9.721842407E-1,-4.406374007E-1,1.124384647E0
2.764489208E0,-2.130961465E-1,1.245163258E0,-3.579361367E-1,1.312996490E0
2.774529208E0,5.379266638E-2,1.545334166E0,-6.544320703E-2,1.547654402E0
2.784569208E0,3.919398154E-1,1.816719524E0,2.954294014E-1,1.881851530E0
2.794609208E0,6.194462787E-1,2.005794505E0,6.252012545E-1,2.190388527E0
2.804649208E0,7.042425270E-1,2.056785880E0,9.124088860E-1,2.357714077E0
2.814689208E0,7.244954547E-1,1.952826479E0,1.290574635E0,2.450307697E0
2.824729208E0,6.758458896E-1,1.738955942E0,1.883102233E0,2.650812980E0
2.834769208E0,4.042408222E-1,1.469186169E0,2.853544149E0,3.234908477E0
2.844809208E0,-4.389108733E-2,1.312422171E0,4.057191153E0,4.264408333E0
2.854849208E0,-4.003505234E-1,1.314016268E0,5.167156990E0,5.346627971E0
2.864889208E0,-2.739864373E-1,1.388366247E0,5.830179205E0,5.999468223E0
2.874929208E0,3.103023060E-1,1.588342338E0,5.961812893E0,6.177566825E0
2.884968208E0,9.078316125E-1,1.883848191E0,6.007856793E0,6.361398076E0
2.895008208E0,1.268601091E0,2.145828011E0,6.181450685E0,6.665152598E0
2.905048208E0,1.325083878E0,2.167920692E0,6.349584448E0,6.839075235E0
2.915088208E0,1.123612800E0,1.910182443E0,6.385303919E0,6.758950275E0
2.925128208E0,6.363162998E-1,1.379193281E0,6.016071546E0,6.204852084E0
2.935168208E0,-3.107129085E-2,6.852404648E-1,5.234080712E0,5.278837071E0
2.945208208E0,-6.765524525E-1,6.397336319E-2,4.416403736E0,4.468382009E0
2.955248208E0,-1.171483736E0,-3.999431187E-1,3.719520881E0,3.920097476E0
2.965288208E0,-1.455278274E0,-8.243487950E-1,3.047557104E0,3.476347234E0
2.975328208E0,-1.497063062E0,-1.183919375E0,2.313435085E0,2.999140676E0
2.985368208E0,-1.434288963E0,-1.444660608E0,1.390045713E0,2.465046893E0
2.995408208E0,-1.350383611E0,-1.581700193E0,3.401453984E-1,2.107370468E0
3.005447208E0,-1.259405759E0,-1.617194985E0,-7.383822995E-1,2.178676411E0
3.015487208E0,-1.166483855E0,-1.553801227E0,-1.676046479E0,2.565952968E0
3.025527208E0,-1.069886098E0,-1.526502477E0,-2.325893748E0,2.980712633E0
3.035567208E0,-9.395770233E-1,-1.571287618E0,-2.688304174E0,3.252495825E0
3.045607208E0,-7.948636984E-1,-1.691845217E0,-2.803194945E0,3.369280404E0
3.055647208E0,-6.499489369E-1,-1.841268767E0,-2.663526013E0,3.302586125E0
3.065687208E0,-5.592354160E-1,-1.889940698E0,-2.248864868E0,2.990319930E0
3.075727208E0,-5.285986007E-1,-1.869709039E0,-1.566640397E0,2.495914763E0
3.085767208E0,-4.798845335E-1,-1.924727830E0,-9.140273952E-1,2.184104500E0
3.095807208E0,-3.635954375E-1,-2.053397857E0,-5.551802623E-1,2.157978110E0
3.105847208E0,-2.844428486E-1,-2.172195591E0,-5.419374883E-1,2.256775944E0
3.115887208E0,-2.580354523E-1,-2.181191825E0,-8.072981679E-1,2.340066325E0
3.125926208E0,-3.580919650E-1,-2.008184847E0,-1.328663397E0,2.434416287E0
3.135966208E0,-4.724858688E-1,-1.740679262E0,-1.962402171E0,2.665376047E0
3.146006208E0,-4.609424418E-1,-1.527065564E0,-2.579094558E0,3.032511485E0
3.156046208E0,-4.823178523E-1,-1.398356653E0,-2.988479760E0,3.334522922E0
3.166086208E0,-5.522304517E-1,-1.268827378E0,-3.242229624E0,3.525185714E0
3.176126208E0,-5.255184337E-1,-1.161380990E0,-3.504406494E0,3.729053540E0
3.186166208E0,-5.228635785E-1,-1.056859963E0,-3.791499521E0,3.970618078E0
3.196206208E0,-4.677488932E-1,-8.877014762E-1,-4.014731011E0,4.138220394E0
3.206246208E0,-2.961055223E-1,-6.181614992E-1,-4.067662346E0,4.125006556E0
3.216286208E0,-7.168169277E-2,-3.479537702E-1,-3.945568975E0,3.961530592E0
3.226326208E0,1.871990477E-1,6.428721249E-3,-3.722301816E0,3.727011621E0
3.236366208E0,4.487193857E-1,3.144740751E-1,-3.585981000E0,3.627602895E0
3.246405208E0,6.081721891E-1,6.062264550E-1,-3.374273202E0,3.481824747E0
3.256445208E0,6.233017134E-1,9.263100564E-1,-3.043890315E0,3.242194256E0
3.266485208E0,5.945706884E-1,1.153461813E0,-2.695916664E0,2.991981804E0
3.276525208E0,4.823112741E-1,1.290419391E0,-2.320028406E0,2.698210180E0
3.286565208E0,3.409748625E-1,1.363369838E0,-1.911203367E0,2.372285708E0
3.296605208E0,2.301693036E-1,1.392988032E0,-1.550030211E0,2.096660970E0
3.306645208E0,1.031047393E-1,1.416115524E0,-1.197420888E0,1.857371947E0
3.316685208E0,-1.253314130E-3,1.456874418E0,-6.454027998E-1,1.593433216E0
3.326725208E0,4.846409876E-2,1.519260993E0,9.612764060E-2,1.523070339E0
3.336765208E0,2.686638083E-1,1.539665437E0,8.238563132E-1,1.766773648E0
3.346805208E0,4.202758610E-1,1.497052099E0,1.502750210E0,2.162418780E0
3.356845208E0,4.664424790E-1,1.441528400E0,2.026811006E0,2.530520810E0
3.366884208E0,5.076360402E-1,1.256404091E0,2.307946889E0,2.676352823E0
3.376924208E0,5.364228331E-1,9.485341537E-1,2.300410413E0,2.545457633E0
3.386964208E0,4.792865826E-1,6.398368353E-1,2.195270458E0,2.336304601E0
3.397004208E0,3.242186427E-1,4.560617709E-1,2.113560297E0,2.186377643E0
3.407044208E0,1.504408919E-1,4.153999409E-1,1.910574206E0,1.960990405E0
3.417084208E0,1.482957312E-1,3.596482015E-1,1.682381353E0,1.726773138E0
3.427124208E0,3.033718571E-1,2.593237218E-1,1.494790395E0,1.547152741E0
3.437163958E0,4.042183470E-1,2.438853183E-1,1.402842345E0,1.480148359E0
3.447203958E0,4.968833395E-1,2.437762678E-1,1.466710896E0,1.567660925E0
3.457243958E0,6.806419221E-1,1.682539228E-1,1.747245685E0,1.882671053E0
3.467283958E0,8.745746963E-1,4.912523612E-2,2.224819947E0,2.391049558E0
3.477323958E0,9.900505543E-1,-3.937558874E-2,2.875342569E0,3.041273652E0
3.487362958E0,9.997677496E-1,-1.839118892E-1,3.429422386E0,3.576911662E0
3.497402958E0,9.053476422E-1,-4.246736249E-1,3.803207985E0,3.932479246E0
3.507442958E0,6.982712772E-1,-7.278799693E-1,4.139771379E0,4.260880085E0
3.517482958E0,5.396803900E-1,-1.084744750E0,4.483861894E0,4.644668296E0
3.527522958E0,4.070211732E-1,-1.406040187E0,4.730441902E0,4.951736648E0
3.537562958E0,3.673098812E-1,-1.635926686E0,4.732862649E0,5.021071751E0
3.547602958E0,4.085139308E-1,-1.817776262E0,4.278767881E0,4.666802841E0
3.557642958E0,5.521905079E-1,-1.816473357E0,3.360569082E0,3.859781648E0
3.567682958E0,8.465970120E-1,-1.666573698E0,2.208160645E0,2.893124233E0
3.577722958E0,1.222650016E0,-1.469487154E0,1.110538865E0,2.210783148E0
3.587762958E0,1.594687151E0,-1.341110804E0,2.057570869E-1,2.093786350E0
3.597801958E0,1.954551992E0,-1.262178070E0,-3.762694967E-1,2.356893232E0
3.607841958E0,2.183825996E0,-1.195531653E0,-7.189531714E-1,2.591386805E0
3.617881958E0,2.265471837E0,-1.148445341E0,-1.009689597E0,2.733269549E0
3.627921958E0,2.177034016E0,-1.073540315E0,-1.294271829E0,2.750837233E0
3.637961958E0,1.880857779E0,-9.706043230E-1,-1.660857167E0,2.690380134E0
3.648001958E0,1.515861422E0,-9.088550945E-1,-2.121757509E0,2.761468515E0
3.658041958E0,1.134837189E0,-8.666919918E-1,-2.576827008E0,2.946022383E0
3.668081958E0,7.185847968E-1,-8.343263376E-1,-2.957117634E0,3.155472905E0
3.678121958E0,3.562421253E-1,-8.291642694E-1,-3.340274566E0,3.460036996E0
3.688161958E0,8.497102523E-2,-7.448190607E-1,-3.564859103E0,3.642828013E0
3.698201958E0,-9.843052994E-2,-6.060486996E-1,-3.641864009E0,3.693258326E0
3.708241958E0,-1.589905445E-1,-4.663932163E-1,-3.649362479E0,3.682478395E0
3.718280958E0,-1.820197302E-1,-3.389796098E-1,-3.542741425E0,3.563573370E0
3.728320958E0,-1.144842615E-1,-1.764335927E-1,-3.405664564E0,3.412152778E0
3.738360958E0,2.188503183E-2,-4.255311191E-2,-3.314801171E0,3.315146532E0
3.748400958E0,1.244388721E-1,9.191048250E-2,-3.297319166E0,3.300946266E0
3.758440958E0,1.826568940E-1,2.278474291E-1,-3.324509888E0,3.337310892E0
3.768480958E0,2.424494614E-1,3.230699207E-1,-3.343957728E0,3.368265013E0
3.778520958E0,2.824809251E-1,4.003898460E-1,-3.345811295E0,3.381502731E0
3.788560958E0,2.369746221E-1,4.855538110E-1,-3.313573841E0,3.357333923E0
3.798600958E0,1.760902515E-1,5.285963349E-1,-3.146047604E0,3.195001939E0
3.808640958E0,2.536654398E-2,5.591342957E-1,-2.817560969E0,2.872616305E0
3.818680958E0,-1.692645592E-1,5.716786198E-1,-2.388156654E0,2.461454680E0
3.828719958E0,-2.991960681E-1,5.205474964E-1,-1.983712934E0,2.072584133E0
3.838759958E0,-4.893689731E-1,5.119778171E-1,-1.659983593E0,1.804757271E0
3.848799958E0,-7.354592764E-1,5.848269613E-1,-1.410308654E0,1.694666168E0
3.858839958E0,-1.021121123E0,6.304277882E-1,-1.078351112E0,1.613371831E0
3.868879958E0,-1.226397057E0,6.053847483E-1,-6.877553523E-1,1.530865069E0
3.878919958E0,-1.210785065E0,6.242411417E-1,-2.889840156E-1,1.392547750E0
3.888959958E0,-1.032238288E0,7.528858794E-1,1.324406040E-1,1.284481820E0
3.898999958E0,-7.517838985E-1,9.306010357E-1,6.027017534E-1,1.339569603E0
3.909039958E0,-4.718512632E-1,1.135218939E0,1.167041679E0,1.695096438E0
3.919079958E0,-1.509896896E-1,1.393659731E0,1.691956168E0,2.197225753E0
3.929119958E0,1.755160367E-1,1.568985276E0,2.061736425E0,2.596782194E0
3.939158958E0,4.873396238E-1,1.556721619E0,2.314663001E0,2.831703889E0
3.949198958E0,7.587779725E-1,1.401053828E0,2.560784002E0,3.016009042E0
3.959238958E0,1.014094305E0,1.145373360E0,2.857655911E0,3.241367721E0
3.969278958E0,9.913713672E-1,9.028479575E-1,3.076655188E0,3.356152375E0
3.979318958E0,6.273698406E-1,8.589229426E-1,3.128988352E0,3.304831259E0
3.989358958E0,3.743323872E-1,8.723920038E-1,2.984324729E0,3.131674733E0
3.999398958E0,4.686233808E-1,9.004481140E-1,2.817483201E0,2.994766480E0
4.009438958E0,6.329006488E-1,1.100838334E0,2.711800041E0,2.994372677E0
4.019478958E0,7.336478821E-1,1.281744754E0,2.713699216E0,3.089542404E0
4.029518958E0,7.892568033E-1,1.267103911E0,2.893719199E0,3.256084984E0
4.039558958E0,7.692814721E-1,9.741825266E-1,3.162922084E0,3.397778934E0
4.049598958E0,6.632044286E-1,5.532462958E-1,3.476406518E0,3.582083731E0
4.059637958E0,4.286885425E-1,1.484657755E-1,3.742303972E0,3.769702239E0
4.069677958E0,7.167045515E-2,-2.377841873E-1,3.972864363E0,3.980619200E0
4.079717958E0,-2.621638789E-1,-5.986670284E-1,4.203711852E0,4.254212670E0
4.089757958E0,-4.864835183E-1,-9.333756857E-1,4.282568572E0,4.410017002E0
4.099797958E0,-5.326507211E-1,-1.208323752E0,4.013694885E0,4.225341372E0
4.109837958E0,-4.990608061E-1,-1.299001496E0,3.339644821E0,3.617968229E0
4.119877958E0,-3.945877635E-1,-1.138635905E0,2.374469492E0,2.662761085E0
4.129917958E0,-2.559953405E-1,-8.800059557E-1,1.273921764E0,1.569337681E0
4.139957958E0,-1.342383304E-1,-7.121130985E-1,2.264088678E-1,7.592008758E-1
4.149997958E0,-6.210671268E-2,-6.723108092E-1,-6.847732723E-1,9.616514454E-1
4.160037958E0,-5.325073913E-2,-7.059409238E-1,-1.376317620E0,1.547720395E0
4.170076958E0,-1.193927981E-1,-8.627221709E-1,-1.884800849E0,2.076299214E0
4.180116958E0,-2.570960058E-1,-1.090931981E0,-2.178932753E0,2.450301795E0
4.190156958E0,-4.488951311E-1,-1.307936772E0,-2.188598785E0,2.588854975E0
4.200196958E0,-6.676241197E-1,-1.513659945E0,-1.955434629E0,2.561369357E0
4.210236958E0,-8.507678309E-1,-1.678001057E0,-1.699999598E0,2.535644314E0
4.220276958E0,-1.013253037E0,-1.782894113E0,-1.603803545E0,2.603378372E0
4.230316958E0,-1.136200686E0,-1.792487639E0,-1.681606597E0,2.707723155E0
4.240356958E0,-1.187733075E0,-1.746199326E0,-1.890206015E0,2.834219597E0
4.250396958E0,-1.173471716E0,-1.615818404E0,-2.029747478E0,2.847416339E0
4.260436958E0,-1.073941507E0,-1.437792468E0,-2.130680360E0,2.785748793E0
4.270476958E0,-9.040006629E-1,-1.285421337E0,-2.229359141E0,2.727557037E0
4.280515958E0,-7.473501011E-1,-1.177822629E0,-2.335225904E0,2.720124692E0
4.290555958E0,-6.810917191E-1,-1.055821790E0,-2.402074197E0,2.710831243E0
4.300595958E0,-7.128514557E-1,-9.752033043E-1,-2.458372943E0,2.739119605E0
4.310635958E0,-7.055742303E-1,-9.149462852E-1,-2.612804925E0,2.856870889E0
4.320675958E0,-7.594610003E-1,-8.150316954E-1,-2.805475359E0,3.018567486E0
4.330715958E0,-7.722243758E-1,-7.055620243E-1,-3.005706242E0,3.182517600E0
4.340755958E0,-6.539778878E-1,-5.656400540E-1,-3.169844602E0,3.285658313E0
4.350795958E0,-4.994885665E-1,-3.479257035E-1,-3.289862212E0,3.345703887E0
4.360835958E0,-3.423211839E-1,-1.137308295E-1,-3.301614531E0,3.321261357E0
4.370875958E0,-1.268754799E-1,1.880254054E-1,-3.168997926E0,3.177105411E0
4.380915958E0,3.962354723E-2,5.352004726E-1,-3.004131002E0,3.051690130E0
4.390954958E0,1.138261848E-1,8.073946470E-1,-2.837305847E0,2.952142779E0
4.400994958E0,1.566400734E-1,1.034824731E0,-2.591032818E0,2.794431856E0
4.411034958E0,7.323585071E-2,1.182154685E0,-2.188358465E0,2.488325935E0
4.421074958E0,-5.480732275E-2,1.269173094E0,-1.739862991E0,2.154281183E0
4.431114958E0,-2.448286752E-1,1.378989798E0,-1.275901632E0,1.894592018E0
4.441154583E0,-4.474897162E-1,1.434250371E0,-9.152184731E-1,1.759245869E0
4.451194583E0,-7.397053052E-1,1.463824857E0,-6.670298964E-1,1.770558113E0
4.461234583E0,-1.052120430E0,1.435916097E0,-5.172534674E-1,1.853743128E0
4.471274583E0,-1.196582397E0,1.425452650E0,-2.675691730E-1,1.880244121E0
4.481314583E0,-1.040410795E0,1.424923185E0,2.061652225E-1,1.776334655E0
4.491354583E0,-7.125540517E-1,1.417857410E0,6.201106685E-1,1.703698962E0
4.501393583E0,-3.632822460E-1,1.421329194E0,9.576715976E-1,1.751937658E0
4.511433583E0,-4.339759603E-2,1.373178835E0,1.316834480E0,1.903038757E0
4.521473583E0,3.209024675E-1,1.151814652E0,1.637369487E0,2.027469907E0
4.531513583E0,6.069845099E-1,9.380534582E-1,2.060061198E0,2.343550005E0
4.541553583E0,7.039864189E-1,7.963302532E-1,2.631096185E0,2.837676142E0
4.551593583E0,5.843319945E-1,7.370715000E-1,3.065885201E0,3.206925372E0
4.561633583E0,5.046473821E-1,6.452190511E-1,3.230533438E0,3.332765053E0
4.571673583E0,5.245555434E-1,5.111138910E-1,3.196472822E0,3.279303955E0
4.581713583E0,5.232149962E-1,5.203343654E-1,3.136020214E0,3.221664875E0
4.591753583E0,5.566550763E-1,6.551053771E-1,3.016147615E0,3.136267585E0
4.601793583E0,5.477437735E-1,7.212689611E-1,2.805547280E0,2.948109173E0
4.611832583E0,5.269422307E-1,6.282801059E-1,2.558780161E0,2.686961094E0
4.621872583E0,5.231710690E-1,4.628419098E-1,2.476440255E0,2.573069556E0
4.631912583E0,5.742130955E-1,2.745030937E-1,2.681218518E0,2.755722295E0
4.641952583E0,6.665266704E-1,5.131677255E-2,3.107363595E0,3.178458703E0
4.651992583E0,7.643425483E-1,-2.181059678E-1,3.620327545E0,3.706556525E0
4.662032583E0,8.332636792E-1,-5.536835213E-1,4.081823133E0,4.202638920E0
4.672072583E0,8.572221337E-1,-8.601645988E-1,4.350894456E0,4.517188892E0
4.682112583E0,8.340879904E-1,-1.181082013E0,4.273228814E0,4.511224002E0
4.692152583E0,8.504088119E-1,-1.473620405E0,3.657919879E0,4.034244674E0
4.702192583E0,9.311624414E-1,-1.626743926E0,2.604239339E0,3.208647975E0
4.712232583E0,1.111075931E0,-1.653783060E0,1.373434358E0,2.419878111E0
4.722271583E0,1.366836652E0,-1.654342638E0,2.176473999E-1,2.156956743E0
4.732311583E0,1.640989498E0,-1.621114373E0,-6.858240169E-1,2.406493907E0
4.742351583E0,1.929889167E0,-1.617198785E0,-1.333590261E0,2.849257288E0
4.752391583E0,2.151969926E0,-1.639539388E0,-1.667405464E0,3.177940363E0
4.762431583E0,2.214175091E0,-1.548652461E0,-1.594714633E0,3.137516620E0
4.772471583E0,2.103524137E0,-1.341429916E0,-1.262791589E0,2.796227925E0
4.782511583E0,1.847240382E0,-1.137755899E0,-9.723872852E-1,2.377461366E0
4.792551583E0,1.548793233E0,-9.196608952E-1,-9.548146480E-1,2.038677918E0
4.802591583E0,1.278604215E0,-6.690603420E-1,-1.312625654E0,1.950757952E0
4.812631583E0,1.060979327E0,-4.131554872E-1,-1.860847730E0,2.181542771E0
4.822671583E0,8.454335622E-1,-1.802287281E-1,-2.393689290E0,2.544992872E0
4.832710583E0,5.764748716E-1,6.295843273E-3,-2.776820494E0,2.836035079E0
4.842750583E0,3.287583479E-1,1.428850468E-1,-3.012332307E0,3.033586016E0
4.852790583E0,1.274645047E-1,2.161176221E-1,-3.121769380E0,3.131836217E0
4.862830583E0,-6.089635732E-2,2.247416805E-1,-3.111832037E0,3.120531335E0
4.872870583E0,-2.998463150E-1,1.674858910E-1,-3.014677041E0,3.034178142E0
4.882910583E0,-5.268968051E-1,2.137245029E-2,-2.854415969E0,2.902717270E0
4.892950583E0,-6.751871277E-1,-1.552445988E-1,-2.735789997E0,2.822149084E0
4.902990583E0,-7.514166203E-1,-2.707067889E-1,-2.695695055E0,2.811526441E0
4.913030583E0,-6.537935543E-1,-2.951421569E-1,-2.721999924E0,2.814931347E0
4.923070583E0,-5.031498737E-1,-2.097406487E-1,-2.850386653E0,2.902043247E0
4.933110583E0,-3.619539779E-1,-7.291112468E-2,-3.033791004E0,3.056176462E0
4.943149583E0,-2.577009002E-1,5.609716371E-2,-3.174910045E0,3.185845326E0
4.953189583E0,-1.041520031E-1,1.638989165E-1,-3.247935922E0,3.253736044E0
4.963229583E0,6.756735429E-2,2.754788478E-1,-3.267165660E0,3.279455045E0
4.973269583E0,1.579783732E-1,3.741460803E-1,-3.169824137E0,3.195735833E0
4.983309583E0,9.374913032E-2,4.958377478E-1,-2.811476941E0,2.856404481E0
4.993349583E0,-1.866048883E-2,5.409291360E-1,-2.337706293E0,2.399546469E0
5.003389583E0,-1.980940275E-2,5.470983870E-1,-1.879883341E0,1.957976106E0
5.013429583E0,-2.795956256E-2,6.592400895E-1,-1.515730444E0,1.653123714E0
5.023469583E0,-3.106117699E-2,8.158810034E-1,-1.320658559E0,1.552664046E0
5.033509583E0,3.231310241E-2,9.642923999E-1,-1.093967271E0,1.458652926E0
5.043548583E0,1.141882371E-1,1.134442428E0,-6.705575216E-1,1.322741837E0
5.053588583E0,1.682061400E-1,1.312571275E0,3.588845551E-2,1.323791766E0
5.063628583E0,1.927529706E-1,1.372878142E0,8.607738787E-1,1.631833254E0
5.073668583E0,1.307588991E-1,1.281474467E0,1.629392715E0,2.077064110E0
5.083708583E0,4.115094046E-2,1.106752062E0,2.255254705E0,2.512522101E0
5.093748583E0,-2.466423856E-2,8.324613681E-1,2.594526529E0,2.724916176E0
5.103788583E0,-2.805758794E-2,6.393477157E-1,2.681793884E0,2.757094697E0
5.113828583E0,4.694616614E-2,5.862691770E-1,2.546356582E0,2.613397661E0
5.123868583E0,2.941501037E-1,5.691363966E-1,2.380666956E0,2.465363193E0
5.133908583E0,5.521174908E-1,6.326251718E-1,2.414837499E0,2.556655722E0
5.143948583E0,6.636506443E-1,7.278168194E-1,2.555724406E0,2.738955411E0
5.153988583E0,7.616788492E-1,7.526598845E-1,2.895940556E0,3.087575631E0
5.164027583E0,8.523158813E-1,6.281273474E-1,3.437435410E0,3.596796981E0
5.174067583E0,8.233699711E-1,4.037631047E-1,4.050838153E0,4.153342328E0
5.184107583E0,6.474722756E-1,2.081176078E-1,4.628416175E0,4.678116028E0
5.194147583E0,3.757888921E-1,6.681145549E-2,5.163898922E0,5.177985432E0
5.204187583E0,6.810402819E-3,-4.367972419E-2,5.487801924E0,5.487979980E0
5.214227583E0,-3.667141961E-1,-1.785152015E-1,5.465610572E0,5.480807048E0
5.224267583E0,-6.489561528E-1,-3.767783506E-1,5.144093233E0,5.198538372E0
5.234307583E0,-8.663033713E-1,-5.429981732E-1,4.519135807E0,4.633348356E0
5.244347583E0,-1.023643685E0,-6.271539322E-1,3.683765157E0,3.874441144E0
5.254387583E0,-1.158390577E0,-6.342476280E-1,2.680211627E0,2.987921209E0
5.264427583E0,-1.322118609E0,-6.444950196E-1,1.629603215E0,2.195217093E0
5.274466583E0,-1.522147471E0,-7.383384454E-1,5.461591780E-1,1.777741947E0
5.284506583E0,-1.773984710E0,-8.773324625E-1,-5.361417282E-1,2.050410192E0
5.294546583E0,-2.052961070E0,-9.735282232E-1,-1.425609064E0,2.682306388E0
5.304586583E0,-2.219679222E0,-1.120873818E0,-2.061569195E0,3.230077632E0
5.314626583E0,-2.258952338E0,-1.300418568E0,-2.353972077E0,3.512141606E0
5.324666583E0,-2.177457939E0,-1.428008030E0,-2.255210266E0,3.444779145E0
5.334706583E0,-1.990029681E0,-1.436038011E0,-1.886684822E0,3.095481048E0
5.344746583E0,-1.671296786E0,-1.379536659E0,-1.430980901E0,2.596932937E0
5.354786583E0,-1.366419892E0,-1.286651592E0,-1.138369857E0,2.195099444E0
5.364826583E0,-1.035447460E0,-1.185205762E0,-1.045576884E0,1.889469544E0
5.374865583E0,-6.821062110E-1,-1.063147767E0,-1.074749812E0,1.658505115E0
5.384905583E0,-3.697967751E-1,-9.092797485E-1,-1.109177633E0,1.481153043E0
5.394945583E0,-1.440287530E-1,-8.042921144E-1,-1.164232092E0,1.422345405E0
5.404985583E0,-1.059559239E-1,-7.734989226E-1,-1.312639688E0,1.527268867E0
5.415025583E0,-2.298365422E-1,-7.910813539E-1,-1.485606759E0,1.698723634E0
5.425065583E0,-4.194576162E-1,-8.527474058E-1,-1.719280207E0,1.964445790E0
5.435105583E0,-5.475226025E-1,-9.007365279E-1,-2.031037374E0,2.288278852E0
5.445145708E0,-5.865835380E-1,-9.147047952E-1,-2.397142071E0,2.631929941E0
5.455185708E0,-6.100004672E-1,-8.994540873E-1,-2.782061938E0,2.986802111E0
5.465225708E0,-5.880228301E-1,-8.707185307E-1,-3.212564360E0,3.380013517E0
5.475265708E0,-4.994995666E-1,-8.064761956E-1,-3.584965923E0,3.708353320E0
5.485304708E0,-3.442510208E-1,-6.253765248E-1,-3.839216893E0,3.905021244E0
5.495344708E0,-1.479540345E-1,-3.895355134E-1,-3.990353969E0,4.012050986E0
5.505384708E0,9.501824107E-2,-1.294927302E-1,-4.045285637E0,4.048472887E0
5.515424708E0,3.053386047E-1,1.354048499E-1,-4.051167936E0,4.064914240E0
5.525464708E0,4.600746419E-1,3.540989015E-1,-3.971518334E0,4.013728015E0
5.535504708E0,4.661591084E-1,5.794614100E-1,-3.622672278E0,3.698220420E0
5.545544708E0,4.667886708E-1,7.171266474E-1,-2.987906148E0,3.108013102E0
5.555584708E0,5.701275728E-1,7.821469545E-1,-2.255861646E0,2.454732383E0
5.565624708E0,6.078274226E-1,8.640084122E-1,-1.541255879E0,1.868538038E0
5.575664708E0,5.963440758E-1,9.818394555E-1,-8.608434606E-1,1.435509121E0
5.585704708E0,5.793477548E-1,1.049064455E0,-3.939701879E-1,1.261504087E0
5.595743708E0,4.356159581E-1,1.153893045E0,-4.109598577E-2,1.234066166E0
5.605783708E0,2.922149494E-1,1.237256214E0,1.606861639E-1,1.281410379E0
5.615823708E0,1.524602644E-1,1.306926373E0,1.493057281E-1,1.324232939E0
5.625863708E0,-7.453281339E-2,1.362886420E0,2.657512736E-1,1.390553225E0
5.635903708E0,-3.076571719E-1,1.285969952E0,5.953442019E-1,1.450105642E0
5.645943708E0,-5.010103409E-1,1.086124108E0,1.031663434E0,1.579558920E0
5.655983708E0,-6.513377237E-1,8.574590921E-1,1.464238109E0,1.817545093E0
5.666023708E0,-7.286092633E-1,6.654511482E-1,1.860106303E0,2.105633432E0
5.676063708E0,-6.237516566E-1,5.771584842E-1,2.215098367E0,2.372517401E0
5.686103708E0,-2.855477531E-1,6.232631949E-1,2.501343547E0,2.593590960E0
5.696143708E0,3.683088049E-2,8.757143918E-1,2.802147124E0,2.936028050E0
5.706182708E0,2.016845743E-1,1.334143408E0,2.821926500E0,3.127920151E0
5.716222708E0,5.297846719E-1,1.540044190E0,2.414589577E0,2.912499053E0
5.726262708E0,8.661104862E-1,1.433853930E0,2.192611145E0,2.759280359E0
5.736302708E0,1.105829810E0,1.387489895E0,2.312653897E0,2.914850910E0
5.746342708E0,1.329367110E0,1.390853360E0,2.593733647E0,3.229418556E0
5.756382708E0,1.481675968E0,1.365820406E0,3.083667169E0,3.683725324E0
5.766422708E0,1.527386869E0,1.286365663E0,3.628475640E0,4.141676319E0
5.776462708E0,1.551207402E0,9.954565975E-1,3.938682125E0,4.348608412E0
5.786502708E0,1.461896591E0,5.657492508E-1,3.877204499E0,4.182096195E0
5.796542708E0,1.290649187E0,4.155908525E-3,3.524423853E0,3.753312682E0
5.806581708E0,1.070587033E0,-6.152390608E-1,3.324260212E0,3.546178458E0
5.816621708E0,8.827051766E-1,-1.081710484E0,3.336716536E0,3.617035145E0
5.826661708E0,7.937812326E-1,-1.533003558E0,3.215707823E0,3.649789769E0
5.836701708E0,7.469774142E-1,-1.968638666E0,2.745431471E0,3.459899914E0
5.846741708E0,5.981434468E-1,-2.276521759E0,1.972195673E0,3.070811403E0
5.856781708E0,5.267745983E-1,-2.384819941E0,1.074728762E0,2.668313988E0
5.866821708E0,7.053480162E-1,-2.397146456E0,2.781707597E-1,2.514200852E0
5.876861708E0,1.108928249E0,-2.332371147E0,-2.691718948E-1,2.596561291E0
5.886901708E0,1.572084885E0,-2.107364003E0,-5.572314656E-1,2.687552945E0
5.896941708E0,1.884876424E0,-1.751852122E0,-6.944983613E-1,2.665346688E0
5.906981708E0,2.026088583E0,-1.416251764E0,-8.199147052E-1,2.604431632E0
5.917020708E0,1.925342811E0,-1.155858879E0,-1.041136508E0,2.475261586E0
5.927060708E0,1.612202778E0,-9.670367905E-1,-1.415841290E0,2.353500480E0
5.937100708E0,1.203769064E0,-8.529082042E-1,-1.929872357E0,2.429180865E0
5.947140708E0,8.048445301E-1,-7.543843746E-1,-2.465354519E0,2.700896778E0
5.957180708E0,4.206062652E-1,-6.350178525E-1,-2.915745660E0,3.013590891E0
5.967220708E0,1.314352118E-1,-5.212175873E-1,-3.200051318E0,3.244883885E0
5.977260708E0,-6.069130277E-2,-4.032681379E-1,-3.424931724E0,3.449125388E0
5.987300708E0,-1.647074586E-1,-2.508291793E-1,-3.593194710E0,3.605702712E0
5.997340708E0,-2.197279671E-1,-1.106106091E-1,-3.700607477E0,3.708774836E0
6.007380708E0,-2.710111365E-1,1.341497451E-2,-3.709468347E0,3.719379306E0
6.017419708E0,-3.272290817E-1,1.085816252E-1,-3.602829167E0,3.619288169E0
6.027459708E0,-3.073948146E-1,1.182207602E-1,-3.359549913E0,3.375654505E0
6.037499708E0,-1.803787457E-1,1.464040473E-1,-3.074058439E0,3.082824342E0
6.047539708E0,6.226092386E-2,1.650677750E-1,-2.824594000E0,2.830098065E0
6.057579708E0,2.933359886E-1,1.955431706E-1,-2.691419570E0,2.714410145E0
6.067619708E0,3.913893000E-1,2.018160635E-1,-2.683963201E0,2.719848116E0
6.077659708E0,3.698047420E-1,2.033404326E-1,-2.811801462E0,2.843295682E0
6.087699708E0,2.634639160E-1,2.160975954E-1,-3.008098923E0,3.027337202E0
6.097739708E0,2.354818645E-1,2.469551066E-1,-3.136673933E0,3.155180168E0
6.107779708E0,2.624460436E-1,2.741294566E-1,-3.047819644E0,3.071356291E0
6.117818708E0,2.669733965E-1,3.107426745E-1,-2.675129812E0,2.706317667E0
6.127858708E0,3.618034486E-1,2.736046690E-1,-2.198281775E0,2.244594398E0
6.137898708E0,4.524742118E-1,2.252109195E-1,-1.802302483E0,1.871829883E0
6.147938708E0,3.679601282E-1,2.637772536E-1,-1.530417480E0,1.595979561E0
6.157978708E0,1.586033674E-1,3.524426776E-1,-1.248480529E0,1.306933243E0
6.168018708E0,7.712647380E-2,4.480095702E-1,-8.559458327E-1,9.691771441E-1
6.178058708E0,4.355168387E-2,6.527223444E-1,-3.009140897E-1,7.200642314E-1
6.188098708E0,-3.746375022E-2,9.549016254E-1,2.423331749E-1,9.858833675E-1
6.198138708E0,-1.655413263E-1,1.268362524E0,7.845413893E-1,1.500550771E0
6.208178708E0,-2.242417618E-1,1.472114747E0,1.215558951E0,1.922235615E0
6.218218708E0,-1.944105832E-1,1.465488828E0,1.477736991E0,2.090253476E0
6.228257708E0,-1.715967942E-1,1.302483951E0,1.579384988E0,2.054353145E0
6.238297708E0,-1.578215216E-1,1.094503461E0,1.617903521E0,1.959708463E0
6.248337708E0,-7.181763140E-2,9.275300780E-1,1.718327111E0,1.954000481E0
6.258377708E0,-1.398318683E-2,8.805298662E-1,1.898748212E0,2.093029658E0
6.268417708E0,-3.559656068E-2,1.008167275E0,2.124087040E0,2.351470630E0
6.278457708E0,2.114913690E-2,1.099240875E0,2.478375683E0,2.711295597E0
6.288497708E0,1.374558887E-1,1.224670813E0,3.076937023E0,3.314551880E0
6.298537708E0,3.157428113E-1,1.353203723E0,3.789638352E0,4.036361316E0
6.308577708E0,5.102008483E-1,1.346356487E0,4.464849672E0,4.691253915E0
6.318617708E0,6.196621871E-1,1.160808255E0,5.095819205E0,5.262967832E0
6.328656708E0,5.641238710E-1,9.220173231E-1,5.684691124E0,5.786541701E0
6.338696708E0,3.537113407E-1,5.935056911E-1,6.075810794E0,6.114968318E0
6.348736708E0,2.016914813E-3,8.561610103E-2,6.091321703E0,6.091923693E0
6.358776708E0,-4.712526910E-1,-4.884101759E-1,5.746431289E0,5.786371589E0
6.368816708E0,-8.861162961E-1,-9.601212886E-1,5.228905342E0,5.389664744E0
6.378856708E0,-1.084021596E0,-1.240890405E0,4.544356602E0,4.833848234E0
6.388896708E0,-1.038539760E0,-1.353137357E0,3.657540979E0,4.035734327E0
6.398936708E0,-8.853872944E-1,-1.385409456E0,2.600609972E0,3.076758400E0
6.408976708E0,-6.855318754E-1,-1.360961224E0,1.457802663E0,2.108876007E0
6.419016708E0,-5.309724972E-1,-1.288519046E0,3.419299686E-1,1.434966630E0
6.429055708E0,-4.410256559E-1,-1.278669411E0,-7.680007857E-1,1.555417725E0
6.439096292E0,-4.225833184E-1,-1.311190163E0,-1.874437244E0,2.326222536E0
6.449136292E0,-5.099934914E-1,-1.333887008E0,-2.736415064E0,3.086634950E0
6.459176292E0,-6.041923183E-1,-1.408785162E0,-3.199242648E0,3.547517092E0
6.469216292E0,-6.075282644E-1,-1.562941740E0,-3.248545786E0,3.655807325E0
6.479256292E0,-5.096694095E-1,-1.681600749E0,-2.906192479E0,3.396100516E0
6.489296292E0,-3.330603272E-1,-1.639997810E0,-2.351062503E0,2.885830364E0
6.499336292E0,-1.363799828E-1,-1.517226454E0,-1.911446611E0,2.444218435E0
6.509376292E0,-2.594721132E-2,-1.457254487E0,-1.629208528E0,2.185997330E0
6.519416292E0,-4.269719096E-2,-1.483844700E0,-1.508110937E0,2.116132497E0
6.529455292E0,-1.578056062E-1,-1.518471911E0,-1.459260959E0,2.111895381E0
6.539495292E0,-3.312818234E-1,-1.586197871E0,-1.477670333E0,2.193007284E0
6.549535292E0,-4.644998147E-1,-1.573374635E0,-1.571623979E0,2.271842809E0
6.559575292E0,-5.756432879E-1,-1.476427507E0,-1.821004803E0,2.413972218E0
6.569615292E0,-6.639967263E-1,-1.284122525E0,-2.225473081E0,2.653788376E0
6.579655292E0,-6.205292561E-1,-1.046784041E0,-2.676947712E0,2.940554784E0
6.589695292E0,-5.267057839E-1,-7.743803903E-1,-3.006419018E0,3.148910809E0
6.599735292E0,-4.506301461E-1,-5.263606520E-1,-3.162753099E0,3.237766241E0
6.609775292E0,-3.598879373E-1,-2.812912725E-1,-3.089717867E0,3.123299635E0
6.619815292E0,-2.786269521E-1,-1.201748997E-2,-2.794914703E0,2.808794331E0
6.629854292E0,-1.811137590E-1,1.930089873E-1,-2.533869268E0,2.547655419E0
6.639894292E0,-2.004980098E-2,3.870438686E-1,-2.428210081E0,2.458944723E0
6.649934292E0,1.383845636E-1,5.541334645E-1,-2.431530131E0,2.497709543E0
6.659974292E0,3.069909547E-1,7.557812744E-1,-2.451888381E0,2.584028911E0
6.670014292E0,4.195425470E-1,9.511025432E-1,-2.443688831E0,2.655602963E0
6.680054292E0,3.905728825E-1,1.085183583E0,-2.314212765E0,2.585681981E0
6.690094292E0,1.858523791E-1,1.153257160E0,-1.999337863E0,2.315576619E0
6.700134292E0,-2.967555134E-2,1.084983316E0,-1.463835236E0,1.822329013E0
6.710174292E0,-2.139968735E-1,9.710216680E-1,-8.952069622E-1,1.337936189E0
6.720214292E0,-3.758377163E-1,8.628879395E-1,-5.250162309E-1,1.077715931E0
6.730254292E0,-4.679331536E-1,7.601728258E-1,-3.936146772E-1,9.755801737E-1
6.740293292E0,-5.676049012E-1,7.312560055E-1,-4.004453945E-1,1.008596641E0
6.750333292E0,-6.458197063E-1,7.397596112E-1,-3.942204487E-1,1.058176326E0
6.760373292E0,-6.581954844E-1,7.692778176E-1,-2.017131525E-1,1.032326427E0
6.770413292E0,-5.812131628E-1,8.620213822E-1,5.784533501E-2,1.041266386E0
6.780453292E0,-4.453487217E-1,9.638645299E-1,2.534194958E-1,1.091600548E0
6.790493292E0,-3.352864353E-1,1.060979180E0,4.311578947E-1,1.193310917E0
6.800533292E0,-2.211972993E-1,1.088536231E0,6.449601656E-1,1.284450461E0
6.810573292E0,-2.167425798E-1,1.101614406E0,1.054672228E0,1.540410709E0
6.820613292E0,-2.646485984E-1,1.121266167E0,1.635035863E0,2.000154737E0
6.830653292E0,-4.676490885E-1,1.395395038E0,2.297489144E0,2.728420669E0
6.840692292E0,-5.938810093E-1,1.887533545E0,2.666261340E0,3.320305268E0
6.850732292E0,-3.110044836E-1,2.090855705E0,2.513070722E0,3.283888826E0
6.860772292E0,2.588616091E-1,2.112297884E0,2.486394555E0,3.272761764E0
6.870812292E0,9.871023881E-1,1.974373030E0,2.701585540E0,3.488708130E0
6.880852292E0,1.625637341E0,1.832426023E0,2.998186723E0,3.871641192E0
6.890892292E0,1.986740914E0,1.669802384E0,3.367098668E0,4.251203701E0
6.900932292E0,2.018131692E0,1.310345386E0,3.859393296E0,4.548052019E0
6.910972292E0,1.755240876E0,7.211014384E-1,4.360738828E0,4.755722968E0
6.921012292E0,1.295644609E0,1.025367737E-2,4.644199564E0,4.821554695E0
6.931052292E0,7.648899939E-1,-7.496890604E-1,4.698919562E0,4.819433104E0
6.941091292E0,2.730126384E-1,-1.425453089E0,4.635939202E0,4.857816865E0
6.951131292E0,-8.181687266E-2,-1.964607303E0,4.306216466E0,4.733907066E0
6.961171292E0,-2.010846499E-1,-2.365805234E0,3.532409395E0,4.256217285E0
6.971211292E0,-1.926089647E-1,-2.573503450E0,2.335830506E0,3.480822083E0
6.981251292E0,-1.033679554E-1,-2.576070963E0,1.028092539E0,2.775572159E0
6.991291292E0,1.507775453E-1,-2.445485388E0,-1.528561574E-1,2.454892595E0
7.001331292E0,5.329313144E-1,-2.239445880E0,-9.952908289E-1,2.507934902E0
7.011371292E0,1.016718901E0,-1.966942242E0,-1.471706173E0,2.658664734E0
7.021411292E0,1.450479318E0,-1.617486615E0,-1.630701322E0,2.716494064E0
7.031451292E0,1.694638286E0,-1.230980690E0,-1.492305914E0,2.571787184E0
7.041491292E0,1.689854094E0,-8.574254707E-1,-1.301601899E0,2.298902521E0
7.051530292E0,1.447166140E0,-6.245501670E-1,-1.324528247E0,2.058817093E0
7.061570292E0,1.032364954E0,-5.283833501E-1,-1.596798581E0,1.973507555E0
7.071610292E0,5.752844515E-1,-4.861740544E-1,-2.033878536E0,2.168865904E0
7.081650292E0,1.754517721E-1,-4.623905048E-1,-2.468887407E0,2.517934338E0
7.091690292E0,-1.244577293E-1,-3.879764995E-1,-2.762204794E0,2.792094342E0
7.101730292E0,-3.347779102E-1,-2.696294394E-1,-2.902584162E0,2.934241146E0
7.111770292E0,-4.611425628E-1,-1.710959619E-1,-3.018977083E0,3.058782261E0
7.121810292E0,-5.938789628E-1,-7.193917125E-2,-3.061604455E0,3.119501451E0
7.131850292E0,-6.377374656E-1,1.708380997E-2,-3.066464075E0,3.132124336E0
7.141889292E0,-6.017491689E-1,1.028820518E-1,-3.064618694E0,3.124831919E0
7.151929292E0,-5.967836768E-1,2.117110142E-1,-3.064555544E0,3.129292731E0
7.161969292E0,-5.430968450E-1,2.698504642E-1,-3.065897480E0,3.125300116E0
7.172009292E0,-4.229173772E-1,2.513741398E-1,-3.034585056E0,3.074207951E0
7.182049292E0,-4.113906148E-1,2.739446846E-1,-2.871205080E0,2.913435521E0
7.192089292E0,-3.771579080E-1,3.126643619E-1,-2.646829289E0,2.691786094E0
7.202129292E0,-2.653401413E-1,2.629773545E-1,-2.475708768E0,2.503736485E0
7.212169292E0,-1.322223658E-1,2.216213138E-1,-2.342522644E0,2.356694953E0
7.222209292E0,-4.853547134E-2,1.852630346E-1,-2.353473310E0,2.361252783E0
7.232249292E0,-1.298026600E-2,9.904861718E-2,-2.476813307E0,2.478826996E0
7.242288292E0,-9.109220121E-2,4.952006936E-3,-2.589632410E0,2.591238763E0
7.252328292E0,-2.961532136E-1,-3.400521353E-2,-2.557938162E0,2.575249643E0
7.262368292E0,-4.494984906E-1,-3.699167892E-2,-2.449888049E0,2.491057753E0
7.272408292E0,-5.985125157E-1,7.342626438E-2,-2.272986386E0,2.351611312E0
7.282448292E0,-6.523121622E-1,3.035046986E-1,-2.096764171E0,2.216764815E0
7.292488292E0,-5.130193524E-1,5.738302490E-1,-1.945826485E0,2.092536910E0
7.302528292E0,-3.714209855E-1,8.980174264E-1,-1.695025957E0,1.953842839E0
7.312568292E0,-2.587089236E-1,1.220128842E0,-1.339051561E0,1.829946388E0
7.322608292E0,-1.746709679E-1,1.455927023E0,-8.646581841E-1,1.702312315E0
7.332648292E0,-3.487461775E-1,1.645152569E0,-2.909545273E-1,1.706694293E0
7.342687292E0,-6.479018267E-1,1.683808512E0,4.319987243E-1,1.855157885E0
7.352727292E0,-8.512045448E-1,1.494906170E0,1.158443933E0,2.073954190E0
7.362767292E0,-1.003065506E0,1.224598308E0,1.853328211E0,2.437336021E0
7.372807292E0,-1.209646393E0,9.124419227E-1,2.428548635E0,2.862454040E0
7.382847292E0,-1.397391570E0,6.462347125E-1,2.861205756E0,3.249126172E0
7.392887292E0,-1.457792138E0,5.737733848E-1,3.184867854E0,3.549331917E0
7.402927292E0,-1.257483341E0,6.297250991E-1,3.288012738E0,3.576149580E0
7.412967292E0,-8.756080455E-1,7.836096355E-1,3.258732805E0,3.464112153E0
7.423007292E0,-4.116508524E-1,9.863685626E-1,3.294394389E0,3.463439584E0
7.433047292E0,1.371004511E-1,1.023775394E0,3.503020120E0,3.652131234E0
7.443086542E0,6.571728064E-1,7.494883548E-1,3.904940767E0,4.030157724E0
7.453125542E0,8.536475846E-1,3.192875031E-1,4.537467998E0,4.628096211E0
7.463165542E0,6.457449351E-1,9.001203775E-3,5.369768275E0,5.408463633E0
7.473205542E0,2.631536115E-1,-2.676643364E-1,6.099270993E0,6.110810148E0
7.483245542E0,-1.622894704E-1,-6.030999488E-1,6.309526927E0,6.340362566E0
7.493285542E0,-5.242419500E-1,-9.394241917E-1,5.730787649E0,5.830889684E0
7.503325542E0,-6.949253543E-1,-1.308541959E0,4.473902916E0,4.712855887E0
7.513365542E0,-7.507063298E-1,-1.313818925E0,3.112805598E0,3.461103705E0
7.523405542E0,-8.482225379E-1,-1.129110645E0,1.550174053E0,2.097000695E0
7.533445542E0,-6.680110592E-1,-1.055133719E0,9.655507207E-2,1.252544938E0
7.543484542E0,-3.213529224E-1,-1.046320357E0,-1.011298167E0,1.490227490E0
7.553524542E0,-1.595015180E-1,-9.808774424E-1,-1.694030761E0,1.964001402E0
7.563564542E0,-3.432615989E-1,-6.551182410E-1,-2.136327601E0,2.260730867E0
7.573604542E0,-3.335437823E-1,-4.773545529E-1,-2.254440773E0,2.328437678E0
7.583644542E0,-1.727211772E-1,-3.517357492E-1,-2.080198424E0,2.116784383E0
7.593684542E0,4.832555629E-2,-2.597825821E-1,-1.793843901E0,1.813201117E0
7.603724542E0,2.215484795E-1,-2.506733510E-1,-1.422021797E0,1.460844567E0
7.613764542E0,2.772080522E-1,-2.838185853E-1,-1.149334556E0,1.215881250E0
7.623804542E0,1.670917521E-1,-3.714898364E-1,-9.371145415E-1,1.021816038E0
7.633844542E0,-4.908764035E-2,-4.548818028E-1,-8.308244401E-1,9.484705063E-1
7.643883542E0,-3.016621861E-1,-5.298252735E-1,-7.505409998E-1,9.669677798E-1
7.653923542E0,-5.004922410E-1,-6.204506841E-1,-7.329484820E-1,1.082896584E0
7.663963542E0,-6.825899220E-1,-6.597965983E-1,-8.735997462E-1,1.290130640E0
7.674003542E0,-8.421409220E-1,-6.585555267E-1,-1.109959406E0,1.541073196E0
7.684043542E0,-9.107463764E-1,-6.369380781E-1,-1.449362792E0,1.826417691E0
7.694083542E0,-8.882599584E-1,-5.163186438E-1,-1.839339917E0,2.106836972E0
7.704123542E0,-7.795119799E-1,-3.152899079E-1,-2.141749139E0,2.300898961E0
7.714163542E0,-5.971664501E-1,-1.416691183E-1,-2.481590483E0,2.556358588E0
7.724203542E0,-3.588044482E-1,-3.354123697E-2,-2.802416680E0,2.825491974E0
7.734243542E0,-1.303561721E-1,4.955076724E-2,-3.116729665E0,3.119848043E0
7.744283542E0,3.579527008E-2,1.777914624E-1,-3.315225095E0,3.320182003E0
7.754322542E0,1.399645361E-1,3.123974365E-1,-3.410801343E0,3.427936410E0
7.764362542E0,1.730948143E-1,4.383156176E-1,-3.479542964E0,3.511310529E0
7.774402542E0,1.828230097E-1,5.643580520E-1,-3.552612695E0,3.601802496E0
7.784442542E0,1.898224558E-1,6.498776740E-1,-3.560191271E0,3.623994404E0
7.794482542E0,2.435732597E-1,6.839146087E-1,-3.398070200E0,3.474758727E0
7.804522542E0,3.268762388E-1,7.704170014E-1,-3.009342626E0,3.123545017E0
7.814562542E0,3.021503372E-1,8.638613547E-1,-2.516023566E0,2.677298237E0
7.824602542E0,1.441192478E-1,9.724257307E-1,-1.793785429E0,2.045494641E0
7.834642542E0,6.198636968E-2,1.016417111E0,-9.631960469E-1,1.401674955E0
7.844681542E0,2.113646398E-1,9.241318224E-1,-1.236884916E-1,9.560300618E-1
7.854721542E0,4.659362563E-1,7.383396149E-1,6.989194411E-1,1.118360571E0
7.864761542E0,6.256131177E-1,6.498953618E-1,1.441857891E0,1.700796852E0
7.874801542E0,6.891206771E-1,6.275682074E-1,1.961884108E0,2.172030943E0
7.884841542E0,6.963837960E-1,5.938237797E-1,2.226167731E0,2.406948242E0
7.894881542E0,6.133134265E-1,5.184828445E-1,2.267911003E0,2.405909004E0
7.904921542E0,5.025765176E-1,3.952524823E-1,2.186428299E0,2.277998329E0
7.914961542E0,4.890926190E-1,2.345135473E-1,2.178637469E0,2.245143518E0
7.925001542E0,5.498046977E-1,-4.411724210E-3,2.228860373E0,2.295674897E0
7.935041542E0,5.402104401E-1,-2.369331251E-1,2.275991271E0,2.351191377E0
7.945080542E0,3.458835635E-1,-3.093250170E-1,2.340616452E0,2.386169060E0
7.955120542E0,1.172857174E-1,-2.730931838E-1,2.292881538E0,2.312064353E0
7.965160542E0,7.105207555E-2,-3.091039923E-1,2.100054983E0,2.123870196E0
7.975200542E0,1.473974527E-1,-2.923911881E-1,1.816695405E0,1.845968800E0
7.985240542E0,1.697580824E-1,-1.252093524E-1,1.554102797E0,1.568352859E0
7.995280542E0,2.045470787E-1,9.555388257E-2,1.385842150E0,1.404111291E0
8.005320542E0,3.653568016E-1,2.057279970E-1,1.417518271E0,1.478231257E0
8.015360542E0,5.681299812E-1,1.790838432E-1,1.692122814E0,1.793912572E0
8.025400542E0,7.448165026E-1,5.893993378E-2,2.233794254E0,2.355432510E0
8.035440542E0,8.670613166E-1,-1.935267583E-1,2.931040807E0,3.062719077E0
8.045479542E0,8.856742465E-1,-5.115699738E-1,3.541942695E0,3.686662551E0
8.055519542E0,8.283998922E-1,-7.952891564E-1,4.052756624E0,4.212311418E0
8.065559542E0,7.894015950E-1,-1.029572031E0,4.379855715E0,4.567965579E0
8.075599542E0,8.435017884E-1,-1.280945586E0,4.405400446E0,4.664747576E0
8.085639542E0,9.542083649E-1,-1.471285758E0,4.143218898E0,4.499050813E0
8.095679542E0,1.105268769E0,-1.515826777E0,3.584178303E0,4.045452259E0
8.105719542E0,1.258616385E0,-1.456183423E0,2.681820197E0,3.301021801E0
8.115759542E0,1.329909878E0,-1.288935952E0,1.617473166E0,2.458909436E0
8.125799542E0,1.353854957E0,-1.130903547E0,6.907345086E-1,1.894460408E0
8.135839542E0,1.365411832E0,-9.908875832E-1,-3.909097552E-2,1.687523564E0
8.145878542E0,1.308367858E0,-8.607806030E-1,-5.233386648E-1,1.651258022E0
8.155918542E0,1.136204633E0,-7.522950183E-1,-8.249596828E-1,1.592942950E0
8.165958542E0,8.520618197E-1,-6.509440599E-1,-1.073126040E0,1.517015824E0
8.175998542E0,5.690743065E-1,-5.709323689E-1,-1.363982919E0,1.584379607E0
8.186038542E0,2.778742145E-1,-5.111201768E-1,-1.770369669E0,1.863509238E0
8.196078542E0,1.838602144E-2,-4.160811415E-1,-2.294231660E0,2.331729073E0
8.206118542E0,-2.101674224E-1,-3.085552311E-1,-2.850528156E0,2.874871726E0
8.216158542E0,-3.929412972E-1,-2.109479526E-1,-3.419699636E0,3.448658797E0
8.226198542E0,-4.771238802E-1,-1.167605643E-1,-3.916968489E0,3.947647701E0
8.236238542E0,-4.797804165E-1,-3.038037837E-2,-4.276893849E0,4.303827739E0
8.246277542E0,-4.710141611E-1,9.234200701E-2,-4.538681880E0,4.563991081E0
8.256317542E0,-4.588730391E-1,1.924349369E-1,-4.689863394E0,4.716186418E0
8.266357542E0,-4.367266733E-1,2.723940030E-1,-4.749673979E0,4.777481720E0
8.276397542E0,-3.951337473E-1,3.068826351E-1,-4.638090393E0,4.664996262E0
8.286437542E0,-4.110323632E-1,3.050925100E-1,-4.444722971E0,4.474102294E0
8.296477542E0,-4.116804174E-1,3.829246514E-1,-4.243189328E0,4.280276595E0
8.306517542E0,-3.416167040E-1,5.001051919E-1,-4.117524478E0,4.161828324E0
8.316557542E0,-1.856601336E-1,5.940674624E-1,-4.098087748E0,4.145082512E0
8.326597542E0,-5.136452786E-2,6.355014172E-1,-4.083680209E0,4.133151874E0
8.336637542E0,1.081521107E-2,6.239365017E-1,-4.018505974E0,4.066669889E0
8.346676542E0,-5.115060199E-2,6.499038403E-1,-3.809338206E0,3.864718483E0
8.356716542E0,-1.961862181E-1,6.994144079E-1,-3.433027194E0,3.509037655E0
8.366756542E0,-3.884328016E-1,6.848574722E-1,-2.898520347E0,3.003552897E0
8.376796542E0,-5.395592064E-1,6.162889284E-1,-2.179106416E0,2.327969276E0
8.386836542E0,-5.801027034E-1,4.913342223E-1,-1.369086369E0,1.565990405E0
8.396876542E0,-5.439551432E-1,4.342803079E-1,-4.522359377E-1,8.300626042E-1
8.406916542E0,-4.792390374E-1,5.118466933E-1,4.135004729E-1,8.140268629E-1
8.416956542E0,-5.286071157E-1,6.988160916E-1,1.074993056E0,1.386859576E0
8.426996542E0,-6.647722133E-1,8.981327628E-1,1.686780213E0,2.023312147E0
8.437036542E0,-6.767677031E-1,1.005789505E0,2.141903506E0,2.461174045E0
8.447075583E0,-4.594206309E-1,1.046340676E0,2.441697854E0,2.695882886E0
8.457115583E0,-1.828495963E-1,1.077818869E0,2.571308990E0,2.794057518E0
8.467155583E0,9.488011887E-2,1.094863503E0,2.515261674E0,2.744862404E0
8.477195583E0,3.066684077E-1,1.078695513E0,2.506782042E0,2.746194772E0
8.487235583E0,4.143287310E-1,1.013772270E0,2.745502222E0,2.955872961E0
8.497275583E0,4.052481147E-1,9.173518297E-1,3.249494205E0,3.400731245E0
8.507315583E0,3.365250948E-1,8.635486749E-1,3.789820785E0,3.901500613E0
8.517355583E0,2.780181473E-1,8.868528990E-1,4.107125205E0,4.210971337E0
8.527395583E0,2.536497848E-1,1.057897405E0,4.186193594E0,4.325240102E0
8.537435583E0,3.230257011E-1,1.355698876E0,4.225519043E0,4.449413020E0
8.547474583E0,4.529587267E-1,1.530349507E0,4.318161743E0,4.603657465E0
8.557514583E0,5.496758397E-1,1.470492876E0,4.516641385E0,4.781688219E0
8.567554583E0,5.533133925E-1,1.185691081E0,4.739279383E0,4.916582972E0
8.577594583E0,3.382481962E-1,7.453372702E-1,4.780307541E0,4.849874192E0
8.587634583E0,-1.159755391E-1,2.885712022E-1,4.549686339E0,4.560303658E0
8.597674583E0,-6.581349657E-1,-1.351288614E-1,4.207511373E0,4.260816048E0
8.607714583E0,-1.090690784E0,-5.438550827E-1,3.909465342E0,4.095034066E0
8.617754583E0,-1.303903363E0,-1.001522060E0,3.593591151E0,3.951848653E0
8.627794583E0,-1.373831969E0,-1.411963124E0,3.125249643E0,3.694352375E0
8.637833583E0,-1.371441920E0,-1.684044155E0,2.459035433E0,3.280809795E0
8.647873583E0,-1.305850486E0,-1.826290832E0,1.564295663E0,2.736348774E0
8.657913583E0,-1.184907993E0,-1.814500945E0,5.479191899E-1,2.235315653E0
8.667953583E0,-9.921910737E-1,-1.626325558E0,-4.085513896E-1,1.948407603E0
8.677993583E0,-6.545273068E-1,-1.357480523E0,-1.092808353E0,1.861555656E0
8.688033583E0,-1.804019884E-1,-1.131858398E0,-1.479611608E0,1.871603276E0
8.698073583E0,4.165305366E-1,-9.363973805E-1,-1.649963220E0,1.942348158E0
8.708113583E0,9.753643951E-1,-8.216188762E-1,-1.648846402E0,2.084487404E0
8.718153583E0,1.365291380E0,-8.032752836E-1,-1.466026188E0,2.158356902E0
8.728193583E0,1.572517726E0,-9.022695217E-1,-1.140093032E0,2.141661600E0
8.738232583E0,1.589363846E0,-1.088511819E0,-7.867481285E-1,2.080843106E0
8.748272583E0,1.443453158E0,-1.349230978E0,-5.568975896E-1,2.052831259E0
8.758312583E0,1.114746667E0,-1.594210019E0,-5.230492276E-1,2.014384822E0
8.768352583E0,6.768970728E-1,-1.758410651E0,-7.532757425E-1,2.029192453E0
8.778392583E0,3.061318526E-1,-1.881848882E0,-1.227566208E0,2.267595802E0
8.788432583E0,8.053739224E-2,-1.905402344E0,-1.817753166E0,2.634629184E0
8.798472583E0,-4.001691867E-2,-1.808998422E0,-2.462586447E0,3.055880995E0
8.808512583E0,-1.023648290E-1,-1.706444692E0,-3.166999347E0,3.598932746E0
8.818552583E0,-1.522567813E-1,-1.586032687E0,-3.826333723E0,4.144817435E0
8.828592583E0,-2.389034906E-1,-1.383295395E0,-4.400178298E0,4.618674061E0
8.838631583E0,-3.243968732E-1,-1.168798183E0,-4.819244151E0,4.969550956E0
8.848671583E0,-3.601761319E-1,-9.704609200E-1,-5.025788273E0,5.131283368E0
8.858711583E0,-1.816525251E-1,-7.484532514E-1,-4.913734571E0,4.973727711E0
8.868751583E0,1.862499349E-1,-5.509489247E-1,-4.588275624E0,4.624987239E0
8.878791583E0,4.342636799E-1,-3.355144036E-1,-4.268053443E0,4.303188940E0
8.888831583E0,5.035063345E-1,-3.699474871E-2,-4.005526909E0,4.037218481E0
8.898871583E0,4.038512515E-1,3.201268709E-1,-3.768086100E0,3.803163144E0
8.908911583E0,2.438714312E-1,6.344541809E-1,-3.517415380E0,3.582487451E0
8.918951583E0,2.592214686E-1,8.286688641E-1,-3.242194541E0,3.356443549E0
8.928990583E0,3.724847767E-1,8.692274907E-1,-2.988845796E0,3.134884453E0
8.939030583E0,4.102138626E-1,1.018652794E0,-2.810902160E0,3.017797190E0
8.949070583E0,3.019661865E-1,1.316155911E0,-2.657080042E0,2.980524167E0
8.959110583E0,1.686428357E-1,1.614769413E0,-2.564242630E0,3.035005919E0
8.969150583E0,4.635367418E-2,1.827528541E0,-2.298458027E0,2.936821161E0
8.979190583E0,-1.145660129E-1,1.803183659E0,-1.543095998E0,2.376077006E0
8.989230583E0,-1.307593924E-1,1.578320795E0,-2.732210916E-1,1.607122993E0
8.999270583E0,1.178468216E-1,1.294271537E0,1.167862628E0,1.747263518E0
9.009310583E0,4.360204758E-1,1.038800253E0,2.618577297E0,2.850643240E0
9.019350583E0,6.461608914E-1,8.757635084E-1,3.631854746E0,3.791418536E0
9.029389583E0,7.031178150E-1,8.299625605E-1,3.978908629E0,4.124915320E0
9.039429583E0,5.550346667E-1,8.850544417E-1,3.818505471E0,3.958834282E0
9.049469583E0,2.793463789E-1,9.132263267E-1,3.282620435E0,3.418715204E0
9.059509583E0,-1.090302346E-1,8.508979315E-1,2.568101208E0,2.707592786E0
9.069549583E0,-4.734779586E-1,9.996285859E-1,1.923150398E0,2.218545951E0
9.079589583E0,-6.234783724E-1,1.334878403E0,1.451415165E0,2.068146903E0
9.089629583E0,-3.299040002E-1,1.516400827E0,1.237815793E0,1.985068275E0
9.099669583E0,1.973696215E-1,1.432363328E0,1.337441822E0,1.969611662E0
9.109709583E0,6.365484343E-1,1.196354502E0,1.834836976E0,2.281027122E0
9.119749583E0,9.017755050E-1,8.374472889E-1,2.664896016E0,2.935334359E0
9.129788583E0,9.920153649E-1,3.857399395E-1,3.575687562E0,3.730741391E0
9.139828583E0,9.496777229E-1,-1.105451202E-1,4.363060758E0,4.466587867E0
9.149868583E0,7.894589708E-1,-5.453939237E-1,5.058311071E0,5.148515406E0
9.159908583E0,5.439061727E-1,-1.023398395E0,5.695520752E0,5.812240088E0
9.169948583E0,3.034630372E-1,-1.515889196E0,6.227209826E0,6.416241274E0
9.179988583E0,1.316207695E-1,-1.869320784E0,6.601252118E0,6.862085233E0
9.190028583E0,9.682059048E-2,-2.131224151E0,6.567010823E0,6.904862182E0
9.200068583E0,2.675666514E-1,-2.310217947E0,5.922521943E0,6.362779663E0
9.210108583E0,5.644890296E-1,-2.204270200E0,4.620655165E0,5.150525132E0
9.220148583E0,8.724816124E-1,-1.856030209E0,2.924419420E0,3.571876432E0
9.230187583E0,1.255219299E0,-1.523059783E0,1.168591191E0,2.293663437E0
9.240227583E0,1.619949169E0,-1.251159577E0,-3.441969341E-1,2.075598017E0
9.250267583E0,1.875745705E0,-9.810543206E-1,-1.491944556E0,2.589746722E0
9.260307583E0,2.031407648E0,-7.765976545E-1,-2.144134219E0,3.054019073E0
9.270347583E0,2.030011918E0,-6.862689900E-1,-2.373382494E0,3.197633184E0
9.280387583E0,1.822488095E0,-7.020789841E-1,-2.393513288E0,3.089220552E0
9.290427583E0,1.506074352E0,-7.043936044E-1,-2.396886547E0,2.917103945E0
9.300467583E0,1.140495393E0,-7.348385945E-1,-2.519892669E0,2.861918336E0
9.310507583E0,7.201935120E-1,-7.463587788E-1,-2.828242663E0,3.012422062E0
9.320547583E0,2.669849630E-1,-7.502132633E-1,-3.298031357E0,3.392802933E0
9.330586583E0,-1.462110709E-1,-7.202407283E-1,-3.803191613E0,3.873550158E0
9.340626583E0,-4.098286407E-1,-6.586417732E-1,-4.238623822E0,4.309025459E0
9.350666583E0,-5.740612140E-1,-5.764980412E-1,-4.489303313E0,4.562427041E0
9.360706583E0,-6.277504943E-1,-5.188289997E-1,-4.549375268E0,4.621695527E0
9.370746583E0,-6.099599387E-1,-4.567184132E-1,-4.497043272E0,4.561144706E0
9.380786583E0,-5.123185271E-1,-3.843526876E-1,-4.369666357E0,4.416353851E0
9.390826583E0,-4.274889862E-1,-2.963263643E-1,-4.245334672E0,4.277081087E0
9.400866583E0,-3.165296638E-1,-2.291851258E-1,-4.097863800E0,4.116455341E0
9.410906583E0,-2.741301144E-1,-1.626230541E-1,-3.869696090E0,3.882800716E0
9.420945583E0,-2.107979715E-1,-1.766809300E-1,-3.621796365E0,3.632225330E0
9.430985583E0,-1.123176306E-1,-2.149734682E-1,-3.345524781E0,3.354305428E0
9.441026042E0,-1.313551415E-2,-2.217001051E-1,-2.946687956E0,2.955045412E0
9.451066042E0,1.515754710E-1,-2.260162273E-1,-2.512455010E0,2.527150300E0
9.461106042E0,3.256515760E-1,-2.411926755E-1,-2.142761292E0,2.180745013E0
9.471146042E0,4.144893833E-1,-1.895168839E-1,-1.828095721E0,1.884052033E0
9.481186042E0,3.637724254E-1,-1.176211283E-2,-1.611169283E0,1.651767291E0
9.491226042E0,2.696670809E-1,2.548128873E-1,-1.584000780E0,1.626870743E0
9.501266042E0,1.567492701E-1,5.940046048E-1,-1.577909735E0,1.693284069E0
9.511306042E0,8.699282795E-2,9.698186034E-1,-1.421594950E0,1.723092591E0
9.521345042E0,1.276677046E-1,1.239007163E0,-1.158021179E0,1.700720684E0
9.531385042E0,1.740767628E-1,1.461820870E0,-7.772101504E-1,1.664715770E0
9.541425042E0,1.892551845E-1,1.614325317E0,-2.863410741E-1,1.650410545E0
9.551465042E0,1.398952558E-1,1.717228712E0,2.096992797E-1,1.735632138E0
9.561505042E0,1.023553638E-1,1.742510610E0,5.937870884E-1,1.843746987E0
9.571545042E0,9.707112540E-2,1.691538970E0,9.044847393E-1,1.920629983E0
9.581585042E0,3.961945418E-2,1.550460859E0,1.175579783E0,1.946146552E0
9.591625042E0,-2.572928376E-2,1.370515721E0,1.416394436E0,1.971078014E0
9.601665042E0,-5.301571760E-2,1.169907692E0,1.856988568E0,2.195427342E0
9.611705042E0,-1.700824567E-1,9.877151763E-1,2.440272303E0,2.638074719E0
9.621744042E0,-4.577189815E-1,9.306102450E-1,3.042545455E0,3.214440066E0
9.631784042E0,-7.645816264E-1,1.067037627E0,3.459799840E0,3.700455282E0
9.641824042E0,-7.181254980E-1,1.266927179E0,3.533014582E0,3.821387280E0
9.651864042E0,-3.239509865E-1,1.532574372E0,3.219831864E0,3.580648779E0
9.661904042E0,1.961726964E-1,1.763713784E0,2.964157682E0,3.454764942E0
9.671944042E0,6.283838940E-1,1.747545940E0,3.093648366E0,3.608246574E0
9.681984042E0,8.631843933E-1,1.525913224E0,3.672040320E0,4.069075887E0
9.692024042E0,7.387107669E-1,1.144370416E0,4.345571736E0,4.554038972E0
9.702064042E0,2.961179110E-1,6.314677155E-1,4.844631007E0,4.894577294E0
9.712104042E0,-3.149240184E-1,3.416645050E-2,5.183541473E0,5.193211597E0
9.722143042E0,-9.187437594E-1,-5.752117999E-1,5.379893898E0,5.488006657E0
9.732183042E0,-1.385930150E0,-1.121888895E0,5.245045411E0,5.539850038E0
9.742223042E0,-1.605240206E0,-1.557657173E0,4.745003223E0,5.245774259E0
9.752263042E0,-1.646575051E0,-1.828751048E0,3.850554060E0,4.569716223E0
9.762303042E0,-1.547531111E0,-1.861269899E0,2.741619086E0,3.657274038E0
9.772343042E0,-1.400865109E0,-1.675059616E0,1.621223570E0,2.719671604E0
9.782383042E0,-1.218888063E0,-1.427596532E0,6.468149024E-1,1.985469589E0
9.792423042E0,-9.464033552E-1,-1.234086000E0,-1.391040909E-1,1.561408823E0
9.802463042E0,-6.384028056E-1,-1.113043520E0,-7.192806154E-1,1.470982196E0
9.812503042E0,-3.400930658E-1,-1.040460716E0,-1.114072922E0,1.561851552E0
9.822542042E0,-1.042837024E-1,-1.021207735E0,-1.368123917E0,1.710410296E0
9.832582042E0,5.862169906E-2,-1.093208010E0,-1.461349584E0,1.825947114E0
9.842622042E0,1.100426251E-1,-1.210876793E0,-1.410095816E0,1.861908214E0
9.852662042E0,1.657316167E-1,-1.406929548E0,-1.361339977E0,1.964730072E0
9.862702042E0,1.705652540E-1,-1.592266696E0,-1.351061742E0,2.095178648E0
9.872742042E0,4.750182979E-2,-1.679469732E0,-1.324315408E0,2.139319121E0
9.882782042E0,-1.176126863E-1,-1.719879839E0,-1.366910035E0,2.200059647E0
9.892822042E0,-2.916458509E-1,-1.758050024E0,-1.521113976E0,2.342986325E0
9.902862042E0,-4.283720619E-1,-1.789067895E0,-1.848934028E0,2.608222306E0
9.912901042E0,-5.684089665E-1,-1.813837870E0,-2.342413301E0,3.016620070E0
9.922941042E0,-6.472929123E-1,-1.810202218E0,-2.880261247E0,3.462907021E0
9.932981042E0,-6.541344470E-1,-1.724163802E0,-3.341111888E0,3.816236541E0
9.943021042E0,-6.006076096E-1,-1.557878929E0,-3.609154100E0,3.976645518E0
9.953061042E0,-4.837601046E-1,-1.393959839E0,-3.735552776E0,4.016404165E0
9.963101042E0,-3.521681874E-1,-1.237097170E0,-3.673512649E0,3.892187948E0
9.973141042E0,-1.779835800E-1,-1.101124848E0,-3.452790198E0,3.628486494E0
9.983181042E0,1.389327675E-2,-9.653510383E-1,-3.251423786E0,3.391732932E0
9.993221042E0,1.937478196E-1,-8.178140929E-1,-3.091856779E0,3.204050007E0
1.000326104E1,3.373421336E-1,-5.972790456E-1,-2.981262542E0,3.059161375E0
1.001330004E1,4.759404769E-1,-3.262410119E-1,-2.912288201E0,2.968901329E0
1.002334004E1,5.856640633E-1,-7.284256607E-2,-2.928009025E0,2.986895594E0
1.003338004E1,5.674310562E-1,1.919471329E-1,-2.987829550E0,3.047285206E0
1.004342004E1,4.887352080E-1,4.629746416E-1,-2.999300033E0,3.073923927E0
1.005346004E1,4.283865338E-1,7.463324663E-1,-3.019933103E0,3.140146990E0
1.006350004E1,3.377235547E-1,1.033337199E0,-3.102739617E0,3.287679439E0
1.007354004E1,1.744534514E-1,1.336016271E0,-3.044300789E0,3.329135140E0
1.008358004E1,7.443986094E-2,1.544758069E0,-2.693435106E0,3.105867263E0
1.009362004E1,1.106327737E-1,1.578381606E0,-2.071845092E0,2.606927346E0
1.010366004E1,1.081315723E-1,1.489525270E0,-1.333898410E0,2.002414276E0
1.011369904E1,3.949383041E-3,1.450056565E0,-4.889032423E-1,1.530263382E0
1.012373904E1,-1.535581522E-1,1.412398449E0,4.589391857E-1,1.493008594E0
1.013377904E1,-2.475376902E-1,1.421740984E0,1.385684275E0,2.000685694E0
1.014381904E1,-2.955173289E-1,1.465849309E0,2.189143161E0,2.651111554E0
1.015385904E1,-2.412207422E-1,1.366830367E0,2.683755040E0,3.021415862E0
1.016389904E1,-1.873369689E-1,1.139697614E0,2.702781880E0,2.939223653E0
1.017393904E1,-3.597016669E-1,1.040876599E0,2.564480612E0,2.790944319E0
1.018397904E1,-7.434109781E-1,1.193712584E0,2.506657496E0,2.874185349E0
1.019401904E1,-7.434405796E-1,1.312321307E0,2.528756463E0,2.944401528E0
1.020405904E1,-3.711151761E-1,1.299601566E0,2.865475978E0,3.168223995E0
1.021409804E1,-4.261829923E-2,1.300702743E0,3.435904609E0,3.674110018E0
1.022413804E1,2.596240312E-1,1.226515317E0,4.025208637E0,4.215928016E0
1.023417804E1,5.612984964E-1,1.024254865E0,4.580695294E0,4.727253262E0
1.024421804E1,8.957251717E-1,7.639866722E-1,5.153497310E0,5.286258955E0
1.025425804E1,1.159087419E0,5.172970292E-1,5.777081809E0,5.914875661E0
1.026429804E1,1.283951640E0,1.280076836E-1,6.243331184E0,6.375272704E0
1.027433804E1,1.273296259E0,-4.390365793E-1,6.492929524E0,6.631151505E0
1.028437804E1,1.116319057E0,-1.026985954E0,6.531835728E0,6.705650331E0
1.029441804E1,8.532127710E-1,-1.495636926E0,6.231654879E0,6.465170096E0
1.030445804E1,6.209617308E-1,-1.778353457E0,5.367125918E0,5.688073058E0
1.031449704E1,5.106566022E-1,-1.913786959E0,4.001629155E0,4.465018095E0
1.032453704E1,5.903526897E-1,-1.895973416E0,2.424143343E0,3.133640445E0
1.033457704E1,8.375159206E-1,-1.762891519E0,9.425670701E-1,2.167406770E0
1.034461704E1,1.228816635E0,-1.630568590E0,-3.474164110E-1,2.071096911E0
1.035465704E1,1.601777631E0,-1.503643665E0,-1.400748457E0,2.605519543E0
1.036469704E1,1.849690073E0,-1.318161506E0,-2.170117491E0,3.141387121E0
1.037473704E1,1.953704731E0,-1.125090830E0,-2.599649860E0,3.441071191E0
1.038477704E1,1.948486529E0,-9.816793880E-1,-2.720657988E0,3.487445205E0
1.039481704E1,1.784689647E0,-9.504248509E-1,-2.639765852E0,3.325174926E0
1.040485704E1,1.478144542E0,-1.001558752E0,-2.488516510E0,3.062800294E0
1.041489604E1,1.075859175E0,-1.022749061E0,-2.501165206E0,2.908490329E0
1.042493604E1,6.702914002E-1,-1.011593451E0,-2.715022441E0,2.973879407E0
1.043497604E1,2.763111989E-1,-9.138420385E-1,-2.975791302E0,3.125186238E0
1.044501621E1,-6.463055369E-2,-7.691544414E-1,-3.145147133E0,3.238475899E0
1.045505621E1,-2.444533205E-1,-6.567057601E-1,-3.227511597E0,3.302703588E0
1.046509621E1,-2.875059491E-1,-5.620574650E-1,-3.256768726E0,3.317395182E0
1.047513621E1,-3.291539120E-1,-4.783893639E-1,-3.246646610E0,3.298168112E0
1.048517621E1,-3.866934742E-1,-3.640119785E-1,-3.225360407E0,3.268789733E0
1.049521621E1,-4.372405704E-1,-2.368578422E-1,-3.233461724E0,3.271476070E0
1.050525521E1,-4.879575283E-1,-1.260224077E-1,-3.301209319E0,3.339456118E0
1.051529521E1,-5.493010332E-1,-5.275211781E-2,-3.383894210E0,3.428593653E0
1.052533521E1,-5.978353351E-1,-1.873418659E-2,-3.494003713E0,3.544830039E0
1.053537521E1,-6.605761783E-1,-1.029460788E-2,-3.494667957E0,3.556567305E0
1.054541521E1,-6.826779225E-1,-2.454251826E-2,-3.392348115E0,3.460444655E0
1.055545521E1,-5.827164819E-1,-1.201585275E-1,-3.247115557E0,3.301174944E0
1.056549521E1,-4.874715516E-1,-2.281875908E-1,-3.009284738E0,3.057039863E0
1.057553521E1,-4.946533942E-1,-2.418282679E-1,-2.607416716E0,2.664917414E0
1.058557521E1,-5.205919352E-1,-2.744308805E-1,-2.238773158E0,2.314829049E0
1.059561521E1,-5.124217304E-1,-3.183636430E-1,-2.056185079E0,2.142855225E0
1.060565421E1,-5.229395192E-1,-2.789285588E-1,-2.002860811E0,2.088712117E0
1.061569421E1,-4.893510294E-1,-1.237712297E-1,-1.950714172E0,2.014961421E0
1.062573421E1,-3.983583405E-1,1.510821122E-1,-1.777254766E0,1.827607637E0
1.063577421E1,-2.294092569E-1,5.134407905E-1,-1.472883802E0,1.576590228E0
1.064581421E1,-8.558284499E-2,8.942553279E-1,-1.023372667E0,1.361730014E0
1.065585421E1,-3.243560158E-3,1.187160194E0,-5.047585523E-1,1.290015908E0
1.066589421E1,2.862394787E-2,1.379966868E0,-3.008918703E-2,1.380591629E0
1.067593421E1,6.957207218E-2,1.570049323E0,3.541518188E-1,1.610999274E0
1.068597421E1,1.278633122E-1,1.697816540E0,7.514198363E-1,1.861064696E0
1.069601421E1,1.362177591E-1,1.650978881E0,1.117087746E0,1.998041936E0
1.070605321E1,1.054982970E-1,1.516373346E0,1.406790385E0,2.071129450E0
1.071609321E1,9.275306627E-2,1.243994838E0,1.652571663E0,2.070536015E0
1.072613321E1,7.602124041E-2,9.398489919E-1,2.036646023E0,2.244331165E0
1.073617321E1,-2.748812623E-3,8.193829009E-1,2.671389349E0,2.794229222E0
1.074621321E1,-3.730867110E-2,8.657559988E-1,3.198672545E0,3.313975171E0
1.075625321E1,1.274435369E-1,1.028668782E0,3.432689225E0,3.585771414E0
1.076629321E1,4.431255737E-1,1.372548213E0,3.522477899E0,3.806323610E0
1.077633321E1,7.761892996E-1,1.719273190E0,3.559645141E0,4.028578367E0
1.078637321E1,1.080155709E0,1.799859224E0,3.636817278E0,4.199127230E0
1.079641321E1,1.252208129E0,1.537854846E0,3.804832926E0,4.290661525E0
1.080645221E1,1.128422574E0,1.053697350E0,4.112129837E0,4.392405651E0
1.081649221E1,6.966721369E-1,5.593262306E-1,4.533044579E0,4.620247943E0
1.082653221E1,8.115387149E-2,1.999063629E-1,4.947694615E0,4.952396440E0
1.083657221E1,-5.158589065E-1,-8.739950180E-2,5.296634225E0,5.322413287E0
1.084661221E1,-9.164528203E-1,-4.318380721E-1,5.396476602E0,5.490749458E0
1.085665221E1,-1.098889165E0,-8.100428510E-1,4.976537760E0,5.160392901E0
1.086669221E1,-1.127449012E0,-1.068543285E0,3.933659951E0,4.229256038E0
1.087673221E1,-1.087392662E0,-1.076178579E0,2.530943322E0,2.957407181E0
1.088677221E1,-1.048393195E0,-9.220161536E-1,1.088442822E0,1.770296544E0
1.089681221E1,-1.106264038E0,-7.811029342E-1,-2.184005213E-1,1.371729093E0
1.090685121E1,-1.180256459E0,-7.634279707E-1,-1.275250252E0,1.897917485E0
1.091689121E1,-1.242405418E0,-8.416716099E-1,-1.994311012E0,2.495848300E0
1.092693121E1,-1.310508962E0,-9.967701745E-1,-2.386552178E0,2.899416462E0
1.093697121E1,-1.428690692E0,-1.180730011E0,-2.324637766E0,2.973082776E0
1.094701121E1,-1.430273680E0,-1.388917493E0,-1.845913357E0,2.717015039E0
1.095705121E1,-1.219485064E0,-1.590331268E0,-1.267993857E0,2.371519721E0
1.096709121E1,-9.597425352E-1,-1.670935721E0,-7.865124857E-1,2.081281770E0
1.097713121E1,-7.606028885E-1,-1.647108609E0,-4.724521011E-1,1.874751853E0
1.098717121E1,-5.684326842E-1,-1.614412295E0,-3.509071988E-1,1.747163025E0
1.099721121E1,-3.961032522E-1,-1.585471062E0,-3.877774018E-1,1.679579587E0
1.100725021E1,-3.156848873E-1,-1.534879345E0,-6.219069332E-1,1.685906220E0
1.101729021E1,-3.739647435E-1,-1.409739574E0,-9.712915170E-1,1.752319180E0
1.102733021E1,-4.840583856E-1,-1.270678460E0,-1.426101984E0,1.970457596E0
1.103737021E1,-5.720025921E-1,-1.117448373E0,-1.940828869E0,2.311426947E0
1.104741021E1,-6.389935206E-1,-9.020897198E-1,-2.342826115E0,2.590542952E0
1.105745021E1,-6.503311256E-1,-5.815662615E-1,-2.629896922E0,2.770831591E0
1.106749021E1,-5.727122248E-1,-2.718822254E-1,-2.821746991E0,2.892088401E0
1.107753021E1,-3.999353711E-1,-5.286964685E-2,-2.874122840E0,2.902296608E0
1.108757021E1,-1.900500038E-1,2.684047401E-2,-2.842851931E0,2.849323870E0
1.109760921E1,-2.680257674E-2,5.861409768E-2,-2.820772845E0,2.821509070E0
1.110764921E1,1.267199440E-1,7.611364469E-2,-2.891500180E0,2.895276243E0
1.111768921E1,3.037115073E-1,8.484543800E-2,-3.035508331E0,3.051843747E0
1.112772921E1,4.724400778E-1,1.573798558E-1,-3.147582498E0,3.186729300E0
1.113776921E1,6.124955107E-1,3.591482645E-1,-3.189429851E0,3.267506848E0
1.114780921E1,7.795749106E-1,5.836462623E-1,-3.230248094E0,3.373852805E0
1.115784921E1,8.764569882E-1,7.662118301E-1,-3.265349514E0,3.466664805E0
1.116788921E1,8.854641122E-1,8.857961610E-1,-3.171638528E0,3.409981303E0
1.117792921E1,8.029050086E-1,8.604014111E-1,-2.855414674E0,3.088420308E0
1.118796921E1,6.512614176E-1,7.210836044E-1,-2.360387642E0,2.552554176E0
1.119800821E1,4.840000962E-1,5.271086571E-1,-1.811483781E0,1.947709711E0
1.120804821E1,2.896748641E-1,3.448626396E-1,-1.368824998E0,1.441014796E0
1.121808821E1,7.965186797E-3,1.473445719E-1,-9.819691175E-1,9.929940659E-1
1.122812821E1,-3.166041793E-1,-2.680129766E-2,-6.974143678E-1,7.663832698E-1
1.123816821E1,-5.463235213E-1,-2.011278462E-1,-4.805358768E-1,7.548751747E-1
1.124820821E1,-6.250673532E-1,-3.044414225E-1,-3.587641025E-1,7.823716873E-1
1.125824821E1,-4.981176137E-1,-3.187992606E-1,-2.645140028E-1,6.478593854E-1
1.126828821E1,-3.335810583E-1,-2.234086615E-1,-1.235966903E-1,4.200760578E-1
1.127832821E1,-2.339642014E-1,-9.637205422E-2,1.441069686E-1,2.911934731E-1
1.128836821E1,-2.750340208E-1,5.375944689E-2,5.330228233E-1,6.022018938E-1
1.129840721E1,-5.004591677E-1,2.355106437E-1,9.578224558E-1,1.106050857E0
1.130844721E1,-8.882960650E-1,6.012281089E-1,1.281490985E0,1.671156570E0
1.131848721E1,-1.168612241E0,1.072207881E0,1.263973897E0,2.028032130E0
1.132852721E1,-1.102950348E0,1.414217079E0,1.006588234E0,2.056630568E0
1.133856721E1,-6.901413817E-1,1.544355635E0,9.666143292E-1,1.948248627E0
1.134860721E1,-4.301847719E-2,1.433078735E0,1.277060550E0,1.920012734E0
1.135864721E1,6.423062606E-1,1.239855448E0,1.877008849E0,2.339436061E0
1.136868721E1,1.113512028E0,1.045996860E0,2.759677042E0,3.154336039E0
1.137872721E1,1.345478820E0,7.232596457E-1,3.707682608E0,4.010028440E0
1.138876721E1,1.347764058E0,5.017368574E-1,4.785550740E0,4.996969453E0
1.139880621E1,1.384364558E0,3.286738922E-1,5.868282001E0,6.038313126E0
1.140884621E1,1.508934956E0,-3.809490234E-2,6.518398826E0,6.690878805E0
1.141888621E1,1.546118132E0,-4.804336967E-1,6.718741976E0,6.911062983E0
1.142892621E1,1.341129954E0,-8.250014904E-1,6.458440307E0,6.647609210E0
1.143896621E1,8.502349303E-1,-1.115928536E0,5.601477644E0,5.774491123E0
1.144900592E1,3.412303492E-1,-1.480353766E0,4.256658390E0,4.519626762E0
1.145904592E1,1.004250517E-1,-1.834066021E0,2.818541547E0,3.364232425E0
1.146908592E1,2.529505491E-2,-2.016296104E0,1.514922944E0,2.522118424E0
1.147912592E1,3.252696432E-3,-2.149844171E0,2.393212742E-1,2.163126259E0
1.148916592E1,1.046198260E-1,-2.164398475E0,-8.046827084E-1,2.311510400E0
1.149920492E1,2.995635839E-1,-1.995822225E0,-1.395354400E0,2.453580770E0
1.150924492E1,5.231977834E-1,-1.627774937E0,-1.455636270E0,2.245498634E0
1.151928492E1,7.858619830E-1,-1.164361023E0,-1.012918430E0,1.731854322E0
1.152932492E1,1.008238757E0,-8.450432606E-1,-5.427701318E-1,1.423110298E0
1.153936492E1,1.049277002E0,-6.790776457E-1,-4.015347308E-1,1.312767617E0
1.154940492E1,8.814279985E-1,-5.394610463E-1,-6.097792232E-1,1.199901762E0
1.155944492E1,5.918141647E-1,-3.647623225E-1,-1.087059370E0,1.290346322E0
1.156948492E1,3.623323293E-1,-2.172484736E-1,-1.656698627E0,1.709716923E0
1.157952492E1,1.736570424E-1,-1.021784855E-1,-2.141662601E0,2.151119687E0
1.158956492E1,2.992223075E-2,-8.218261600E-3,-2.494959556E0,2.495152514E0
1.159960392E1,-5.975476155E-2,7.561604664E-2,-2.737885639E0,2.739581390E0
1.160964392E1,-1.002514625E-1,1.182399099E-1,-2.933310111E0,2.937403486E0
1.161968392E1,-1.476649628E-1,1.668546841E-1,-3.064448540E0,3.072538085E0
1.162972392E1,-2.205833965E-1,1.925236684E-1,-3.115422227E0,3.129149733E0
1.163976392E1,-2.313112283E-1,1.757449369E-1,-3.119922245E0,3.133417620E0
1.164980392E1,-1.818730382E-1,4.324703023E-2,-3.117733047E0,3.123332749E0
1.165984392E1,-1.019745091E-1,-5.424052656E-2,-3.017668476E0,3.019878121E0
1.166988392E1,-4.448532432E-2,-7.657966778E-2,-2.854786683E0,2.856160078E0
1.167992392E1,-1.269197543E-3,-8.667093873E-2,-2.624203488E0,2.625634667E0
1.168996292E1,7.088906614E-2,-8.308615699E-2,-2.479215344E0,2.481619892E0
1.170000292E1,1.465123487E-1,-1.190301611E-1,-2.439147883E0,2.446441588E0
1.171004292E1,1.800149392E-1,-1.361094394E-1,-2.557643462E0,2.567580814E0
1.172008292E1,1.167020373E-1,-9.772436902E-2,-2.852247237E0,2.856305957E0
1.173012292E1,1.240572682E-2,3.761221468E-4,-3.068099542E0,3.068124646E0
1.174016292E1,6.103932174E-2,6.865742147E-2,-3.028457174E0,3.029850243E0
1.175020292E1,1.965904983E-1,2.103646928E-1,-2.722823796E0,2.738004849E0
1.176024292E1,3.134846532E-1,4.166988999E-1,-2.246128955E0,2.305863371E0
1.177028292E1,3.402258707E-1,6.678752576E-1,-1.802058070E0,1.951723415E0
1.178032292E1,2.532956079E-1,9.061835016E-1,-1.384263986E0,1.673772382E0
1.179036192E1,1.726074672E-1,1.107953080E0,-1.020814510E0,1.516382415E0
1.180040192E1,1.590769736E-1,1.342406547E0,-6.935090125E-1,1.519314178E0
1.181044192E1,1.541133636E-1,1.594194962E0,-3.197047019E-1,1.633223684E0
1.182048192E1,9.044423835E-2,1.735817302E0,4.367168427E-2,1.738720531E0
1.183052192E1,8.135327982E-2,1.786857648E0,5.259131938E-1,1.864420365E0
1.184056192E1,1.345250907E-1,1.694017020E0,1.125428215E0,2.038229459E0
1.185060192E1,2.417940068E-1,1.542728501E0,1.784876611E0,2.371552252E0
1.186064192E1,3.187747388E-1,1.281347582E0,2.434053204E0,2.769130542E0
1.187068192E1,3.538551091E-1,9.607782233E-1,3.163874010E0,3.325418318E0
1.188072192E1,3.601931620E-1,6.514058438E-1,4.005686538E0,4.074259851E0
1.189076092E1,2.116025484E-1,5.117059216E-1,4.801059310E0,4.832886207E0
1.190080092E1,-5.310272691E-2,5.911913632E-1,5.154629915E0,5.188693158E0
1.191084092E1,-1.162317202E-1,8.635261631E-1,4.893305569E0,4.970274302E0
1.192088092E1,3.098951206E-3,1.265733470E0,4.336078196E0,4.517041614E0
1.193092092E1,2.549665960E-1,1.569209225E0,3.925555125E0,4.235257796E0
1.194096092E1,4.667511389E-1,1.651418592E0,3.684783742E0,4.064808878E0
1.195100092E1,5.483226113E-1,1.495831785E0,3.508027675E0,3.852846815E0
1.196104092E1,4.409365955E-1,1.129175110E0,3.390371171E0,3.600566371E0
1.197108092E1,1.613209705E-1,6.149393910E-1,3.241894578E0,3.303642742E0
1.198112092E1,-2.039418736E-1,5.696839884E-2,3.040597748E0,3.047961999E0
1.199115992E1,-6.137167382E-1,-4.423082426E-1,2.871923702E0,2.969887299E0
1.200119992E1,-9.216130612E-1,-8.256155942E-1,2.696673878E0,2.966995408E0
1.201123992E1,-1.094497833E0,-1.097393447E0,2.434728557E0,2.886191441E0
1.202127992E1,-1.080367817E0,-1.252775601E0,1.949483918E0,2.556780959E0
1.203131992E1,-9.420475450E-1,-1.309714618E0,1.200360283E0,2.010888054E0
1.204135992E1,-8.255696936E-1,-1.279824967E0,2.646964359E-1,1.545827115E0
1.205139992E1,-7.267362539E-1,-1.172304758E0,-6.451876223E-1,1.522731459E0
1.206143992E1,-5.786376105E-1,-1.057746401E0,-1.375799557E0,1.829336862E0
1.207147992E1,-3.536193932E-1,-1.013994318E0,-1.892441406E0,2.175905702E0
1.208151992E1,-1.686022706E-1,-1.036923881E0,-2.122483149E0,2.368242508E0
1.209155892E1,-1.034474958E-1,-1.079594522E0,-1.917672726E0,2.203110165E0
1.210159892E1,-1.610330500E-2,-1.192593281E0,-1.422942148E0,1.856691252E0
1.211163892E1,1.317433783E-1,-1.355054513E0,-9.982734936E-1,1.688217705E0
1.212167892E1,1.817227282E-1,-1.448841659E0,-6.517563844E-1,1.599047119E0
1.213171892E1,9.530277207E-2,-1.492475044E0,-4.064516544E-1,1.549763635E0
1.214175892E1,-9.213570080E-2,-1.520467566E0,-3.294286215E-1,1.558471631E0
1.215179892E1,-2.820242210E-1,-1.519287890E0,-4.432955450E-1,1.607570930E0
1.216183892E1,-4.588324010E-1,-1.432877445E0,-8.108462584E-1,1.709133289E0
1.217187892E1,-6.374462011E-1,-1.353654689E0,-1.344978883E0,2.011886397E0
1.218191892E1,-7.809292719E-1,-1.302434250E0,-1.983144584E0,2.497808629E0
1.219195792E1,-8.597741510E-1,-1.272712560E0,-2.543075709E0,2.970899345E0
1.220199792E1,-8.727916610E-1,-1.208367314E0,-2.935512757E0,3.292286743E0
1.221203792E1,-8.374440730E-1,-1.060146829E0,-3.164292671E0,3.440635404E0
1.222207792E1,-7.139545329E-1,-8.871625091E-1,-3.322405475E0,3.512145574E0
1.223211792E1,-5.269970483E-1,-7.110154299E-1,-3.413220921E0,3.526094991E0
1.224215792E1,-3.166726648E-1,-4.922517966E-1,-3.456699062E0,3.505903851E0
1.225219792E1,-8.330842428E-2,-2.730996157E-1,-3.485205408E0,3.496881529E0
1.226223792E1,9.509158708E-2,-6.916466743E-2,-3.517990161E0,3.519954678E0
1.227227792E1,2.236822929E-1,1.458187410E-1,-3.500713978E0,3.510882400E0
1.228231692E1,3.961432325E-1,3.686119831E-1,-3.396562203E0,3.439395158E0
1.229235692E1,5.543970278E-1,6.426198176E-1,-3.194367240E0,3.305192636E0
1.230239692E1,7.084102030E-1,9.270501678E-1,-2.927941782E0,3.151842336E0
1.231243692E1,8.132021747E-1,1.185382056E0,-2.648560649E0,3.013519853E0
1.232247692E1,8.960929616E-1,1.404488043E0,-2.387916334E0,2.911651366E0
1.233251692E1,9.631944390E-1,1.530787463E0,-2.145793658E0,2.806329312E0
1.234255692E1,9.360545144E-1,1.611569817E0,-1.816932802E0,2.602806204E0
1.235259692E1,8.564720090E-1,1.559771819E0,-1.363464271E0,2.241755394E0
1.236263692E1,7.083018833E-1,1.495511211E0,-7.303786308E-1,1.808783648E0
1.237267692E1,5.448465512E-1,1.439342711E0,-7.603368402E-2,1.540891406E0
1.238271592E1,4.052483340E-1,1.411294933E0,5.380906051E-1,1.563816198E0
1.239275592E1,3.364463767E-1,1.343754769E0,9.658442509E-1,1.688706061E0
1.240279592E1,3.428839784E-1,1.237925720E0,1.123403909E0,1.706477616E0
1.241283592E1,2.774664443E-1,1.161026941E0,1.157310158E0,1.662629840E0
1.242287592E1,2.158822899E-1,1.006683105E0,1.192382342E0,1.575370334E0
1.243291592E1,1.828030378E-1,8.034904611E-1,1.467274568E0,1.682827540E0
1.244295533E1,1.114195165E-1,6.094112872E-1,2.087698063E0,2.177677576E0
1.245299533E1,-1.121548770E-1,5.309204569E-1,2.836896542E0,2.888327758E0
1.246303533E1,-4.055307545E-1,5.234121935E-1,3.343854232E0,3.408779348E0
1.247307533E1,-4.515857639E-1,4.415559983E-1,3.398070200E0,3.456267132E0
1.248311433E1,-3.189367067E-1,4.212261066E-1,3.229845806E0,3.272774967E0
1.249315433E1,-1.144366067E-1,5.092693868E-1,3.004288293E0,3.049294868E0
1.250319433E1,1.971847215E-1,5.689672659E-1,2.841589517E0,2.904692160E0
1.251323433E1,6.491287187E-1,5.713938604E-1,2.842974722E0,2.971592891E0
1.252327433E1,1.021224181E0,5.517017537E-1,2.947149301E0,3.167485226E0
1.253331433E1,1.215849996E0,4.799613878E-1,3.089941231E0,3.355054539E0
1.254335433E1,1.219272810E0,2.502527900E-1,3.355646896E0,3.579052771E0
1.255339433E1,1.084645493E0,-2.560776401E-1,3.835090513E0,3.993738956E0
1.256343433E1,8.359396575E-1,-8.381891544E-1,4.285103340E0,4.445612084E0
1.257347333E1,5.818160472E-1,-1.301465805E0,4.577209184E0,4.794076247E0
1.258351333E1,4.022756827E-1,-1.658243754E0,4.591299804E0,4.898125352E0
1.259355333E1,3.169781087E-1,-1.872193229E0,4.140505790E0,4.555147725E0
1.260359333E1,2.888856727E-1,-1.937107555E0,3.120523338E0,3.684224005E0
1.261363333E1,4.101161045E-1,-1.949631706E0,1.741618325E0,2.646222477E0
1.262367333E1,5.921168312E-1,-1.962731224E0,4.270432091E-1,2.094106516E0
1.263371333E1,7.969206758E-1,-1.951313804E0,-6.181752402E-1,2.196553836E0
1.264375333E1,1.045101870E0,-1.907003165E0,-1.324403701E0,2.546162633E0
1.265379333E1,1.294370501E0,-1.826401198E0,-1.663156877E0,2.788768030E0
1.266383333E1,1.438564739E0,-1.730962067E0,-1.630074500E0,2.779000011E0
1.267387233E1,1.406336202E0,-1.573774585E0,-1.336193442E0,2.497991367E0
1.268391233E1,1.189505512E0,-1.377715105E0,-1.021865255E0,2.087398111E0
1.269395233E1,8.782537644E-1,-1.205847603E0,-9.859317756E-1,1.788144173E0
1.270399233E1,5.915640866E-1,-1.046693702E0,-1.283074996E0,1.758350710E0
1.271403233E1,3.429641218E-1,-8.768736023E-1,-1.746262184E0,1.983926238E0
1.272407233E1,1.989516222E-1,-6.318746817E-1,-2.237230663E0,2.333248465E0
1.273411233E1,1.619654981E-1,-3.328935353E-1,-2.722385255E0,2.747441065E0
1.274415233E1,1.765668362E-1,-2.643584669E-2,-3.095519475E0,3.100663723E0
1.275419233E1,2.760633135E-1,2.577821034E-1,-3.303401440E0,3.324924606E0
1.276423233E1,3.687762533E-1,4.682951693E-1,-3.422368889E0,3.473889046E0
1.277427133E1,3.389138286E-1,6.102271199E-1,-3.483831312E0,3.553071957E0
1.278431133E1,2.499849510E-1,7.172788212E-1,-3.457572636E0,3.540026824E0
1.279435133E1,1.612238702E-1,7.540493292E-1,-3.358067644E0,3.445461047E0
1.280439133E1,6.514611365E-2,6.951313224E-1,-3.344361770E0,3.416461213E0
1.281443133E1,-1.985690681E-2,6.423860751E-1,-3.412143279E0,3.472142843E0
1.282447133E1,-1.167135308E-2,5.675851303E-1,-3.442722462E0,3.489215822E0
1.283451133E1,4.829266571E-2,4.966746305E-1,-3.410156980E0,3.446474793E0
1.284455133E1,1.192002419E-1,4.617174903E-1,-3.262217161E0,3.296885279E0
1.285459133E1,2.068179180E-1,4.531711999E-1,-3.048882083E0,3.089307324E0
1.286463033E1,2.920472988E-1,4.581607752E-1,-2.865054978E0,2.916117787E0
1.287467033E1,2.976458616E-1,5.363469654E-1,-2.690219722E0,2.759264989E0
1.288471033E1,2.520474832E-1,6.278402491E-1,-2.464721265E0,2.555887757E0
1.289475033E1,1.866914728E-1,6.525977987E-1,-2.094798337E0,2.202025809E0
1.290479033E1,1.428542392E-1,7.441203184E-1,-1.608238074E0,1.777794162E0
1.291483033E1,4.236932661E-2,8.698739004E-1,-1.093584278E0,1.397999405E0
1.292487033E1,1.774096392E-2,9.150370632E-1,-4.969987124E-1,1.041448649E0
1.293491033E1,3.510189537E-2,9.525899287E-1,1.111216557E-1,9.596914804E-1
1.294495033E1,-3.107462559E-2,1.069843559E0,5.641943300E-1,1.209895085E0
1.295499033E1,-1.481880694E-1,1.213395920E0,7.924561805E-1,1.456803405E0
1.296502933E1,-3.089692871E-1,1.312691289E0,8.805362982E-1,1.610578969E0
1.297506933E1,-4.131386399E-1,1.248252488E0,9.539960378E-1,1.624477223E0
1.298510933E1,-4.128706547E-1,1.025889747E0,1.125245782E0,1.577685019E0
1.299514933E1,-3.592674746E-1,7.516110402E-1,1.445998304E0,1.668802975E0
1.300518933E1,-3.001860748E-1,4.938812694E-1,1.832429093E0,1.921412701E0
1.301522933E1,-2.658806798E-1,3.026447193E-1,2.399818926E0,2.433396236E0
1.302526933E1,-3.383122963E-1,1.680842073E-1,3.095234715E0,3.118202279E0
1.303530933E1,-4.962677008E-1,1.107120582E-1,3.612498123E0,3.648106561E0
1.304534933E1,-6.111346443E-1,3.100151347E-1,3.896671050E0,3.956468148E0
1.305538833E1,-5.185388316E-1,7.399930613E-1,3.938868066E0,4.041182239E0
1.306542833E1,-2.283618744E-1,1.136610722E0,3.815854343E0,3.988079418E0
1.307546833E1,1.405358548E-1,1.345587725E0,3.780009157E0,4.014825759E0
1.308550833E1,4.615007047E-1,1.381792368E0,4.006595196E0,4.263230947E0
1.309554833E1,6.717053300E-1,1.263254689E0,4.513164046E0,4.734516888E0
1.310558833E1,6.142240573E-1,9.500108680E-1,5.124132593E0,5.247525766E0
1.311562833E1,2.740679146E-1,4.365114592E-1,5.493718722E0,5.517843861E0
1.312566833E1,-2.641713560E-1,-1.242602031E-1,5.711642695E0,5.719098651E0
1.313570833E1,-7.717899276E-1,-6.484183551E-1,5.657323816E0,5.746426612E0
1.314574833E1,-1.057989938E0,-1.148945716E0,5.136375493E0,5.368591265E0
1.315578733E1,-1.135262647E0,-1.490358645E0,4.132965805E0,4.537774401E0
1.316582733E1,-1.088528776E0,-1.579292748E0,2.814377745E0,3.405845353E0
1.317586733E1,-9.522036470E-1,-1.466985716E0,1.453673360E0,2.274182295E0
1.318590733E1,-7.857026464E-1,-1.312729296E0,1.333720654E-1,1.535700154E0
1.319594733E1,-6.861277067E-1,-1.149472404E0,-9.890319693E-1,1.664404480E0
1.320598733E1,-5.739968216E-1,-9.887745456E-1,-1.826472534E0,2.154796828E0
1.321602733E1,-4.204607791E-1,-9.069793077E-1,-2.422950511E0,2.621085254E0
1.322606733E1,-3.053805584E-1,-9.390124016E-1,-2.729717079E0,2.902818786E0
1.323610733E1,-2.127537189E-1,-1.069809499E0,-2.746692715E0,2.955347252E0
1.324614633E1,-1.687861656E-1,-1.212903730E0,-2.540777169E0,2.820491597E0
1.325618633E1,-9.374000318E-2,-1.339813307E0,-2.255834749E0,2.625390885E0
1.326622633E1,-4.502257381E-2,-1.438478493E0,-2.088426626E0,2.536291225E0
1.327626633E1,-1.752512857E-2,-1.532710174E0,-2.078376431E0,2.582470948E0
1.328630633E1,-3.006345928E-2,-1.612791739E0,-2.177684957E0,2.710039258E0
1.329634633E1,-1.006005048E-1,-1.641579190E0,-2.337782891E0,2.858344196E0
1.330638633E1,-1.769007122E-1,-1.612718941E0,-2.573765990E0,3.042437775E0
1.331642633E1,-2.236766832E-1,-1.533474112E0,-2.863690238E0,3.256116689E0
1.332646633E1,-2.457069818E-1,-1.421737914E0,-3.148347899E0,3.463207344E0
1.333650533E1,-2.206550615E-1,-1.281597551E0,-3.410653408E0,3.650169531E0
1.334654533E1,-1.851622797E-1,-1.161946415E0,-3.611108240E0,3.797960935E0
1.335658533E1,-1.221720893E-1,-1.052030309E0,-3.770468255E0,3.916391790E0
1.336662533E1,-1.142699428E-2,-9.306598002E-1,-3.840103916E0,3.951285402E0
1.337666533E1,7.421896409E-2,-7.094556852E-1,-3.762196784E0,3.829224525E0
1.338670533E1,1.522931436E-1,-4.665991844E-1,-3.615720524E0,3.648882419E0
1.339674533E1,2.323308182E-1,-2.461214398E-1,-3.453846790E0,3.470390615E0
1.340678533E1,3.463769954E-1,-4.333634645E-2,-3.312568704E0,3.330910759E0
1.341682533E1,4.213610311E-1,1.314856075E-1,-3.211589044E0,3.241780032E0
1.342686533E1,4.854089097E-1,3.650090750E-1,-3.121521458E0,3.180054976E0
1.343690433E1,5.029090780E-1,5.914248133E-1,-2.908121476E0,3.009962021E0
1.344694492E1,4.910960944E-1,7.849800767E-1,-2.578501065E0,2.739714737E0
1.345698492E1,4.124697184E-1,9.157089083E-1,-2.132386578E0,2.357058886E0
1.346702492E1,3.374553137E-1,9.639323576E-1,-1.464854990E0,1.785732853E0
1.347706492E1,2.382173564E-1,9.687725365E-1,-7.676651555E-1,1.258800035E0
1.348710492E1,1.318814731E-1,9.501314668E-1,-2.368338686E-1,9.880449426E-1
1.349714492E1,5.638459547E-2,8.236665711E-1,1.741008461E-1,8.437517096E-1
1.350718492E1,-5.385698576E-2,6.444918036E-1,5.965931672E-1,8.798827575E-1
1.351722492E1,-3.255427082E-1,5.918262246E-1,1.131574808E0,1.317838336E0
1.352726392E1,-6.061769364E-1,5.664009230E-1,1.701825099E0,1.893269434E0
1.353730392E1,-7.116065834E-1,4.572994803E-1,2.104096579E0,2.267758620E0
1.354734392E1,-7.426107135E-1,3.799127506E-1,2.166498649E0,2.321534141E0
1.355738392E1,-7.453094959E-1,4.102062978E-1,1.793114753E0,1.984695435E0
1.356742392E1,-6.819451202E-1,5.269949287E-1,1.430095047E0,1.669713941E0
1.357746392E1,-5.920622694E-1,6.621498102E-1,1.260294244E0,1.541856570E0
1.358750392E1,-4.963079370E-1,9.423283575E-1,1.242152672E0,1.636229679E0
1.359754392E1,-4.370769580E-1,1.388053567E0,1.371415315E0,1.999627199E0
1.360758392E1,-4.058396702E-1,1.761136185E0,1.560262254E0,2.387619065E0
1.361762292E1,-2.172967680E-1,1.826741652E0,1.930438367E0,2.666607440E0
1.362766292E1,1.187609607E-1,1.707092417E0,2.438311731E0,2.978864345E0
1.363770292E1,5.500664702E-1,1.597147660E0,2.876425474E0,3.335757376E0
1.364774292E1,9.856902856E-1,1.582644811E0,3.298435984E0,3.788935191E0
1.365778292E1,1.412339685E0,1.610623153E0,3.792510504E0,4.355679769E0
1.366782292E1,1.767391828E0,1.559645957E0,4.460071912E0,5.044641796E0
1.367786292E1,1.965450910E0,1.265525748E0,5.158842834E0,5.663763067E0
1.368790292E1,1.819920583E0,6.841297862E-1,5.644978589E0,5.970421071E0
1.369794292E1,1.268508705E0,-2.926487580E-2,5.835538178E0,5.971890538E0
1.370798192E1,6.179736574E-1,-7.962163787E-1,5.640654573E0,5.729994414E0
1.371802192E1,2.272069762E-1,-1.593910056E0,4.968591979E0,5.222937730E0
1.372806192E1,1.837887505E-1,-2.207162964E0,3.886681082E0,4.473436764E0
1.373810192E1,3.553318965E-1,-2.514702095E0,2.599657461E0,3.634309604E0
1.374814192E1,6.505927885E-1,-2.508809271E0,1.258776307E0,2.881303998E0
1.375818192E1,1.046570472E0,-2.213512309E0,3.495582461E-2,2.448707497E0
1.376822192E1,1.479168974E0,-1.854093904E0,-9.387798285E-1,2.550865074E0
1.377826192E1,1.852141811E0,-1.568749926E0,-1.551973241E0,2.880976667E0
1.378830192E1,2.017614798E0,-1.378525090E0,-1.816276159E0,3.044660898E0
1.379834192E1,1.977072543E0,-1.289194838E0,-1.913905950E0,3.038729201E0
1.380838092E1,1.807872979E0,-1.234344739E0,-1.940992591E0,2.925656146E0
1.381842092E1,1.563890744E0,-1.208471687E0,-1.974513509E0,2.793718252E0
1.382846092E1,1.267568326E0,-1.106289985E0,-2.029919386E0,2.636509000E0
1.383850092E1,9.807384248E-1,-9.884829158E-1,-2.196340499E0,2.600549542E0
1.384854092E1,6.957890611E-1,-8.413462123E-1,-2.448006999E0,2.680433572E0
1.385858092E1,4.321734465E-1,-6.435563953E-1,-2.803784929E0,2.908977251E0
1.386862092E1,1.850501411E-1,-4.585233025E-1,-3.182305019E0,3.220489467E0
1.387866092E1,1.358138261E-2,-2.918327790E-1,-3.561941927E0,3.573902785E0
1.388870092E1,-1.511425761E-1,-1.721560621E-1,-3.858718527E0,3.865512962E0
1.389873992E1,-2.606938341E-1,-4.615543529E-2,-3.982979461E0,3.991768654E0
1.390877992E1,-2.734891316E-1,6.228381023E-2,-3.845922480E0,3.856137355E0
1.391881992E1,-1.828883341E-1,1.260206535E-1,-3.598792250E0,3.605639334E0
1.392885992E1,-9.701972472E-2,1.476211452E-1,-3.371491681E0,3.376116258E0
1.393889992E1,-7.857872117E-2,2.044861946E-1,-3.201673336E0,3.209158982E0
1.394893992E1,-1.008949852E-2,2.610486504E-1,-3.027270774E0,3.038522097E0
1.395897992E1,4.936316298E-2,2.751787394E-1,-2.878924574E0,2.892467245E0
1.396901992E1,1.416937314E-1,2.834452406E-1,-2.789834057E0,2.807773564E0
1.397905992E1,2.339364636E-1,3.319097413E-1,-2.755396296E0,2.785156924E0
1.398909892E1,2.924208810E-1,3.700100523E-1,-2.741504481E0,2.781773576E0
1.399913892E1,3.419734938E-1,3.961789736E-1,-2.783267049E0,2.832045041E0
1.400917892E1,3.894774798E-1,4.363101688E-1,-2.844490321E0,2.903994569E0
1.401921892E1,3.543932357E-1,5.014680317E-1,-2.801333191E0,2.867844557E0
1.402925892E1,2.245297737E-1,5.615271226E-1,-2.475808171E0,2.548598130E0
1.403929892E1,1.143593321E-1,6.007983385E-1,-1.906654233E0,2.002340397E0
1.404933892E1,9.736834668E-2,5.837276848E-1,-1.298183032E0,1.426708726E0
1.405937892E1,5.783650937E-2,6.431109837E-1,-8.175688022E-1,1.041803986E0
1.406941892E1,-4.693406515E-2,8.401715067E-1,-4.208211869E-1,9.408408146E-1
1.407945792E1,-7.876265265E-2,1.083862259E0,-8.397010982E-2,1.089959601E0
1.408949792E1,-2.813199604E-2,1.239296454E0,2.053460276E-1,1.256508695E0
1.409953792E1,2.469246279E-2,1.316398132E0,5.418971425E-1,1.423785894E0
1.410957792E1,8.249542376E-2,1.293351039E0,9.974414349E-1,1.635375131E0
1.411961792E1,1.630930789E-1,1.064667604E0,1.475119777E0,1.826497965E0
1.412965792E1,2.989677526E-1,7.202921838E-1,2.104465538E0,2.244321222E0
1.413969792E1,3.468980919E-1,4.033257329E-1,2.888219892E0,2.936805080E0
1.414973792E1,3.498689526E-1,1.898076367E-1,3.676926838E0,3.698408603E0
1.415977792E1,2.420651167E-1,7.516405687E-2,4.273106607E0,4.280617389E0
1.416981692E1,8.487600798E-2,1.066996989E-1,4.518082139E0,4.520138823E0
1.417985692E1,4.645930778E-2,3.123348713E-1,4.589847940E0,4.600697301E0
1.418989692E1,2.200526886E-1,5.554161975E-1,4.680354652E0,4.718329155E0
1.419993692E1,5.573544033E-1,6.572388799E-1,4.976093956E0,5.050160189E0
1.420997692E1,8.299798098E-1,6.140060292E-1,5.420839611E0,5.518276178E0
1.422001692E1,9.156936324E-1,3.790725057E-1,5.756788462E0,5.841472776E0
1.423005692E1,7.337469924E-1,6.909099251E-2,5.841187173E0,5.887497414E0
1.424009692E1,2.991839534E-1,-2.480422501E-1,5.734725748E0,5.747879209E0
1.425013592E1,-1.938114628E-1,-5.821527372E-1,5.434073614E0,5.468603179E0
1.426017592E1,-4.683416912E-1,-9.639773811E-1,4.776564739E0,4.895320933E0
1.427021592E1,-5.335350760E-1,-1.225367363E0,3.781277418E0,4.010516646E0
1.428025592E1,-4.987222889E-1,-1.332182106E0,2.512815784E0,2.887503463E0
1.429029592E1,-4.569504015E-1,-1.310624883E0,1.200644458E0,1.835235235E0
1.430033592E1,-4.460794044E-1,-1.235403670E0,-1.348017097E-2,1.313541312E0
1.431037592E1,-5.069238128E-1,-1.147755223E0,-1.059125467E0,1.641968501E0
1.432041592E1,-5.107189481E-1,-1.077108725E0,-1.900623999E0,2.243517024E0
1.433045592E1,-4.862772213E-1,-1.061136471E0,-2.563133413E0,2.816403565E0
1.434049492E1,-4.744102240E-1,-1.099342616E0,-3.056583450E0,3.282730820E0
1.435053492E1,-4.543309951E-1,-1.214674413E0,-3.277735671E0,3.524968328E0
1.436057492E1,-4.059288403E-1,-1.423246496E0,-3.223704475E0,3.547207261E0
1.437061492E1,-3.542961719E-1,-1.699884262E0,-2.861675872E0,3.347285629E0
1.438065492E1,-3.291535831E-1,-1.906073750E0,-2.334440038E0,3.031677673E0
1.439069492E1,-4.215542816E-1,-2.006594696E0,-1.961090641E0,2.837253389E0
1.440073492E1,-5.337131237E-1,-2.060972779E0,-1.738728631E0,2.748751671E0
1.441077492E1,-6.489558604E-1,-2.061552238E0,-1.699530067E0,2.749462454E0
1.442081492E1,-7.164116060E-1,-2.071090801E0,-1.824744097E0,2.851728198E0
1.443085392E1,-7.008679526E-1,-2.031775146E0,-2.079550552E0,2.990628133E0
1.444089392E1,-6.336265806E-1,-1.875379523E0,-2.379601593E0,3.095324658E0
1.445093379E1,-5.071226547E-1,-1.640621123E0,-2.686993813E0,3.188847254E0
1.446097379E1,-3.262081213E-1,-1.400886890E0,-2.958567744E0,3.289683710E0
1.447101379E1,-2.123968195E-1,-1.177257934E0,-3.230776098E0,3.445136114E0
1.448105379E1,-1.215705935E-1,-9.429468468E-1,-3.480116576E0,3.607650142E0
1.449109379E1,-9.503625780E-3,-7.166647173E-1,-3.687392185E0,3.756402502E0
1.450113379E1,1.220526965E-1,-4.893561092E-1,-3.799146509E0,3.832477066E0
1.451117379E1,2.945753790E-1,-2.797557937E-1,-3.835446024E0,3.856900849E0
1.452121279E1,4.329460464E-1,-1.081243730E-1,-3.882710822E0,3.908270268E0
1.453125279E1,4.219759754E-1,1.571355884E-1,-3.854351826E0,3.880564819E0
1.454129279E1,3.349734996E-1,4.382942753E-1,-3.781886113E0,3.821906813E0
1.455133279E1,1.996736437E-1,7.222702968E-1,-3.607301118E0,3.684313410E0
1.456137279E1,7.818148510E-2,1.038527627E0,-3.249635707E0,3.412445487E0
1.457141279E1,3.695559521E-2,1.367382490E0,-2.729248132E0,3.052850464E0
1.458145279E1,-1.562263189E-2,1.701556712E0,-2.263422096E0,2.831716598E0
1.459149279E1,-8.844990841E-2,2.046716975E0,-1.838508443E0,2.752632750E0
1.460153179E1,-1.990929786E-1,2.401744122E0,-1.246755016E0,2.713376293E0
1.461157179E1,-3.117510634E-1,2.702057410E0,-3.692990309E-1,2.744938022E0
1.462161179E1,-2.995771238E-1,2.879508711E0,7.613957709E-1,2.993499689E0
1.463165179E1,-3.190847509E-1,2.830942614E0,1.814406804E0,3.377591333E0
1.464169179E1,-5.270362247E-1,2.657649269E0,2.623299508E0,3.771281894E0
1.465173179E1,-7.742334791E-1,2.423639752E0,3.253567375E0,4.130274542E0
1.466177179E1,-8.831888144E-1,2.090714787E0,3.826460608E0,4.448922520E0
1.467181179E1,-7.887070189E-1,1.734040480E0,4.152562163E0,4.568668041E0
1.468185179E1,-7.158550972E-1,1.515447439E0,4.107199464E0,4.436002356E0
1.469189079E1,-6.697703402E-1,1.522946201E0,3.816094079E0,4.162995491E0
1.470193079E1,-5.587742534E-1,1.519471493E0,3.508452768E0,3.863969864E0
1.471197079E1,-5.914315376E-1,1.536800155E0,3.106013473E0,3.515517838E0
1.472201079E1,-6.703125232E-1,1.541995260E0,2.692987209E0,3.174783200E0
1.473205079E1,-6.669847997E-1,1.391248778E0,2.481648955E0,2.922160745E0
1.474209079E1,-5.561360263E-1,1.163204882E0,2.501025458E0,2.813798362E0
1.475213079E1,-4.264671122E-1,8.624952990E-1,2.702902333E0,2.869050951E0
1.476217079E1,-2.614257410E-1,4.547354762E-1,3.045280198E0,3.090122854E0
1.477220979E1,-3.690896823E-2,9.041505709E-2,3.545940437E0,3.547284981E0
1.478224979E1,1.748226117E-1,-1.454000804E-1,4.111624637E0,4.117907392E0
1.479228979E1,3.539581663E-1,-3.882255909E-1,4.487141597E0,4.517792072E0
1.480232979E1,5.154587377E-1,-7.398807947E-1,4.599186528E0,4.686751329E0
1.481236979E1,4.851453830E-1,-1.124805925E0,4.705883011E0,4.862703911E0
1.482240979E1,2.737299090E-1,-1.496800084E0,4.839926337E0,5.073482581E0
1.483244979E1,7.069228906E-3,-1.963043026E0,4.668126955E0,5.064088977E0
1.484248979E1,-1.621889166E-1,-2.479794218E0,4.006351951E0,4.714503215E0
1.485252979E1,-2.407416542E-1,-2.812656909E0,2.921239119E0,4.062343342E0
1.486256879E1,-2.145856151E-1,-2.846133681E0,1.625867429E0,3.284808794E0
1.487260879E1,-1.026217228E-1,-2.611905624E0,2.203219163E-1,2.623189652E0
1.488264879E1,1.460004067E-1,-2.292577629E0,-1.029732683E0,2.517454608E0
1.489268879E1,5.744222431E-1,-1.940676111E0,-1.978147554E0,2.830062265E0
1.490272879E1,1.032362103E0,-1.506050086E0,-2.590308933E0,3.169173195E0
1.491276879E1,1.482490193E0,-1.036000168E0,-2.753636284E0,3.294478153E0
1.492280879E1,1.845549952E0,-5.255240616E-1,-2.739156824E0,3.344429738E0
1.493284879E1,1.940490023E0,-9.899672315E-2,-2.743206021E0,3.361618829E0
1.494288779E1,1.801359035E0,2.676465024E-1,-2.761186209E0,3.307669618E0
1.495292779E1,1.517531825E0,4.937036602E-1,-2.746496834E0,3.176458878E0
1.496296779E1,1.121122983E0,5.410951969E-1,-2.762307120E0,3.029858310E0
1.497300779E1,6.523647872E-1,4.672882788E-1,-2.846174904E0,2.957135393E0
1.498304779E1,1.567704298E-1,3.925969693E-1,-2.912877016E0,2.943392916E0
1.499308779E1,-2.783303704E-1,3.441171196E-1,-2.973443061E0,3.006201594E0
1.500312779E1,-5.204857717E-1,3.764406739E-1,-2.996653583E0,3.064726043E0
1.501316779E1,-5.987225404E-1,3.901694977E-1,-2.989904727E0,3.074122833E0
1.502320679E1,-5.706511544E-1,4.765178163E-1,-2.939830341E0,3.032377682E0
1.503324679E1,-4.698230833E-1,5.331596482E-1,-2.904987953E0,2.990643400E0
1.504328679E1,-2.995070851E-1,5.426229282E-1,-2.803304873E0,2.871003717E0
1.505332679E1,-2.157925535E-1,5.235047257E-1,-2.608953364E0,2.669693106E0
1.506336679E1,-2.685435018E-1,4.522090405E-1,-2.510188045E0,2.564693481E0
1.507340679E1,-4.961625606E-1,3.328588906E-1,-2.370151908E0,2.444297935E0
1.508344679E1,-6.329640180E-1,1.049790095E-1,-2.163472130E0,2.256607121E0
1.509348679E1,-5.645802462E-1,-1.314495009E-1,-2.100430375E0,2.178953323E0
1.510352679E1,-5.054472081E-1,-2.219345784E-1,-2.282343686E0,2.348153431E0
1.511356579E1,-4.736329463E-1,-3.200561196E-2,-2.516884861E0,2.561261785E0
1.512360579E1,-3.273738003E-1,1.887780882E-1,-2.711239877E0,2.737449989E0
1.513364579E1,-8.712301986E-2,3.490116777E-1,-2.763750798E0,2.787062619E0
1.514368579E1,5.960669909E-2,5.135735223E-1,-2.680862423E0,2.730262634E0
1.515372579E1,1.078022096E-1,7.185663781E-1,-2.527344360E0,2.629720227E0
1.516376579E1,2.512179460E-2,9.003782398E-1,-2.167409061E0,2.347120388E0
1.517380579E1,-2.083525745E-1,9.685209601E-1,-1.563035004E0,1.850546424E0
1.518384579E1,-5.151128018E-1,8.628565107E-1,-8.695593202E-1,1.328907810E0
1.519388479E1,-6.891307636E-1,7.530326445E-1,-1.392239588E-1,1.030214873E0
1.520392479E1,-7.974464136E-1,7.830100036E-1,4.031374526E-1,1.188084700E0
1.521396479E1,-7.057699659E-1,9.142928588E-1,8.335375482E-1,1.424369166E0
1.522400479E1,-3.871039487E-1,1.133036465E0,1.298920366E0,1.766582921E0
1.523404479E1,7.746091627E-2,1.276727697E0,1.693118010E0,2.121952498E0
1.524408479E1,4.919350237E-1,1.300845708E0,2.048401850E0,2.475913924E0
1.525412479E1,6.640492782E-1,1.238462933E0,2.555340829E0,2.916250784E0
1.526416479E1,6.359937528E-1,1.089495467E0,3.170891839E0,3.412629994E0
1.527420379E1,4.362645605E-1,9.203039427E-1,3.630136834E0,3.770302315E0
1.528424379E1,1.142299625E-1,8.853864174E-1,3.714919122E0,3.820678169E0
1.529428379E1,-8.338187993E-2,1.000336099E0,3.540135321E0,3.679698757E0
1.530432379E1,-4.134759877E-2,1.155244921E0,3.434596002E0,3.623913651E0
1.531436379E1,1.027261869E-1,1.240446309E0,3.848921517E0,4.045176950E0
1.532440379E1,3.265123958E-1,1.148207944E0,4.772000987E0,4.919043123E0
1.533444379E1,4.695937628E-1,8.971521847E-1,5.814122751E0,5.901645847E0
1.534448379E1,3.944416197E-1,5.645627046E-1,6.415574954E0,6.452434985E0
1.535452279E1,2.812427406E-1,6.750464290E-2,6.415608868E0,6.422125155E0
1.536456279E1,-1.265904647E-1,-4.531039569E-1,5.901436883E0,5.920159257E0
1.537460279E1,-6.998802848E-1,-8.772127408E-1,4.949168113E0,5.074800451E0
1.538464279E1,-1.021918245E0,-1.242854631E0,3.832043529E0,4.156147512E0
1.539468279E1,-1.105324464E0,-1.560460767E0,2.722898641E0,3.327304763E0
1.540472279E1,-1.095071298E0,-1.713526839E0,1.658521789E0,2.624128408E0
1.541476279E1,-1.047185160E0,-1.763292199E0,7.031978488E-1,2.168013689E0
1.542480279E1,-8.978781896E-1,-1.768680701E0,-1.089722192E-1,1.986527526E0
1.543484179E1,-8.107016129E-1,-1.731730683E0,-7.732977784E-1,2.062551265E0
1.544488179E1,-7.736307042E-1,-1.699513402E0,-1.386296479E0,2.325654359E0
1.545492171E1,-7.045910210E-1,-1.694884454E0,-1.910514565E0,2.649367419E0
1.546496171E1,-5.664810298E-1,-1.649886767E0,-2.155310587E0,2.772794768E0
1.547500171E1,-3.282765008E-1,-1.564088379E0,-2.168201943E0,2.693554823E0
1.548504171E1,-9.658971682E-2,-1.492255628E0,-2.116665169E0,2.591607198E0
1.549508171E1,9.945335414E-2,-1.419619030E0,-2.177118362E0,2.600971650E0
1.550512171E1,2.233082356E-1,-1.374354418E0,-2.336171399E0,2.719634799E0
1.551516071E1,2.394476837E-1,-1.376179041E0,-2.563909923E0,2.919732529E0
1.552520071E1,1.959003258E-1,-1.414395273E0,-2.888214045E0,3.221904918E0
1.553524071E1,2.000399352E-1,-1.421978673E0,-3.135272940E0,3.448474406E0
1.554528071E1,1.847006420E-1,-1.394826835E0,-3.291771913E0,3.579862924E0
1.555532071E1,2.071943325E-1,-1.370605475E0,-3.447639386E0,3.715872199E0
1.556536071E1,2.414692123E-1,-1.317725450E0,-3.646576281E0,3.884871467E0
1.557540071E1,2.502446404E-1,-1.240266214E0,-3.845601468E0,4.048398858E0
1.558544071E1,2.924737801E-1,-1.127182818E0,-4.037227589E0,4.201819680E0
1.559547971E1,3.033479566E-1,-9.874830419E-1,-4.176470259E0,4.302330364E0
1.560551971E1,3.515200966E-1,-7.404156688E-1,-4.244104418E0,4.322522880E0
1.561555971E1,3.021145961E-1,-4.720495203E-1,-4.286538246E0,4.323021410E0
1.562559971E1,2.149411623E-1,-2.279469779E-1,-4.221341792E0,4.232952404E0
1.563563971E1,1.136126427E-1,-2.855034605E-2,-4.103287677E0,4.104959527E0
1.564567971E1,1.163795268E-1,1.877231044E-1,-3.925037062E0,3.931246634E0
1.565571971E1,1.591391551E-1,4.362012644E-1,-3.813795539E0,3.841956952E0
1.566575971E1,1.060051593E-1,6.699342084E-1,-3.714668861E0,3.776084438E0
1.567579871E1,-8.598438425E-2,8.958643354E-1,-3.348162460E0,3.467009963E0
1.568583871E1,-1.675884365E-1,1.156961079E0,-2.550620956E0,2.805764082E0
1.569587871E1,-6.105221302E-2,1.400779447E0,-1.610971062E0,2.135682138E0
1.570591871E1,7.849636680E-2,1.667396401E0,-6.869402504E-1,1.805064914E0
1.571595871E1,2.377211105E-1,1.988092644E0,1.731611985E-1,2.009728462E0
1.572599871E1,3.919435430E-1,2.240369594E0,8.160140276E-1,2.416351496E0
1.573603871E1,4.927435109E-1,2.397702088E0,1.291897275E0,2.767809610E0
1.574607771E1,3.972152464E-1,2.450157605E0,1.732545785E0,3.027006300E0
1.575611771E1,1.259459005E-1,2.331202435E0,2.184135606E0,3.197001018E0
1.576615771E1,-5.765124399E-2,2.071610180E0,2.604484338E0,3.328397673E0
1.577619771E1,-1.598553842E-1,1.754449748E0,2.950754110E0,3.436654984E0
1.578623771E1,-2.974342837E-1,1.406269105E0,3.172441936E0,3.482879238E0
1.579627771E1,-3.961913989E-1,1.054122297E0,3.280883228E0,3.468765803E0
1.580631771E1,-4.117599761E-1,7.148602666E-1,3.279740682E0,3.381903372E0
1.581635771E1,-3.300625693E-1,4.381603740E-1,3.297676431E0,3.342992022E0
1.582639671E1,-3.243829130E-1,3.474949099E-1,3.268834455E0,3.303218988E0
1.583643671E1,-2.938451349E-1,4.304312320E-1,3.023145563E0,3.067739413E0
1.584647671E1,-1.148321069E-1,5.114726177E-1,2.628714615E0,2.680472193E0
1.585651671E1,8.471393047E-2,6.835678688E-1,2.372766783E0,2.470721289E0
1.586655671E1,2.680725634E-1,8.232090265E-1,2.214200819E0,2.377440066E0
1.587659671E1,4.716746407E-1,8.381878388E-1,2.265137084E0,2.460870137E0
1.588663671E1,5.759083860E-1,8.130193761E-1,2.693610522E0,2.871969467E0
1.589667671E1,6.292659464E-1,7.322557332E-1,3.266960422E0,3.406641233E0
1.590671571E1,6.451846256E-1,5.255487661E-1,3.700553098E0,3.792961631E0
1.591675571E1,6.016991752E-1,2.249277681E-1,4.035445358E0,4.086251783E0
1.592679571E1,5.297362861E-1,-2.383206694E-1,4.455726846E0,4.493430650E0
1.593683571E1,3.390332580E-1,-8.647698659E-1,4.862433439E0,4.950356495E0
1.594687571E1,9.782716124E-2,-1.609631904E0,4.898674482E0,5.157276093E0
1.595691571E1,8.497990569E-2,-2.441408563E0,4.562209906E0,5.175080345E0
1.596695571E1,7.266538630E-2,-3.060354905E0,3.870400679E0,4.934678694E0
1.597699471E1,9.048251021E-3,-3.246074168E0,2.699659467E0,4.221994862E0
1.598703471E1,1.856690689E-1,-3.092698193E0,1.304982759E0,3.361879700E0
1.599707471E1,7.221646084E-1,-2.716093943E0,6.565546095E-2,2.811227253E0
1.600711471E1,1.329481569E0,-2.252668335E0,-9.357445389E-1,2.778066542E0
1.601715471E1,1.669574196E0,-1.829738642E0,-1.600995712E0,2.949340395E0
1.602719471E1,1.803962508E0,-1.530835264E0,-1.960621110E0,3.072746731E0
1.603723471E1,1.790078148E0,-1.345389065E0,-2.141518174E0,3.098475691E0
1.604727471E1,1.615729965E0,-1.209767722E0,-2.322409977E0,3.076964309E0
1.605731371E1,1.307661661E0,-1.080816590E0,-2.655884871E0,3.151486629E0
1.606735371E1,9.749129169E-1,-9.573836222E-1,-3.095132974E0,3.383324803E0
1.607739371E1,6.420022785E-1,-7.968243429E-1,-3.556920923E0,3.701186622E0
1.608743371E1,3.223087594E-1,-5.952497694E-1,-3.942043689E0,3.999739200E0
1.609747371E1,-1.675987422E-2,-4.185670853E-1,-4.127961758E0,4.149162274E0
1.610751371E1,-3.400844046E-1,-2.892472865E-1,-4.131898688E0,4.155948528E0
1.611755371E1,-5.674927809E-1,-2.655371194E-1,-4.081334891E0,4.129146705E0
1.612759271E1,-7.538556401E-1,-2.593664065E-1,-4.043018671E0,4.120869961E0
1.613763271E1,-8.508067149E-1,-1.580563787E-1,-3.955202263E0,4.048762629E0
1.614767271E1,-7.121158028E-1,-4.610617250E-2,-3.823185582E0,3.889213634E0
1.615771271E1,-4.748704364E-1,1.705973406E-1,-3.610237005E0,3.645328053E0
1.616775271E1,-2.728425210E-1,4.540246010E-1,-3.333360234E0,3.375184710E0
1.617779271E1,-7.420997400E-2,6.805317020E-1,-2.982263585E0,3.059824604E0
1.618783271E1,6.311046034E-3,7.476708940E-1,-2.634601007E0,2.738644566E0
1.619787271E1,-5.934909269E-2,6.435914786E-1,-2.288072788E0,2.377605810E0
1.620791171E1,-2.361438972E-1,3.731241332E-1,-2.058925669E0,2.105744635E0
1.621795171E1,-4.586114493E-1,9.328209311E-2,-1.922652799E0,1.978792510E0
1.622799171E1,-6.264889576E-1,-2.544722870E-2,-1.849329885E0,1.952730652E0
1.623803171E1,-6.690852658E-1,-2.015564471E-2,-1.844453307E0,1.962164454E0
1.624807171E1,-5.651001368E-1,6.663750082E-2,-1.797912979E0,1.885807466E0
1.625811171E1,-3.879507717E-1,2.257148033E-1,-1.668120579E0,1.727448766E0
1.626815171E1,-2.636200732E-1,4.420432176E-1,-1.379124869E0,1.472033679E0
1.627819071E1,-2.535513505E-1,6.301209556E-1,-8.489016920E-1,1.087186639E0
1.628823071E1,-4.220613082E-1,7.365668853E-1,-2.585030651E-1,8.874065354E-1
1.629827071E1,-4.678013354E-1,8.113095041E-1,1.509090346E-1,9.485961931E-1
1.630831071E1,-4.475542549E-1,9.185673197E-1,2.891313654E-1,1.061916983E0
1.631835071E1,-4.019376770E-1,1.133993509E0,2.004407984E-1,1.219701475E0
1.632839071E1,-2.466994553E-1,1.378515735E0,4.185436964E-3,1.400422711E0
1.633843071E1,-2.726607822E-2,1.538712487E0,-1.420247751E-1,1.545493640E0
1.634847071E1,2.029420911E-1,1.578311878E0,-1.914115280E-1,1.602776419E0
1.635850971E1,4.040679639E-1,1.499299183E0,3.346887767E-2,1.553154573E0
1.636854971E1,3.947593062E-1,1.353232374E0,7.290916586E-1,1.587024705E0
1.637858971E1,2.338256223E-1,1.255383021E0,1.833245949E0,2.234155693E0
1.638862971E1,1.577984068E-1,1.240466189E0,2.857329052E0,3.118971949E0
1.639866971E1,2.278935490E-1,1.359963835E0,3.559697181E0,3.817444318E0
1.640870971E1,3.535028144E-1,1.633699043E0,4.150519146E0,4.474454826E0
1.641874971E1,5.780343240E-1,1.849147013E0,4.668796461E0,5.054812435E0
1.642878871E1,7.492375092E-1,1.826133834E0,5.181597859E0,5.544824433E0
1.643882871E1,6.965024214E-1,1.550632913E0,5.732622505E0,5.979342676E0
1.644886867E1,4.001722930E-1,1.079426269E0,6.266610703E0,6.371476175E0
1.645890867E1,-2.012952959E-1,4.805500562E-1,6.693791322E0,6.714036820E0
