"Time (s)","Linear Acceleration x (m/s^2)","Linear Acceleration y (m/s^2)","Linear Acceleration z (m/s^2)","Absolute acceleration (m/s^2)"
6.109999958E-3,2.367180938E-1,-2.688333995E0,4.708544956E-1,2.739503437E0
1.614799991E-2,-4.976623714E-1,-7.561888254E-1,1.910274098E0,2.113914971E0
2.618499997E-2,7.321883440E-2,6.596495408E-1,2.473143595E0,2.560651822E0
3.622199991E-2,1.860659450E0,1.471847091E0,3.389253184E0,4.137079234E0
4.625899997E-2,1.409188620E0,2.030202391E0,2.619365794E0,3.601195840E0
5.629599991E-2,-2.365541671E0,3.154212656E0,-3.375591749E-1,3.957119037E0
6.633399997E-2,-4.225359121E0,3.281168572E0,-1.586036927E0,5.579896059E0
7.637099992E-2,-3.923291961E0,4.116475487E0,-1.000341215E0,5.773930446E0
8.640799997E-2,-1.270317833E0,3.769743785E0,-1.096512418E0,4.126380385E0
9.644499992E-2,-1.214536858E-1,2.032359429E0,-1.769289104E0,2.697335682E0
1.064830000E-1,-6.462988856E-1,-2.647683567E-1,-2.051292567E0,2.166934639E0
1.165199999E-1,-2.451921418E0,-1.594176105E0,7.678195220E-1,3.023716738E0
1.265570000E-1,-9.809052166E-1,-1.641884122E0,3.234945747E0,3.758035724E0
1.365939999E-1,1.677912911E0,-2.250675750E0,2.245582679E0,3.594937362E0
1.466320000E-1,2.968922286E0,-2.653927808E0,2.285835204E0,4.591609188E0
1.566689999E-1,3.264835837E0,-2.704428456E0,2.180551262E0,4.767377699E0
1.667060000E-1,3.209187885E0,-2.508146197E0,2.208409737E0,4.633223262E0
1.767429999E-1,3.267609171E0,-2.104674869E0,2.161083104E0,4.447157090E0
1.867810000E-1,2.881497641E0,-1.320932209E0,2.170124508E0,3.841527162E0
1.968179999E-1,1.216545961E0,-8.371423566E-1,2.455692580E0,2.865522194E0
2.068550000E-1,4.213269711E-1,-1.294744284E0,1.889566476E0,2.329021392E0
2.168919999E-1,6.802761787E-1,-1.748120429E0,3.970224345E-1,1.917375166E0
2.269299999E-1,-2.280004799E-2,-2.942929366E0,-1.771902371E0,3.435257065E0
2.369669999E-1,-9.296558332E-1,-3.848757210E0,-2.768912719E0,4.831570105E0
2.470039999E-1,-9.950820833E-1,-4.018884873E0,-1.043676977E0,4.269764116E0
2.570409999E-1,-2.234355587E-1,-3.470006740E0,1.198253531E0,3.677863748E0
2.670789999E-1,8.338796103E-1,-1.901026872E0,6.492865205E-1,2.175047439E0
2.771160000E-1,2.501760453E-1,-1.032681434E0,-1.082772630E0,1.517041716E0
2.871529999E-1,-1.007641903E0,-5.248010534E-1,-1.833467412E0,2.156933263E0
2.971900000E-1,-1.318946494E0,-5.010911787E-1,-1.036997849E0,1.751021634E0
3.072279999E-1,-1.679702159E0,-6.457331675E-1,1.797048175E-1,1.808497854E0
3.172650000E-1,-2.040512787E0,-3.629951477E-1,9.295219320E-1,2.271446440E0
3.273019999E-1,-1.288798251E0,-2.769182861E-1,-4.617601749E-1,1.396748770E0
3.373390000E-1,-1.635992467E-2,5.766173244E-2,-2.663844686E0,2.664518912E0
3.473759999E-1,3.353325552E-1,1.056394233E0,-4.439265765E0,4.575532453E0
3.574140000E-1,-4.571569544E-1,2.251803094E0,-4.645992320E0,5.183131707E0
3.674509999E-1,-1.565114858E0,3.375274830E0,-3.313437016E0,4.982060774E0
3.774880000E-1,-2.179553728E0,4.290520785E0,-1.536219673E0,5.051632799E0
3.875249999E-1,-2.127581921E0,4.951771878E0,-3.969984609E-1,5.404096348E0
3.975630000E-1,-2.047731174E0,4.989813863E0,-3.819366181E-1,5.407154606E0
4.075999999E-1,-1.884441538E0,4.674975214E0,-2.967105994E-1,5.049212844E0
4.176370000E-1,-2.035196790E0,4.384559215E0,2.425734955E-1,4.839961507E0
4.276739999E-1,-2.685069787E0,4.159189398E0,4.798979455E-1,4.973807218E0
4.377120000E-1,-3.249404742E0,4.185121799E0,3.179065369E-2,5.298573987E0
4.477489999E-1,-3.499799766E0,4.104341930E0,-4.835098437E-1,5.415533478E0
4.577860000E-1,-4.221190934E0,3.538460678E0,-1.264710646E0,5.651429013E0
4.678229999E-1,-4.634124811E0,3.231655519E0,-2.367447571E0,6.125644306E0
4.778610000E-1,-4.585369265E0,3.102669450E0,-3.109870881E0,6.350076056E0
4.878979999E-1,-3.866671325E0,3.428586819E0,-2.874713994E0,5.913572123E0
4.979350000E-1,-3.146664193E0,4.108836100E0,-2.713361832E0,5.843488861E0
5.079718332E-1,-2.737213502E0,4.019926847E0,-2.431978612E0,5.437524214E0
5.180098333E-1,-2.440292183E0,4.050658643E0,-1.591068310E0,4.989424791E0
5.280468332E-1,-2.091376692E0,4.400044397E0,-1.454288487E0,5.084211066E0
5.380838333E-1,-2.216772717E0,5.551523711E0,-1.191899947E0,6.095418138E0
5.481208332E-1,-1.686396343E0,5.973196253E0,-9.386102593E-1,6.277260176E0
5.581588333E-1,-1.064727246E0,5.826204852E0,-1.890367398E0,6.217056859E0
5.681958332E-1,-6.486139445E-1,5.447853747E0,-2.291095798E0,5.945496653E0
5.782328333E-1,-4.898180027E-1,-8.236859838E0,2.291179998E0,8.563602481E0
5.882698332E-1,-6.727101740E0,-4.164325241E1,1.388574203E1,4.440977596E1
5.983068333E-1,-4.593026487E0,-3.994498242E1,1.042944116E1,4.153878616E1
6.083448333E-1,8.571981894E0,-1.155089386E1,-4.656832181E-2,1.438416459E1
6.183818333E-1,1.143422202E1,3.077764989E0,-4.395219859E0,1.263059888E1
6.284188333E-1,3.452102566E0,7.498747680E0,-4.872270795E0,9.585783828E0
6.384558333E-1,-9.151725724E-1,4.523744583E0,-4.914529792E0,6.741988502E0
6.484938333E-1,-3.194930327E0,-4.383985019E-1,-4.829059871E0,5.806857350E0
6.585308333E-1,-2.922981589E0,-2.998181460E0,-3.202917624E0,5.271773397E0
6.685678333E-1,-3.939187324E-1,-7.922445112E-1,-1.500221143E0,1.741690791E0
6.786048333E-1,1.446194479E0,9.740309376E-1,1.806307241E-1,1.752952423E0
6.886428333E-1,1.651315388E0,9.519220304E-1,2.106105390E0,2.840541846E0
6.986798333E-1,1.138922711E0,7.451849502E-1,3.185951343E0,3.464495852E0
7.087168333E-1,1.075697646E0,-2.119615674E-3,3.914587795E0,4.059695497E0
7.187538333E-1,1.506189689E0,-1.052683005E0,4.267619580E0,4.646431509E0
7.287918333E-1,2.334908546E0,-1.319237686E0,3.791111265E0,4.643781931E0
7.388288333E-1,2.949027427E0,-1.183433179E0,2.758362004E0,4.207830533E0
7.488658333E-1,3.103657922E0,-1.969829305E0,2.118336449E0,4.242672424E0
7.589028333E-1,3.132847222E0,-3.281522328E0,1.873470114E0,4.908463179E0
7.689398333E-1,3.570113411E0,-4.149021674E0,1.738760937E0,5.743115898E0
7.789778332E-1,4.255279031E0,-4.970550796E0,9.852315715E-1,6.616982401E0
7.890148333E-1,4.854447020E0,-5.193081205E0,-9.502558663E-2,7.109344424E0
7.990518332E-1,5.132811030E0,-5.131483712E0,-5.228102227E-1,7.276757842E0
8.090888333E-1,4.105182175E0,-4.713536432E0,-1.422276735E-1,6.252213616E0
8.191268332E-1,3.231150320E0,-1.648335355E0,1.799420683E-1,3.631765546E0
8.291638333E-1,2.591399731E0,8.840095443E-1,7.153493862E-1,2.829938194E0
8.392008332E-1,2.378581254E0,2.418525338E0,1.534967784E0,3.723310313E0
8.492378333E-1,2.285185432E0,1.994203423E0,2.031261760E0,3.650334792E0
8.592758332E-1,1.872012404E0,1.515537486E0,2.929364995E0,3.792421863E0
8.693128333E-1,7.646848297E-1,9.621967578E-1,1.110269425E1,1.117051409E1
8.793498332E-1,-7.468375196E-1,-1.188803262E0,1.541816043E1,1.548194724E1
8.893868333E-1,-1.833618709E0,-3.281236399E0,2.084104364E0,4.297925183E0
8.994248332E-1,-3.276703638E0,-5.019995436E0,-4.881777198E0,7.731034182E0
9.094618333E-1,-6.273865929E0,-6.369874286E0,-6.094066971E0,1.082008985E1
9.194988332E-1,-8.399476168E0,-7.249097300E0,-7.056166665E0,1.314876799E1
9.295358333E-1,-1.004655028E1,-7.555939296E0,-5.482863951E0,1.371448826E1
9.395728332E-1,-9.597244381E0,-6.963084839E0,8.851807415E-1,1.189013016E1
9.496108333E-1,-6.411413491E0,-5.321938051E0,3.731579593E0,9.129837558E0
9.596478333E-1,-4.062285832E0,-3.234760975E0,1.224381815E0,5.335255905E0
9.696848333E-1,-3.275778608E0,-1.167311236E0,-1.169609776E0,3.668968253E0
9.797218333E-1,-2.415912071E0,2.982419121E-1,-1.893594477E0,3.084036222E0
9.897598333E-1,-1.701508911E0,2.555408657E-2,-3.613804976E0,3.994417603E0
9.997968333E-1,5.681499714E-1,-8.626397252E-1,-3.778418714E0,3.917063909E0
1.009833833E0,2.346543628E0,-1.312000002E0,-3.003533417E-1,2.705147526E0
1.019870833E0,3.170691279E0,-2.014114947E0,-6.059946129E-1,3.804887867E0
1.029908833E0,3.374297175E0,-1.768089840E0,-1.718791672E0,4.179266434E0
1.039945833E0,3.948404875E0,-8.695066953E-1,-2.189277647E0,4.597703727E0
1.049982833E0,4.174019983E0,-2.284466225E-1,-2.675227461E0,4.963010442E0
1.060019833E0,3.072710948E0,5.708531392E-1,-3.014290247E0,4.342046934E0
1.070057833E0,1.100133891E0,1.704375654E0,-2.586611738E0,3.287210251E0
1.080094833E0,-3.415729961E-1,3.058266279E0,-2.223030407E0,3.796251959E0
1.090131833E0,-1.006315023E0,4.076662381E0,-2.559684141E0,4.917705663E0
1.100168833E0,-1.141899529E0,4.954576787E0,-2.890139826E0,5.848476202E0
1.110205833E0,-1.064496061E0,5.730705788E0,-2.792325848E0,6.463066171E0
1.120243833E0,-8.557593066E-1,5.905222371E0,-3.145751443E0,6.745348573E0
1.130280833E0,-4.445864640E-1,5.833254256E0,-3.746012861E0,6.946734822E0
1.140317833E0,-2.023958150E-1,5.676489235E0,-4.274685355E0,7.108897874E0
1.150354833E0,-2.687564501E-1,5.331341543E0,-4.444925577E0,6.946423257E0
1.160392833E0,-3.011930019E-1,5.307189619E0,-4.318731261E0,6.848972082E0
1.170429833E0,-4.563088158E-1,5.287457020E0,-4.268486722E0,6.810682666E0
1.180466833E0,-2.840532048E-1,5.149277374E0,-3.825677665E0,6.421180055E0
1.190503833E0,-6.602471262E-2,4.856178673E0,-3.119343955E0,5.772099902E0
1.200541833E0,5.436907759E-1,5.136145113E0,-2.389450058E0,5.690787104E0
1.210578833E0,7.382812889E-1,5.314247208E0,-1.457566144E0,5.559746551E0
1.220615833E0,7.207742867E-1,5.412515514E0,-9.205476254E-2,5.461072591E0
1.230652833E0,6.639424203E-1,4.984137386E0,1.087641168E0,5.144454134E0
1.240689833E0,8.498932336E-1,3.094569302E0,2.799764091E0,4.258797558E0
1.250727833E0,8.400924231E-1,6.776414233E-1,2.902337117E0,3.096532564E0
1.260764833E0,2.733462220E-1,-1.812814023E0,3.986959368E0,4.388263648E0
1.270801833E0,-4.957610030E-1,-4.694703720E0,7.176325777E0,8.589858768E0
1.280838833E0,-1.015091109E0,-8.746713654E0,9.588920869E0,1.301855649E1
1.290876833E0,3.951203352E-1,-1.230510515E1,1.091792224E1,1.645517423E1
1.300913833E0,3.053417768E0,-1.368876688E1,9.785522386E0,1.710152470E1
1.310950833E0,4.577111535E0,-1.161832161E1,4.775339162E0,1.336933847E1
1.320987833E0,3.498733526E0,-6.239172644E0,1.023256307E0,7.226026919E0
1.331025833E0,1.266805411E0,-5.428823984E-1,1.286827154E0,1.885587805E0
1.341062833E0,-1.251164109E0,3.156064469E0,3.003175860E0,4.532683510E0
1.351099833E0,-3.142638385E0,4.714487189E0,3.663298440E0,6.747023117E0
1.361136833E0,-3.753256391E0,3.948458669E0,1.435380053E0,5.633611213E0
1.371174833E0,-3.530226045E0,2.094104857E0,-1.849380171E0,4.501997123E0
1.381211833E0,-3.441750948E0,5.125026047E-2,-4.223793529E0,5.448734528E0
1.391248833E0,-3.539597962E0,-2.198115714E0,-4.636295005E0,6.233433869E0
1.401285833E0,-3.111183581E0,-4.332617229E0,-2.782384120E0,6.016036629E0
1.411322833E0,-2.606716805E0,-5.772415146E0,6.159933516E-1,6.363583655E0
1.421360833E0,-3.214649769E0,-4.257029103E0,1.607844556E0,5.571484007E0
1.431397833E0,-4.437596970E0,8.524304867E-2,-9.561828965E-1,4.540244374E0
1.441434833E0,-5.286297517E0,3.627581601E0,-4.174416717E0,7.650493098E0
1.451471833E0,-5.744540884E0,5.642496446E0,-5.177083808E0,9.572863358E0
1.461509833E0,-5.616787409E0,5.421836561E0,-4.882561895E0,9.207824018E0
1.471546833E0,-3.728695162E0,3.334178844E0,-3.521239751E0,6.117110884E0
1.481583833E0,-8.113612519E-1,1.206929045E0,-2.541603673E0,2.928264679E0
1.491620833E0,1.353734212E-1,-8.291351795E-4,-4.291245547E0,4.293380370E0
1.501659000E0,1.763624029E-1,-3.775968146E-1,-5.984543359E0,5.999036779E0
1.511696000E0,4.510755578E-1,1.537607217E-1,-5.902879976E0,5.922086079E0
1.521733000E0,7.693608481E-1,7.514900029E-1,-5.428199501E0,5.533715132E0
1.531770000E0,1.227499696E0,6.369950885E-1,-4.780972078E0,4.976968179E0
1.541807000E0,1.633610166E0,-9.265562242E-1,-3.433933805E0,3.913960908E0
1.551845000E0,1.979484520E0,-3.521060534E0,-2.225819529E0,4.611995102E0
1.561882000E0,3.601088159E0,-5.392144400E0,-4.005437739E-1,6.496421513E0
1.571919000E0,4.512573477E0,-4.535096952E0,2.502059246E0,6.869550510E0
1.581956000E0,2.940570891E0,-2.679356180E0,3.105633988E0,5.046867263E0
1.591994000E0,1.741961557E0,-1.163385415E0,8.041418409E-1,2.243778017E0
1.602031000E0,1.545654740E0,-3.143708718E-1,-4.257316786E-1,1.633745721E0
1.612068000E0,1.105169220E0,3.399886930E-1,-2.298037612E-1,1.178898251E0
1.622105000E0,2.735549676E-1,8.749457753E-1,-1.307926832E0,1.597195989E0
1.632143000E0,6.940206438E-2,5.800607497E-1,-1.209868514E0,1.343528541E0
1.642180000E0,5.891949776E-1,7.984250182E-1,-8.997813852E-1,1.339492356E0
1.652217000E0,9.902531603E-1,9.288430703E-1,-7.240355712E-1,1.538693692E0
1.662254000E0,2.250277555E-1,7.855541271E-1,-5.578256158E-1,9.893948630E-1
1.672291000E0,-3.137174454E-1,8.075232857E-1,-2.230712771E-2,8.666083894E-1
1.682329000E0,-2.419621691E-1,6.548150629E-1,5.723500995E-1,9.027253703E-1
1.692366000E0,-2.901784556E-1,6.056306237E-1,2.145267044E-1,7.049919824E-1
1.702403000E0,6.119052708E-2,1.314288602E0,-1.726354973E-1,1.326989761E0
1.712440000E0,1.748605455E-1,1.536596818E0,1.089119344E0,1.891530316E0
1.722478000E0,2.526080485E-1,1.959952773E0,1.375370956E0,2.407669198E0
1.732515000E0,4.819465175E-1,2.287952920E0,1.126833301E0,2.595525823E0
1.742552000E0,2.243494785E-1,2.230627402E0,5.658876836E-1,2.312198124E0
1.752589000E0,-2.192208856E-2,2.485042094E0,3.074150606E-1,2.504080431E0
1.762626000E0,-5.518587515E-2,2.974048247E0,2.380296242E-1,2.984068793E0
1.772664000E0,-2.029100776E-1,3.109847492E0,3.266746560E-1,3.133534786E0
1.782701000E0,-4.568330187E-1,2.896135853E0,6.911841595E-1,3.012313866E0
1.792738000E0,-9.464988841E-1,2.108737514E0,8.979368810E-1,2.479702539E0
1.802775000E0,-1.283720821E0,1.264289061E0,1.146302190E0,2.135503380E0
1.812813000E0,-1.508938026E0,1.888574642E-1,2.120116342E0,2.609109889E0
1.822850000E0,-1.677478024E0,-9.229438144E-1,4.008486185E0,4.442265109E0
1.832887000E0,-1.543086496E0,-1.355037848E0,5.724824073E0,6.082010702E0
1.842924000E0,-9.423505770E-1,-2.030810502E0,6.610200112E0,6.979037285E0
1.852962000E0,4.755344608E-1,-2.739150977E0,6.593903922E0,7.156021941E0
1.862999000E0,1.945203464E0,-2.999262026E0,4.935982057E0,6.094530998E0
1.873036000E0,2.854601618E0,-3.002954543E0,3.236744936E0,5.257661473E0
1.883073000E0,3.362758865E0,-2.917271199E0,2.428007329E0,5.070881385E0
1.893110000E0,3.941202275E0,-2.725987725E0,1.522087537E0,5.028005063E0
1.903148000E0,4.236667929E0,-2.554000647E0,6.358051801E-1,4.987636983E0
1.913185000E0,3.665399637E0,-2.754039157E0,8.836780071E-2,4.585596477E0
1.923222000E0,2.693064392E0,-2.757279099E0,-5.290414542E-3,3.854245950E0
1.933259000E0,1.002338770E0,-2.815720266E0,1.393596435E0,3.297737808E0
1.943297000E0,-1.080234500E0,-3.637083326E0,3.902830214E0,5.443102551E0
1.953334000E0,-2.129181280E0,-4.251650834E0,5.362116609E0,7.166745584E0
1.963371000E0,-2.363538561E0,-3.909734899E0,5.245838878E0,6.956375999E0
1.973408000E0,-1.922524161E0,-3.070491638E0,4.049118487E0,5.433173894E0
1.983446000E0,-9.050460720E-1,-2.323715075E0,3.042128256E0,3.933612140E0
1.993483000E0,-3.836011742E-1,-2.127252722E0,2.777117532E0,3.519195333E0
2.003520000E0,-1.745114668E-1,-2.361207422E0,2.992790912E0,3.816091218E0
2.013557000E0,4.195008856E-1,-2.537552429E0,3.222601690E0,4.123143822E0
2.023594000E0,5.794093698E-1,-1.868174291E0,3.459951868E0,3.974551211E0
2.033632000E0,4.568723412E-1,-7.677897012E-1,2.943869598E0,3.076459259E0
2.043669000E0,2.262730663E-1,-9.540492475E-2,1.201905702E0,1.226735064E0
2.053706000E0,2.708649561E-2,3.373744029E-1,-1.148903031E0,1.197720060E0
2.063743000E0,-8.269059286E-2,-1.503073561E-1,-3.475353434E0,3.479584965E0
2.073781000E0,-1.051427461E0,-3.660772151E0,-2.774283972E0,4.712048812E0
2.083818000E0,-2.506402557E0,-6.622333669E0,-3.858473090E-1,7.091278809E0
2.093855000E0,-2.918627168E0,-6.391245859E0,-1.107481356E0,7.112870246E0
2.103892000E0,-3.553082811E0,-5.622382609E0,-2.522578295E0,7.113296347E0
2.113930000E0,-4.230700845E0,-4.808257232E0,-2.560391654E0,6.897374332E0
2.123967000E0,-4.696166108E0,-3.965678719E0,-1.761682461E0,6.394068260E0
2.134004000E0,-4.751181976E0,-3.313625296E0,-1.116221774E0,5.899135006E0
2.144041000E0,-3.946662989E0,-2.954975215E0,-5.826045808E-1,4.964620365E0
2.154078000E0,-2.281253911E0,-1.983580202E0,-6.638023795E-1,3.095051441E0
2.164116000E0,-1.457242208E0,-9.888144529E-1,-2.427422754E0,2.998948166E0
2.174153000E0,-6.338025087E-1,-7.712728876E-1,-2.194542188E0,2.410929883E0
2.184190000E0,7.203301907E-1,-8.535098827E-1,-2.779994655E0,2.995951432E0
2.194227000E0,1.443854131E0,-1.102974322E0,-2.724449907E0,3.274735776E0
2.204265000E0,2.312348965E0,-9.842448539E-1,-3.434723179E0,4.255939260E0
2.214302000E0,3.102270670E0,-9.725714725E-1,-4.069329388E0,5.208591004E0
2.224339000E0,3.696110968E0,-6.480767316E-1,-3.166338612E0,4.909881866E0
2.234376000E0,3.217597935E0,-1.240966272E-1,-3.299308681E0,4.610181582E0
2.244414000E0,2.182618984E0,5.428701192E-1,-4.984132708E0,5.468099528E0
2.254451000E0,9.351196177E-1,2.104072605E0,-5.441424733E0,5.908525481E0
2.264488000E0,-1.966469787E-1,3.873554083E0,-5.097822461E0,6.405535505E0
2.274525000E0,-1.227104424E0,5.081549660E0,-5.321895951E0,7.459926858E0
2.284562000E0,-1.813654414E0,6.108070468E0,-5.742177440E0,8.577322946E0
2.294600000E0,-2.053865927E0,6.816173546E0,-5.985366647E0,9.300709702E0
2.304637000E0,-2.201704442E0,7.184169817E0,-6.214438337E0,9.750848284E0
2.314674000E0,-1.872440274E0,7.454966068E0,-6.320279957E0,9.951305964E0
2.324711000E0,-1.556604090E0,7.298365354E0,-6.330148888E0,9.785700694E0
2.334749000E0,-1.127774848E0,6.977906361E0,-6.247919494E0,9.433957351E0
2.344786000E0,-7.010928512E-1,6.524368833E0,-5.645720601E0,8.656389603E0
2.354823000E0,-5.426504101E-1,6.435398769E0,-4.514573810E0,7.879733718E0
2.364860000E0,-6.005917856E-1,6.604536499E0,-3.456389744E0,7.478451907E0
2.374898000E0,1.275283581E-1,6.793910857E0,-2.681294532E0,7.304986556E0
2.384935000E0,9.348086920E-1,6.398851917E0,-1.619374388E0,6.666449322E0
2.394972000E0,1.855358803E0,5.125588549E0,2.777553150E-1,5.458128093E0
2.405009000E0,2.255479677E0,3.469481660E0,1.696927764E0,4.472589339E0
2.415046000E0,1.096646465E0,8.895655686E-1,3.668519127E0,3.930902308E0
2.425084000E0,5.710890743E-1,-2.524245921E0,8.145416987E0,8.546682286E0
2.435121000E0,1.316174183E0,-7.021911337E0,1.264155043E1,1.452061812E1
2.445158000E0,2.816718970E0,-1.241863586E1,1.342979603E1,1.850718358E1
2.455195000E0,3.851592818E0,-1.756137079E1,9.201744561E0,2.019674761E1
2.465233000E0,3.285520654E0,-1.672099024E1,3.859674547E0,1.747235669E1
2.475270000E0,2.309592003E0,-9.391112487E0,3.151466219E0,1.017147719E1
2.485307000E0,9.280979888E-1,-1.954658119E0,4.037204785E0,4.580510530E0
2.495344000E0,-1.584560359E0,3.786568564E0,5.065178041E0,6.519582932E0
2.505381333E0,-4.799395485E0,7.582385668E0,5.496271031E0,1.052310623E1
2.515418333E0,-6.098334854E0,7.100150006E0,3.256780712E0,9.910017089E0
2.525455333E0,-5.479273760E0,3.855658679E0,-2.045379424E0,7.005149661E0
2.535492333E0,-4.460570388E0,1.599740900E0,-6.776599005E0,8.269108368E0
2.545529333E0,-2.943540692E0,-1.148567401E0,-7.059314221E0,7.734181027E0
2.555567333E0,-1.669964059E0,-5.176307298E0,-1.957061325E0,5.780400179E0
2.565604333E0,-2.334657993E0,-9.447532856E0,4.753976360E0,1.083082620E1
2.575641333E0,-3.545517975E0,-1.028631653E1,5.833582284E0,1.234543185E1
2.585678333E0,-4.629347051E0,-5.474145167E0,1.331232664E-1,7.170414300E0
2.595716333E0,-3.730531188E0,9.062453359E-1,-4.280913517E0,5.750162093E0
2.605753333E0,-1.703813445E0,5.665627447E0,-6.497121978E0,8.787201410E0
2.615790333E0,-6.422974898E-1,7.251604001E0,-7.520380039E0,1.046682486E1
2.625827333E0,-7.488390215E-1,5.174765972E0,-4.763978899E0,7.073503919E0
2.635865333E0,8.040949170E-1,1.630325346E0,-2.830452325E0,3.363924752E0
2.645902333E0,2.046155350E0,-1.399197775E-1,-3.913961851E0,4.418758494E0
2.655939333E0,1.767889280E0,-7.579418206E-1,-5.467678732E0,5.796155538E0
2.665976333E0,1.448318772E0,-8.066549742E-1,-6.184810495E0,6.403139884E0
2.676013333E0,1.565627074E0,-5.835679096E-1,-5.530546825E0,5.777429171E0
2.686051333E0,1.712614089E0,-1.300175178E0,-4.557985293E0,5.039715512E0
2.696088333E0,2.020973438E0,-2.801335530E0,-3.907363560E0,5.215295235E0
2.706125333E0,2.651529573E0,-4.338467953E0,-3.612353404E0,6.237147615E0
2.716162333E0,3.298908147E0,-4.066298191E0,-3.128018007E0,6.099350178E0
2.726200333E0,2.245017400E0,-1.996156393E0,-8.891184027E-1,3.132933929E0
2.736237333E0,-2.427977362E-1,-6.677455956E-1,3.967218291E0,4.030341907E0
2.746274333E0,-1.568080274E0,-2.989850932E-1,5.251695449E0,5.488950075E0
2.756311333E0,-4.154022798E-1,-2.073463601E-1,2.043439172E0,2.095517887E0
2.766349333E0,9.743890795E-1,3.873172259E-1,-8.830026537E-3,1.048583178E0
2.776386333E0,1.254247638E0,3.547534972E-1,-1.386304665E0,1.902847289E0
2.786423333E0,8.634095111E-1,5.318972343E-1,-1.993545758E0,2.236652709E0
2.796460333E0,6.797996306E-1,1.087677421E0,-2.128346883E0,2.484960797E0
2.806497333E0,8.699083990E-1,1.476124329E0,-1.744934427E0,2.445501955E0
2.816535333E0,9.592155549E-1,1.619136114E0,-1.086777534E0,2.173196182E0
2.826572333E0,9.131438810E-1,1.675484562E0,-6.815853703E-1,2.026237617E0
2.836609333E0,1.560849022E0,1.985894530E0,-4.755780226E-1,2.570253141E0
2.846646333E0,1.667592136E0,1.920547802E0,-2.565214437E-1,2.556397982E0
2.856684333E0,1.309456317E0,1.714269143E0,6.347090464E-2,2.158106369E0
2.866721333E0,1.092019417E0,1.797643422E0,4.062290948E-2,2.103729664E0
2.876758333E0,1.080386820E0,2.152857095E0,-2.417414367E-1,2.420840407E0
2.886795333E0,8.889951727E-1,2.488666783E0,-1.041241758E0,2.840415317E0
2.896833333E0,3.408495493E-1,2.482839448E0,-1.592879777E0,2.969500989E0
2.906870333E0,-8.834543511E-2,2.425188825E0,-1.189821846E0,2.702780380E0
2.916907333E0,-6.006438258E-1,2.346531495E0,-2.280612910E-1,2.432898481E0
2.926944333E0,-1.652677936E0,1.908163399E0,8.271026874E-1,2.656413140E0
2.936981333E0,-2.935025684E0,1.049117373E0,2.288081266E0,3.866566812E0
2.947019333E0,-4.007852639E0,2.099442780E-1,4.387341321E0,5.946067881E0
2.957056333E0,-4.529416674E0,-4.435230017E-1,6.041729128E0,7.564047787E0
2.967093333E0,-3.895723801E0,-8.983504254E-1,6.767715915E0,7.860386513E0
2.977130333E0,-2.274620537E0,-1.322650706E0,6.706012588E0,7.203742659E0
2.987168333E0,-8.530480988E-1,-1.937966073E0,6.121515555E0,6.477372635E0
2.997205333E0,8.582209843E-1,-2.324471120E0,5.545086511E0,6.073523991E0
3.007242333E0,3.576400922E0,-2.242330019E0,4.424320574E0,6.115006134E0
3.017279333E0,5.553015336E0,-2.296841857E0,3.039664824E0,6.734316898E0
3.027317333E0,6.845804311E0,-2.415873626E0,1.677210660E0,7.450806509E0
3.037354333E0,7.045703657E0,-3.026371472E0,9.080711290E-1,7.721752229E0
3.047391333E0,6.416877129E0,-3.554749852E0,4.610281035E-1,7.350177244E0
3.057428333E0,5.216950125E0,-4.023364425E0,6.752598524E-1,6.622688711E0
3.067465333E0,4.563108623E0,-3.696493376E0,1.148495773E0,5.983733460E0
3.077503333E0,3.647354253E0,-3.431865352E0,2.018873118E0,5.399698279E0
3.087540333E0,1.219723192E0,-3.592171447E0,3.973667770E0,5.493765186E0
3.097577333E0,-1.140472077E0,-3.650404453E0,4.522811952E0,5.923002379E0
3.107614333E0,-1.997277451E0,-3.573394868E0,3.790271313E0,5.578926844E0
3.117652333E0,-1.632255073E0,-3.391490913E0,2.281708386E0,4.401438446E0
3.127689333E0,-1.439844256E0,-3.448199549E0,2.079323242E0,4.276308777E0
3.137726333E0,-7.280933927E-1,-3.390472328E0,3.800501894E0,5.144826259E0
3.147763333E0,-3.476149240E-1,-2.909414295E0,4.150871733E0,5.080872349E0
3.157801333E0,-1.095082043E0,-1.996972080E0,3.633223579E0,4.288055007E0
3.167838333E0,-1.325453130E0,-7.205681723E-1,1.796793091E0,2.346169197E0
3.177875333E0,-1.523759695E0,1.212700832E-1,-1.209298483E-1,1.533353863E0
3.187912333E0,-1.122400380E0,-4.129572666E-1,-5.077640212E-1,1.299284657E0
3.197949333E0,-5.690235454E-1,-1.260739802E0,-1.307376609E0,1.903283016E0
3.207987333E0,-1.713292658E-1,-2.032306804E0,-3.218130909E0,3.809985723E0
3.218024333E0,-2.250296558E-1,-3.795133565E0,-3.656518301E0,5.274827316E0
3.228061333E0,-1.647792879E0,-5.659275616E0,-2.130735324E0,6.267587646E0
3.238098333E0,-2.949371535E0,-6.253536329E0,-7.479329954E-1,6.954488683E0
3.248136333E0,-3.941875289E0,-6.518721008E0,2.743099894E-1,7.622817743E0
3.258173333E0,-5.049146145E0,-6.397606460E0,1.350814989E-1,8.151165084E0
3.268210333E0,-5.246865649E0,-5.559560124E0,-7.277064532E-1,7.679053626E0
3.278247333E0,-4.201633459E0,-4.247316293E0,-1.938981442E0,6.281167762E0
3.288285333E0,-3.679130654E0,-3.514344422E0,-1.905691781E0,5.433072818E0
3.298322333E0,-2.926696326E0,-2.040261356E0,-1.384339708E0,3.826828218E0
3.308359333E0,-6.379721582E-1,-5.305763483E-1,-2.131063645E0,2.286908830E0
3.318396333E0,1.295457937E0,2.216691148E-1,-3.874222419E0,4.091081497E0
3.328433333E0,1.921991041E0,-2.756389153E-1,-3.060443197E0,3.624408771E0
3.338471333E0,2.200239569E0,-4.295113188E-1,-3.823862105E0,4.432545040E0
3.348508333E0,3.217558759E0,-2.990733862E-1,-5.068667074E0,6.011115967E0
3.358545333E0,2.866462695E0,9.122358084E-2,-2.949142617E0,4.113681113E0
3.368582333E0,2.472347789E0,4.200826836E-1,-3.697293860E0,4.467544620E0
3.378620333E0,1.962523209E0,1.256572491E0,-4.771979937E0,5.310580410E0
3.388657333E0,5.717501020E-1,2.923687348E0,-4.641652809E0,5.515413556E0
3.398694333E0,-1.921872342E-1,4.748098739E0,-4.495792553E0,6.541676256E0
3.408731333E0,-8.716516002E-1,5.495019727E0,-4.617353827E0,7.230143476E0
3.418769333E0,-1.642909431E0,6.099365718E0,-4.866261612E0,7.973826912E0
3.428806333E0,-2.078042848E0,6.676312240E0,-5.278861613E0,8.761152158E0
3.438843333E0,-2.440996919E0,7.187348363E0,-6.055529727E0,9.710091798E0
3.448880333E0,-2.476193795E0,7.358078290E0,-7.098046178E0,1.051927333E1
3.458918333E0,-2.166562968E0,7.180200727E0,-7.510719854E0,1.061415047E1
3.468955333E0,-1.515341020E0,6.511452334E0,-7.167821002E0,9.801679847E0
3.478992333E0,-8.754599648E-1,5.481322040E0,-6.208071304E0,8.327753045E0
3.489029333E0,-3.955063976E-1,4.855154241E0,-5.266483642E0,7.173896986E0
3.499066333E0,-1.035030992E-1,4.937505841E0,-4.430941084E0,6.634976693E0
3.509104500E0,-1.426230915E-1,5.540176020E0,-3.252859862E0,6.426117720E0
3.519141500E0,6.234008968E-3,5.990156686E0,-2.065592372E0,6.336299222E0
3.529178500E0,8.000521521E-1,5.655362075E0,-4.139612335E-1,5.726654132E0
3.539215500E0,1.143260468E0,4.643179225E0,1.304716418E0,4.956656408E0
3.549253500E0,6.629182805E-1,2.701624716E0,3.200612066E0,4.240537036E0
3.559290500E0,2.502707702E-1,-5.872849846E-1,5.706203615E0,5.741802749E0
3.569327500E0,-1.087674205E-1,-5.304013411E0,8.222428325E0,9.785331685E0
3.579364500E0,2.438737701E-1,-1.051211494E1,1.220651993E1,1.611096408E1
3.589402500E0,2.154275045E0,-1.587166813E1,1.383019348E1,2.116187615E1
3.599439500E0,4.885166245E0,-1.709066057E1,8.150451440E0,1.955467685E1
3.609476500E0,5.219146923E0,-1.201044524E1,3.584140004E0,1.357705230E1
3.619513500E0,3.028994533E0,-4.350760555E0,3.683420464E0,6.455347519E0
3.629551500E0,1.344331889E-1,3.003791864E0,5.769501479E0,6.505996093E0
3.639588500E0,-3.503849255E0,6.876871737E0,5.595255037E0,9.532848652E0
3.649625500E0,-2.610398504E0,4.356159289E0,2.591007675E0,5.701195039E0
3.659662500E0,-3.233124340E0,1.566436329E0,1.495364007E-1,3.595716466E0
3.669699500E0,-3.238291232E0,-5.799847358E-1,-2.756503174E0,4.291995124E0
3.679737500E0,-2.831738128E0,-3.104743457E0,-3.426246763E0,5.421931357E0
3.689774500E0,-2.001853043E0,-6.224850474E0,-3.891994447E-1,6.550393518E0
3.699811500E0,-1.887767872E0,-9.022933198E0,3.211077413E0,9.761557724E0
3.709848500E0,-3.403233876E0,-7.183756419E0,1.907496524E0,8.174772174E0
3.719886500E0,-5.568011690E0,-1.441312346E0,-1.917652261E0,6.062798500E0
3.729923500E0,-5.759574076E0,3.545329403E0,-5.000070464E0,8.410871462E0
3.739960500E0,-3.689298669E0,6.848288793E0,-6.950451930E0,1.043162337E1
3.749997500E0,-3.316198071E0,6.373557447E0,-7.051683605E0,1.006705746E1
3.760035500E0,-4.021182244E0,4.132709697E0,-3.939211298E0,6.983307363E0
3.770072500E0,-1.138866870E0,1.766193588E0,-3.244487234E0,3.865637716E0
3.780109500E0,1.394039508E0,-5.287321365E-1,-5.695824223E0,5.887725995E0
3.790146500E0,7.820928678E-1,-2.238884255E0,-7.327264048E0,7.701497932E0
3.800183500E0,5.674485978E-1,-2.608237081E0,-7.427318678E0,7.892398959E0
3.810221500E0,1.665500295E0,-1.744152508E0,-6.887601378E0,7.297603165E0
3.820258500E0,1.635010720E0,-2.030714607E0,-5.847361833E0,6.402241973E0
3.830295500E0,1.424845563E0,-2.872359905E0,-4.850448402E0,5.814420521E0
3.840332500E0,1.891040413E0,-3.015742988E0,-3.729243046E0,5.155384885E0
3.850370500E0,2.312744237E0,-2.010962128E0,-3.149611482E0,4.394633895E0
3.860407500E0,1.414237983E0,-9.714067072E-1,-1.541045526E0,2.306191964E0
3.870444500E0,-8.301818311E-1,-3.436192292E-1,3.672373027E0,3.780687728E0
3.880481500E0,-2.759398715E0,-1.893071151E-1,5.909385003E0,6.524641720E0
3.890519500E0,-2.001004320E0,-1.535595775E-1,1.879150246E0,2.749328005E0
3.900556500E0,-7.835678279E-1,2.163370389E-1,1.084453851E-1,8.200857619E-1
3.910593500E0,-1.284639126E-1,4.507548380E-1,-6.687899083E-1,8.166779305E-1
3.920630500E0,2.181656094E-1,8.514025462E-1,-1.366711230E0,1.624925264E0
3.930668500E0,6.247128658E-1,1.800134920E0,-2.480462555E0,3.127850121E0
3.940705500E0,8.568151675E-1,2.061057563E0,-2.899475783E0,3.659105126E0
3.950742500E0,1.602182843E0,1.623215716E0,-2.010254615E0,3.040220838E0
3.960779500E0,2.239477017E0,9.949756640E-1,-6.680567405E-1,2.539986947E0
3.970816500E0,2.011909377E0,6.259701633E-1,-7.762419976E-2,2.108469469E0
3.980854500E0,1.662148525E0,5.729756784E-1,1.524498125E-1,1.764732215E0
3.990891500E0,1.921908303E0,1.036671574E0,5.002433324E-1,2.240237235E0
4.000928500E0,2.468682754E0,1.784860239E0,7.174931216E-1,3.129683210E0
4.010965500E0,2.265268939E0,2.122695403E0,3.631962919E-1,3.125570457E0
4.021003500E0,1.460739428E0,2.348610181E0,8.552841106E-2,2.767136528E0
4.031040500E0,9.641647844E-1,2.671594001E0,2.033509576E-1,2.847521703E0
4.041077500E0,2.859611513E-1,2.842907479E0,-1.409928147E-1,2.860729923E0
4.051114500E0,-3.378151368E-1,2.664411866E0,2.738258399E-2,2.685881506E0
4.061152500E0,-1.212783716E0,2.139971001E0,1.381366106E0,2.821080032E0
4.071189500E0,-2.376344840E0,1.447800416E0,2.910057489E0,4.026360072E0
4.081226500E0,-3.330507377E0,1.071619213E0,4.254360434E0,5.508196604E0
4.091263500E0,-4.178021233E0,7.352113545E-1,5.626164004E0,7.046284024E0
4.101301500E0,-4.266078546E0,9.524821937E-2,6.326460464E0,7.631028790E0
4.111338500E0,-3.464320323E0,-1.029461372E0,6.358281012E0,7.313620406E0
4.121375500E0,-1.681549879E0,-2.019746400E0,6.420323478E0,6.937401464E0
4.131412500E0,9.103180678E-1,-2.915343956E0,5.829565247E0,6.581165576E0
4.141449500E0,3.310354949E0,-3.624780784E0,4.651196634E0,6.762478521E0
4.151487500E0,5.198802121E0,-3.696382864E0,3.201741164E0,7.137361995E0
4.161524500E0,5.973121993E0,-3.005980477E0,2.293819577E0,7.069350269E0
4.171561500E0,5.322152059E0,-2.372563884E0,1.587987996E0,6.039542019E0
4.181598500E0,4.176957332E0,-2.646870804E0,1.113801173E0,5.068870748E0
4.191636500E0,2.989837484E0,-3.095470943E0,-1.423943192E-2,4.303634661E0
4.201673500E0,1.128831294E0,-3.497024385E0,-1.353992951E-1,3.677196297E0
4.211710500E0,-4.974105026E-1,-3.725993748E0,2.225183352E0,4.368281993E0
4.221747500E0,-1.719756609E0,-3.621599899E0,4.054246495E0,5.701794740E0
4.231785500E0,-2.595640424E0,-3.885437379E0,4.383680964E0,6.407076683E0
4.241822500E0,-2.426134320E0,-4.123333102E0,5.156800987E0,7.034244808E0
4.251859500E0,-1.474085843E0,-3.289746437E0,4.928459029E0,6.106150104E0
4.261896500E0,-6.467166692E-2,-2.032768149E0,3.243998114E0,3.828818687E0
4.271934500E0,7.335717952E-1,-1.689042501E0,2.197765027E0,2.867257097E0
4.281971500E0,8.316556218E-1,-1.982741711E0,2.128083758E0,3.025170449E0
4.292008500E0,2.517037766E-1,-1.915706892E0,2.293921173E0,2.999226906E0
4.302045500E0,-4.768864833E-1,-1.340283569E0,2.433512629E0,2.818823244E0
4.312082500E0,-6.693810618E-1,-1.026127875E0,2.726185945E0,2.988829073E0
4.322120500E0,-1.301845289E0,-1.075466096E0,1.787223684E0,2.458779570E0
4.332157500E0,-9.004276487E-1,-4.599829137E-1,-1.359741933E0,1.694477016E0
4.342194500E0,-4.241922529E-1,-1.177306466E0,-3.579276583E0,3.791729215E0
4.352231500E0,-1.563701148E0,-4.145842543E0,-3.078102373E0,5.395172462E0
4.362269500E0,-1.831557126E0,-5.451012998E0,-1.998440900E0,6.087849394E0
4.372306500E0,-1.931073229E0,-5.524817723E0,-8.528890546E-1,5.914395525E0
4.382343500E0,-2.249781126E0,-5.739591801E0,3.283433783E-1,6.173511038E0
4.392380500E0,-3.132555154E0,-5.782298695E0,-6.667990775E-1,6.610030333E0
4.402418500E0,-3.820782377E0,-5.558967801E0,-2.359259130E0,7.146090164E0
4.412455500E0,-3.791962035E0,-5.152275826E0,-2.878971351E0,7.015226177E0
4.422492500E0,-3.104735856E0,-4.059108455E0,-1.734202302E0,5.396591869E0
4.432529500E0,-1.963602751E0,-3.037221565E0,-9.217498130E-1,3.732301343E0
4.442567500E0,-7.156845778E-2,-1.907538332E0,-2.774080489E0,3.367394703E0
4.452604500E0,1.205308782E0,-8.013398552E-1,-2.934974813E0,3.272459622E0
4.462641500E0,1.267280058E0,-4.619528407E-1,-2.413736761E0,2.765054127E0
4.472678500E0,1.438466360E0,-1.141996300E-1,-2.850068857E0,3.194545275E0
4.482716500E0,2.636751905E0,2.855610555E-1,-3.378950682E0,4.295499207E0
4.492753500E0,1.814850023E0,1.938340294E-1,-3.406770857E0,3.864885498E0
4.502790750E0,1.261024415E0,1.292795992E-1,-5.451176135E0,5.596625505E0
4.512827750E0,2.204911932E0,1.181894192E0,-5.894286908E0,6.403212371E0
4.522865750E0,1.555402925E0,2.523157169E0,-5.233287245E0,6.014390721E0
4.532902750E0,-4.255787739E-1,4.082731791E0,-4.992711743E0,6.463511949E0
4.542939750E0,-2.612639157E0,7.223273656E0,-5.576825198E0,9.492236036E0
4.552976750E0,-3.898929244E0,8.496967964E0,-6.089747048E0,1.115729057E1
4.563013750E0,-1.854564604E0,6.177714899E0,-6.563987228E0,9.202689801E0
4.573051750E0,8.997324148E-1,5.521647363E0,-6.247410786E0,8.386193985E0
4.583088750E0,1.322058967E0,5.342638364E0,-6.090880823E0,8.209168886E0
4.593125750E0,3.894536524E-1,5.265199009E0,-6.072746853E0,8.046878221E0
4.603162750E0,-1.521316874E-1,5.618557945E0,-5.919687213E0,8.162967238E0
4.613200750E0,-1.463043523E-1,5.756480314E0,-5.712364826E0,8.111077763E0
4.623237750E0,-1.246449499E-1,5.717807999E0,-5.232872093E0,7.751891061E0
4.633274750E0,-4.082786170E-1,5.729331107E0,-4.418414009E0,7.246675701E0
4.643311750E0,-6.467554070E-1,5.987246527E0,-3.323944463E0,6.878518759E0
4.653349750E0,-2.778972562E-1,6.005843012E0,-2.152839553E0,6.386086071E0
4.663386750E0,1.369094847E-1,5.266409968E0,-7.345102733E-1,5.319146877E0
4.673423750E0,1.185079170E0,4.162074999E0,1.814009194E0,4.692324615E0
4.683460750E0,1.927522068E0,2.529358726E0,3.139644318E0,4.468821247E0
4.693498750E0,-1.021354354E0,-1.902976334E-2,4.901615047E0,5.006930888E0
4.703535750E0,-1.442482958E0,-3.631374105E0,8.265551541E0,9.142591386E0
4.713572750E0,1.939842736E0,-9.047407304E0,1.408512390E1,1.685257499E1
4.723609750E0,5.392805135E0,-1.635871079E1,1.543144998E1,2.312616299E1
4.733647750E0,7.324975448E0,-1.889096214E1,6.398617444E0,2.124772978E1
4.743684750E0,7.260586494E0,-1.328518971E1,3.063591923E0,1.544661702E1
4.753721750E0,4.175652233E0,-4.577479325E0,5.382291257E0,8.207219244E0
4.763758750E0,-4.811882798E-1,5.853518366E0,6.720286226E0,8.925103158E0
4.773795750E0,-2.475133402E0,7.570112947E0,5.286016266E0,9.559020000E0
4.783833750E0,-1.973190869E0,2.491362934E0,3.086238189E0,4.430038108E0
4.793870750E0,-3.291927449E0,-9.052822995E-1,-3.083309027E0,4.600338783E0
4.803907750E0,-3.716286786E0,-1.970996409E0,-5.307628160E0,6.772483370E0
4.813944750E0,-2.821863935E0,-2.635006803E0,-5.130104939E0,6.420603835E0
4.823982750E0,-8.683423685E-1,-4.490619521E0,-2.121299087E0,5.041784602E0
4.834019750E0,-2.253986152E-1,-6.873637642E0,3.519326835E0,7.725500653E0
4.844056750E0,-1.298949602E0,-7.160069933E0,5.574438365E0,9.166691584E0
4.854093750E0,-5.173511744E0,-2.528904982E0,1.289533830E0,5.901142404E0
4.864131750E0,-6.723061899E0,3.218599856E0,-2.298144909E0,7.800026689E0
4.874168750E0,-5.456490085E0,6.216915218E0,-4.487424603E0,9.410648141E0
4.884205750E0,-2.703249072E0,7.201371741E0,-7.153064969E0,1.050398253E1
4.894242750E0,-2.829415029E0,5.436518919E0,-6.266188534E0,8.765069659E0
4.904280750E0,-9.424005707E-1,2.068920899E0,-2.858088021E0,3.652015835E0
4.914317750E0,1.896852838E0,-2.249004031E0,-4.263660723E0,5.180238660E0
4.924354750E0,2.416937965E0,-3.784377612E0,-6.774854196E0,8.127838115E0
4.934391750E0,2.005364150E0,-3.047528452E0,-7.305122981E0,8.165398754E0
4.944429750E0,1.953846526E0,-1.914701171E0,-6.896576854E0,7.419324034E0
4.954466750E0,1.596003360E0,-1.909282556E0,-5.581403568E0,6.111027114E0
4.964503750E0,1.161950216E0,-2.696034778E0,-3.556789653E0,4.611885131E0
4.974540750E0,1.117542660E0,-2.047508395E0,-2.288009638E-1,2.343830648E0
4.984577750E0,1.346374029E-1,-5.352219611E-1,2.132958435E0,2.203202547E0
4.994615750E0,-1.317234722E0,-8.027215523E-1,1.330351489E0,2.036984115E0
5.004652750E0,-1.373885763E0,-1.530856606E0,-6.560824469E-1,2.159057252E0
5.014689750E0,-1.234812078E-1,-9.208446640E-1,-1.378847126E0,1.662655076E0
5.024726750E0,4.232723397E-1,9.259650707E-3,-1.312150860E0,1.378762160E0
5.034764750E0,2.865591753E-1,9.521950954E-1,-1.251882001E0,1.598749575E0
5.044801750E0,-2.078234929E-1,1.289256088E0,-9.704916179E-1,1.627029761E0
5.054838750E0,-6.132945693E-1,1.228677764E0,-8.202053118E-1,1.599536192E0
5.064875750E0,-6.027894616E-1,1.310200229E0,-9.845370685E-1,1.746222499E0
5.074913750E0,-6.967395991E-2,1.472295572E0,-1.149887629E0,1.869425118E0
5.084950750E0,4.608652586E-1,1.280762422E0,-1.225241940E0,1.831383897E0
5.094987750E0,7.159876098E-1,8.325248104E-1,-9.059781913E-1,1.423563241E0
5.105024750E0,9.579303369E-1,5.593312007E-1,-5.704760303E-1,1.247367157E0
5.115062750E0,1.349370581E0,7.555257511E-1,-3.724793315E-1,1.590710840E0
5.125099750E0,2.012345872E0,1.538967279E0,-3.070484036E-1,2.551908093E0
5.135136750E0,2.184266145E0,2.263516236E0,-5.002860171E-1,3.185091905E0
5.145173750E0,2.024575177E0,2.957177861E0,-6.616487038E-1,3.644390834E0
5.155211750E0,1.747653529E0,3.606424035E0,-8.429287612E-1,4.095255313E0
5.165248750E0,1.778690111E0,4.220406822E0,-1.240056446E0,4.744819516E0
5.175285750E0,7.466052389E-1,3.553624848E0,-1.370916109E0,3.881376034E0
5.185322750E0,-2.404484712E-1,2.602834253E0,-9.126240635E-1,2.768653878E0
5.195360750E0,-8.932276797E-1,1.731452356E0,3.430070988E-1,1.978240839E0
5.205397750E0,-1.856187061E0,8.475106394E-1,1.802056900E0,2.722336085E0
5.215434750E0,-3.165099587E0,1.693914986E-1,3.761205096E0,4.918659640E0
5.225471750E0,-4.097976359E0,-5.262716281E-1,5.483168006E0,6.865530092E0
5.235509750E0,-3.725154673E0,-1.209176715E0,6.114997079E0,7.261685407E0
5.245546750E0,-2.502635489E0,-1.590317527E0,7.253385648E0,7.836063909E0
5.255583750E0,-1.984442374E0,-1.954182740E0,9.746769379E0,1.013688093E1
5.265620750E0,-8.985644335E-1,-2.208910843E0,9.262815220E0,9.564854989E0
5.275657750E0,1.074310978E0,-2.550633820E0,6.309291869E0,6.889632854E0
5.285695750E0,4.351813053E0,-2.851273091E0,4.170307586E0,6.667795772E0
5.295732750E0,6.585795003E0,-3.081422423E0,2.814549068E0,7.796765126E0
5.305769750E0,6.423947582E0,-3.421853165E0,1.691631940E0,7.472469488E0
5.315806750E0,5.585962642E0,-3.971074530E0,9.721685994E-1,6.922248431E0
5.325844750E0,5.006110638E0,-4.268722950E0,4.573754941E-1,6.594871620E0
5.335881750E0,3.743161758E0,-4.422030512E0,1.716859460E-1,5.796127143E0
5.345918750E0,2.124709037E0,-4.668240391E0,1.039873217E0,5.233373018E0
5.355955750E0,1.162590632E0,-5.114220393E0,3.171561345E0,6.129083828E0
5.365993750E0,-1.547353064E-1,-5.168639259E0,4.944736508E0,7.154662392E0
5.376030750E0,-2.326318548E0,-4.673968323E0,5.350359027E0,7.475565504E0
5.386067750E0,-3.253251333E0,-3.870305954E0,4.848361530E0,7.004964093E0
5.396104750E0,-2.459046835E0,-3.270782163E0,4.279509601E0,5.921075047E0
5.406142750E0,-1.171405310E0,-2.886549343E0,4.110027763E0,5.157197467E0
5.416179750E0,-6.833722794E-1,-2.495235545E0,3.655793831E0,4.478618831E0
5.426216750E0,-9.927889515E-1,-1.753027412E0,2.269172248E0,3.034448500E0
5.436253750E0,-8.529963510E-1,-8.773630142E-2,-1.365279247E0,1.612230708E0
5.446291750E0,-6.542616239E-1,2.283220768E-2,-3.797447308E0,3.853464109E0
5.456328750E0,-9.261393178E-1,-1.459979582E0,-3.824074359E0,4.196762933E0
5.466365750E0,-1.563490502E0,-3.210759909E0,-3.099768062E0,4.728852269E0
5.476402750E0,-2.642014691E0,-4.852387338E0,-1.816869652E0,5.816091457E0
5.486440750E0,-3.623847861E0,-5.170034405E0,-5.862430108E-1,6.340757836E0
5.496477750E0,-3.788829682E0,-5.070106659E0,2.076761431E-1,6.332798850E0
5.506514625E0,-4.070522804E0,-5.647329755E0,8.137337597E-1,7.008826713E0
5.516551625E0,-5.119587552E0,-5.941717182E0,-3.217828023E-1,7.849695787E0
5.526589625E0,-5.580881411E0,-5.074263445E0,-1.469992062E0,7.684742253E0
5.536626625E0,-4.762034408E0,-3.704046809E0,-1.499296845E0,6.216496239E0
5.546663625E0,-3.700670627E0,-2.357496194E0,-2.191546367E0,4.904653593E0
5.556700625E0,-2.290529203E0,-1.251602358E0,-2.933690473E0,3.926776322E0
5.566737625E0,-1.086631208E0,-9.725439906E-2,-3.544055879E0,3.708174467E0
5.576775625E0,1.204948886E-1,7.083451527E-1,-4.027418592E0,4.091011170E0
5.586812625E0,2.351825126E0,1.075821607E0,-5.517025139E0,6.093114141E0
5.596849625E0,3.106964815E0,5.697135168E-1,-6.744668530E0,7.447708200E0
5.606886625E0,2.699656251E0,4.875613064E-1,-5.156762395E0,5.841066538E0
5.616924625E0,3.323826934E0,-6.829021633E-2,-4.261149051E0,5.404616570E0
5.626961625E0,4.151038379E0,2.232367533E-1,-3.038233134E0,5.148962502E0
5.636998625E0,3.317166955E0,1.061143341E0,-3.233615798E0,4.752461775E0
5.647035625E0,1.577961629E0,1.885924684E0,-3.977680714E0,4.676389492E0
5.657073625E0,-8.547562167E-2,3.371910342E0,-3.978679419E0,5.216030613E0
5.667110625E0,-8.111359879E-1,4.938356026E0,-4.032410360E0,6.426946020E0
5.677147625E0,-1.559606196E0,5.992552875E0,-4.879883578E0,7.883928284E0
5.687184625E0,-1.646141772E0,6.814629881E0,-5.919079102E0,9.175209020E0
5.697222625E0,-1.749752825E0,7.361994170E0,-6.466548057E0,9.953734820E0
5.707259625E0,-1.567610742E0,7.660472310E0,-6.757354649E0,1.033450924E1
5.717296625E0,-1.543631311E0,7.480182186E0,-6.611308744E0,1.010174868E1
5.727333625E0,-1.599369602E0,7.313357615E0,-6.062546386E0,9.633153762E0
5.737371625E0,-1.268067240E0,7.117251357E0,-5.547120758E0,9.112288961E0
5.747408625E0,-7.887952387E-1,7.079416364E0,-5.017579951E0,8.713004221E0
5.757445625E0,-1.796798207E-1,7.075392310E0,-4.285955571E0,8.274229652E0
5.767482625E0,3.009747545E-1,6.783223901E0,-3.169724150E0,7.493321258E0
5.777520625E0,9.522402652E-1,6.086283157E0,-1.499956703E0,6.340305537E0
5.787557625E0,1.453886345E0,4.845370679E0,2.450456983E-1,5.064726046E0
5.797594625E0,1.818254711E0,3.406658590E0,2.265450787E0,4.477012421E0
5.807631625E0,1.160050894E0,1.194335312E0,5.440993209E0,5.690040599E0
5.817669625E0,6.806069849E-1,-2.523513849E0,9.108030066E0,9.475629779E0
5.827706625E0,2.023151526E0,-8.245250593E0,1.202923235E1,1.472344152E1
5.837743625E0,3.755451436E0,-1.580070048E1,1.447283172E1,2.175381366E1
5.847780625E0,3.864486220E0,-2.150602175E1,1.115609570E1,2.453368493E1
5.857818625E0,3.544431270E0,-1.856893492E1,3.981320606E0,1.931888327E1
5.867855625E0,2.945644228E0,-9.734698387E0,3.371126815E0,1.071474072E1
5.877892625E0,4.764524737E-1,-1.476898500E0,4.792758018E0,5.037734169E0
5.887929625E0,-2.593606178E0,3.571708531E0,6.506820170E0,7.862735119E0
5.897967625E0,-5.098049918E0,4.210374754E0,5.203857039E0,8.414124828E0
5.908004625E0,-6.270026062E0,3.093795716E0,4.675112039E-2,6.991922798E0
5.918041625E0,-6.687994393E0,2.697688955E-1,-5.550427358E0,8.695360148E0
5.928078625E0,-6.781020670E0,-3.552985747E0,-5.381941009E0,9.357950527E0
5.938116625E0,-4.018706533E0,-5.613464436E0,-7.566337985E-1,6.945032749E0
5.948153625E0,-1.710275787E0,-5.135263352E0,8.209414762E-1,5.474478777E0
5.958190625E0,-4.581782876E0,-8.075583690E-1,-7.647818935E-1,4.714846358E0
5.968227625E0,-6.945338539E0,3.615599486E0,-2.619881811E0,8.256758915E0
5.978264625E0,-5.006333417E0,6.658112782E0,-5.345892924E0,9.898101396E0
5.988302625E0,-2.756695547E0,6.860567946E0,-6.673604980E0,9.960108749E0
5.998339625E0,-1.057175421E0,4.905099987E0,-5.605589406E0,7.523314319E0
6.008376625E0,3.389572442E-1,7.975122678E-1,-4.276732466E0,4.363640500E0
6.018413625E0,2.068627661E0,-1.919325734E0,-6.219760473E0,6.829967204E0
6.028451625E0,1.846177943E0,-2.312373231E0,-7.593599458E0,8.149735928E0
6.038488625E0,7.047812748E-1,-2.350160277E0,-6.660534114E0,7.098076123E0
6.048525625E0,8.717102185E-1,-2.009872207E0,-5.438425112E0,5.863099239E0
6.058562625E0,1.699042117E0,-2.345138689E0,-4.392864893E0,5.261528442E0
6.068600625E0,2.194302744E0,-3.446952338E0,-3.724062121E0,5.528569764E0
6.078637625E0,3.046701656E0,-4.503141333E0,-2.237027764E0,5.879197740E0
6.088674625E0,3.313325627E0,-3.625135710E0,7.349850672E-1,4.965877432E0
6.098711625E0,1.362813183E0,-1.653416585E0,2.787469443E0,3.515825945E0
6.108749625E0,6.749967277E-2,-1.356644078E0,1.555665758E0,2.065220403E0
6.118786625E0,-1.570822325E-1,-1.399556794E0,-1.601663464E-1,1.417422769E0
6.128823625E0,-6.348643631E-1,-4.956205237E-1,-8.126039314E-1,1.144123076E0
6.138860625E0,-8.309902087E-1,6.666697079E-1,-1.704532360E0,2.010080544E0
6.148898625E0,-7.594919175E-2,1.860444857E0,-2.187963193E0,2.873013449E0
6.158935625E0,2.862726617E-1,2.643536137E0,-2.094022265E0,3.384547915E0
6.168972625E0,4.610064688E-1,2.794059840E0,-2.138441370E0,3.548553063E0
6.179009625E0,9.467092377E-1,2.108474974E0,-1.085851920E0,2.553624775E0
6.189047625E0,1.340870045E0,1.751238164E0,-2.268743062E-1,2.217259465E0
6.199084625E0,1.123940975E0,1.564976864E0,-5.724692365E-1,2.010004211E0
6.209121625E0,1.062599005E0,1.344538588E0,-8.550967439E-1,1.915226123E0
6.219158625E0,8.839073642E-1,4.007172900E-1,-5.250285101E-1,1.103413572E0
6.229196625E0,8.216570292E-1,-9.882379174E-2,6.699225140E-1,1.064745317E0
6.239233625E0,8.478066547E-1,5.771488363E-1,9.222316235E-1,1.379270847E0
6.249270625E0,9.846238996E-1,1.562536236E0,5.118570721E-1,1.916507598E0
6.259307625E0,1.072089183E0,2.138497503E0,-4.670764999E-3,2.392189081E0
6.269345625E0,1.160383601E0,2.778074722E0,-4.287657988E-1,3.041057278E0
6.279382625E0,1.156841357E0,3.611166712E0,-1.322281162E0,4.015872809E0
6.289419625E0,6.582207736E-1,3.700014569E0,-1.627006466E0,4.095181613E0
6.299456625E0,-1.838297358E-1,3.262100801E0,-1.106987778E0,3.449712590E0
6.309494625E0,-1.617327863E0,2.237539980E0,4.079473722E-1,2.790834219E0
6.319531625E0,-3.320054310E0,9.776608890E-1,2.770445859E0,4.433277760E0
6.329568625E0,-4.868081850E0,-6.173022509E-2,5.675447845E0,7.477482181E0
6.339605625E0,-5.185265817E0,-2.532212752E-1,8.430543594E0,9.900766026E0
6.349643625E0,-3.388229336E0,-2.638965368E-2,9.261113681E0,9.861491827E0
6.359680625E0,-1.044625980E0,-6.757393241E-1,7.713815289E0,7.813501992E0
6.369717625E0,1.490971287E0,-2.206395371E0,5.453247803E0,6.068697349E0
6.379754625E0,3.666517040E0,-3.800206609E0,4.312529997E0,6.817831947E0
6.389792625E0,5.073743042E0,-4.150880504E0,4.114316403E0,7.739526916E0
6.399829625E0,5.735359002E0,-3.665800171E0,3.863812037E0,7.826971140E0
6.409866625E0,6.109491926E0,-3.607840816E0,2.473970976E0,7.514182546E0
6.419903625E0,5.309640187E0,-3.904915039E0,7.229522283E-1,6.630482660E0
6.429941625E0,4.508377223E0,-3.795489661E0,1.187266906E-1,5.894514651E0
6.439978625E0,2.976940280E0,-3.951342516E0,1.134302534E0,5.075620489E0
6.450015625E0,7.184373008E-1,-4.584083755E0,3.117168791E0,5.589876322E0
6.460052625E0,-1.210808527E0,-5.052118869E0,4.040856371E0,6.581677793E0
6.470089625E0,-1.609158718E0,-5.021932619E0,4.398384372E0,6.866948674E0
6.480127625E0,-1.632439699E0,-4.673336239E0,4.830471389E0,6.916529825E0
6.490164625E0,-7.420555204E-1,-4.022566865E0,4.433846565E0,6.032469307E0
6.500201625E0,3.067968272E-1,-3.573423520E0,4.188996749E0,5.514632690E0
6.510239500E0,6.913049045E-1,-2.956586707E0,4.259185849E0,5.230676010E0
6.520276500E0,1.135542436E-1,-2.180210370E0,3.420252782E0,4.057627498E0
6.530313500E0,-6.393510778E-1,-8.329873252E-1,8.311502762E-1,1.339196948E0
6.540350500E0,-7.629254025E-1,-5.716705799E-2,-1.373448976E0,1.572159449E0
6.550387500E0,-9.501126096E-1,-2.625885147E-1,-2.532057216E0,2.717164045E0
6.560425500E0,-1.188796830E0,-9.603227252E-1,-3.744978488E0,4.044789428E0
6.570462500E0,-2.176408803E0,-2.223801363E0,-4.356385576E0,5.353516887E0
6.580499500E0,-3.257903085E0,-4.769258643E0,-1.386860150E0,5.939961413E0
6.590536500E0,-3.804753697E0,-6.260226129E0,1.907902029E0,7.570117042E0
6.600574500E0,-3.734614591E0,-6.020325395E0,2.223547009E0,7.425350181E0
6.610611500E0,-4.257961734E0,-5.732187472E0,4.743688184E-1,7.156342440E0
6.620648500E0,-4.838399921E0,-5.542315516E0,-1.754638905E0,7.563473591E0
6.630685500E0,-3.911091745E0,-4.892619106E0,-2.628328698E0,6.792825045E0
6.640723500E0,-2.241479834E0,-3.226550315E0,-3.301740246E0,5.131895111E0
6.650760500E0,-1.079824026E0,-2.491875735E0,-2.545705787E0,3.722375929E0
6.660797500E0,-2.545417227E-1,-1.922670341E0,-2.398621124E0,3.084612784E0
6.670834500E0,9.761362275E-1,-7.916200286E-1,-2.732687757E0,3.007837526E0
6.680872500E0,1.144976041E0,-4.862795967E-1,-2.819303439E0,3.081543422E0
6.690909500E0,7.102707870E-1,-6.289592600E-1,-4.312393464E0,4.415519418E0
6.700946500E0,1.511344448E0,-1.478234589E-2,-4.807887688E0,5.039857595E0
6.710983500E0,2.297371761E0,-9.206908822E-2,-4.888272870E0,5.402000127E0
6.721021500E0,1.722506701E0,-9.634749591E-2,-3.110729252E0,3.557098348E0
6.731058500E0,1.466374974E-1,7.424449450E-1,-3.474500910E0,3.555964514E0
6.741095500E0,-8.554956702E-1,1.964311872E0,-4.702084368E0,5.167203438E0
6.751132500E0,-1.393619385E0,3.987210506E0,-5.172448136E0,6.677892057E0
6.761170500E0,-1.370195878E0,5.725539188E0,-6.142086060E0,8.507905553E0
6.771207500E0,-2.084769046E0,6.226472492E0,-6.104144647E0,8.965255353E0
6.781244500E0,-2.155049801E0,6.666520493E0,-5.754326785E0,9.066367071E0
6.791281500E0,-1.935123156E0,7.072029576E0,-5.731249579E0,9.306208986E0
6.801319500E0,-1.439010005E0,7.025711442E0,-5.819207489E0,9.235504689E0
6.811356500E0,-5.667017622E-1,7.075715661E0,-5.945541261E0,9.259393279E0
6.821393500E0,3.795062229E-3,7.069497732E0,-6.131680940E0,9.358168824E0
6.831430500E0,2.978146999E-1,6.924879717E0,-5.782060128E0,9.026343225E0
6.841468500E0,4.776812661E-1,6.509440892E0,-5.293717049E0,8.403834858E0
6.851505500E0,5.753242126E-1,6.207980672E0,-4.482248647E0,7.678578964E0
6.861542500E0,6.394269454E-1,6.151510018E0,-3.450356002E0,7.082012345E0
6.871579500E0,5.467316204E-1,5.678883085E0,-2.397824441E0,6.188553191E0
6.881617500E0,8.916828454E-1,4.669215122E0,-7.246933830E-1,4.808518343E0
6.891654500E0,1.401822152E0,3.140622557E0,1.455316427E0,3.734509512E0
6.901691500E0,1.435943286E0,1.023696603E0,3.828110400E0,4.214773670E0
6.911728500E0,7.984380282E-1,-2.027527290E0,5.916737877E0,6.305248393E0
6.921766500E0,-7.494601420E-1,-6.059720426E0,9.547975742E0,1.133339062E1
6.931803500E0,-1.298513546E0,-1.098416300E1,1.365601311E1,1.757340799E1
6.941840500E0,6.548393288E-1,-1.544489857E1,1.339767143E1,2.045657122E1
6.951877500E0,4.046953263E0,-1.557807476E1,7.246811623E0,1.765136036E1
6.961915500E0,4.731271037E0,-1.088295939E1,3.127235357E0,1.227205491E1
6.971952500E0,3.159826275E0,-4.229779324E0,2.753607633E0,5.954652821E0
6.981989500E0,1.066912935E0,1.642531993E0,3.879815281E0,4.346168563E0
6.992026500E0,-1.014219435E0,5.789421188E0,4.998836117E0,7.715853892E0
7.002064500E0,-1.955369871E0,7.231690139E0,4.954027734E0,8.981269642E0
7.012101500E0,-1.716777599E0,4.333227094E0,2.640364899E0,5.356837609E0
7.022138500E0,-1.601427529E0,9.160452694E-1,-1.587316151E0,2.433779290E0
7.032175500E0,-2.011198648E0,-1.281164711E0,-5.715629911E0,6.193119432E0
7.042213500E0,-1.491230611E0,-3.624811774E0,-6.060292284E0,7.217352125E0
7.052250500E0,-1.616617426E0,-6.610021772E0,-2.847073036E0,7.376426275E0
7.062287500E0,-5.104715744E0,-7.496519891E0,1.352952147E-1,9.070514765E0
7.072324500E0,-8.189671054E0,-4.903303138E0,9.550824505E-1,9.592980565E0
7.082362500E0,-8.151198714E0,-1.023275603E0,-9.270514834E-1,8.267318664E0
7.092399500E0,-5.946439394E0,3.557916119E0,-3.450330275E0,7.741039180E0
7.102436500E0,-3.863745963E0,5.151647835E0,-5.878979482E0,8.719541733E0
7.112473500E0,-1.579669309E0,4.519411211E0,-5.552751042E0,7.331676271E0
7.122511500E0,1.249809601E0,2.268676404E0,-4.421297856E0,5.124138112E0
7.132548500E0,2.133171566E0,-5.479776621E-2,-6.046944260E0,6.412406616E0
7.142585500E0,1.405710842E0,-9.991096455E-1,-7.037452651E0,7.245687191E0
7.152622500E0,1.063358559E0,-7.995447600E-1,-7.087818228E0,7.211599717E0
7.162660500E0,9.570158324E-1,-8.101375759E-1,-6.226747895E0,6.351739254E0
7.172697500E0,1.313245752E0,-1.561839833E0,-4.793126392E0,5.209416347E0
7.182734500E0,1.833175197E0,-2.703150254E0,-3.727430409E0,4.955934832E0
7.192771500E0,2.810524430E0,-3.882392734E0,-2.792175282E0,5.546914792E0
7.202809500E0,4.003387413E0,-3.555219968E0,-2.141552088E0,5.766536668E0
7.212846500E0,3.083290900E0,-1.914370219E0,9.602646916E-1,3.754144961E0
7.222883500E0,3.981860304E-1,-6.871764779E-1,4.582493312E0,4.650807305E0
7.232920500E0,-5.576483721E-1,-3.145018494E-1,3.226507630E0,3.289412502E0
7.242958500E0,-3.150587967E-1,2.566535908E-1,9.361589603E-1,1.020552159E0
7.252995500E0,3.016549319E-2,6.760053724E-1,-1.961736466E-1,7.045405028E-1
7.263032500E0,5.686797291E-2,1.084853216E0,-1.813631171E0,2.114095195E0
7.273069500E0,3.929305530E-1,1.311329327E0,-2.924317678E0,3.228871770E0
7.283107500E0,1.377309016E0,1.222744594E0,-2.517329834E0,3.119139939E0
7.293144500E0,1.707403343E0,1.125006046E0,-1.815515583E0,2.734403337E0
7.303181500E0,1.970177214E0,9.636445284E-1,-9.462835604E-1,2.388652676E0
7.313218500E0,1.980796342E0,1.010973646E0,-4.510374047E-2,2.224332756E0
7.323256500E0,2.020574804E0,1.508307989E0,2.625621291E-1,2.535084693E0
7.333293500E0,1.513765195E0,1.722654635E0,8.093786073E-1,2.431895925E0
7.343330500E0,7.174038054E-1,1.825886643E0,1.543443907E0,2.496146900E0
7.353367500E0,-6.120280623E-2,1.991112000E0,1.126508780E0,2.288513669E0
7.363405500E0,-6.006052342E-1,2.050600403E0,4.202733028E-1,2.177686458E0
7.373442500E0,-5.956004561E-1,2.113051590E0,-4.076562722E-2,2.195766099E0
7.383479500E0,-6.279745889E-1,2.406632686E0,-5.239584696E-1,2.541803582E0
7.393516500E0,-6.673134863E-1,2.672711404E0,-6.237704408E-1,2.824496964E0
7.403554500E0,-8.860204017E-1,2.608287367E0,-3.151041126E-1,2.772631555E0
7.413591500E0,-1.295454721E0,2.445354118E0,7.011127317E-1,2.854736198E0
7.423628500E0,-1.964113944E0,1.801344125E0,2.066887968E0,3.372626590E0
7.433665500E0,-2.399569250E0,1.017812549E0,3.583959618E0,4.431550689E0
7.443703500E0,-2.473492381E0,2.764674658E-1,5.032226057E0,5.614080326E0
7.453740500E0,-1.679065543E0,-2.388651913E-1,6.664089221E0,6.876510948E0
7.463777500E0,-1.518967755E-1,-6.500361335E-1,7.141046602E0,7.172180015E0
7.473814500E0,1.227159242E0,-1.438882828E0,5.152545383E0,5.488627107E0
7.483852500E0,2.732490121E0,-2.282370583E0,3.042722626E0,4.683361903E0
7.493889500E0,4.407629405E0,-2.786768947E0,1.575837628E0,5.447618045E0
7.503926500E0,5.803862057E0,-3.028837827E0,1.042258150E0,6.629100649E0
7.513963958E0,6.440932574E0,-3.476104801E0,1.294931249E0,7.432749421E0
7.524001958E0,6.323083697E0,-4.313824863E0,1.648288285E0,7.829899530E0
7.534038958E0,5.682911816E0,-4.808214548E0,1.546705777E0,7.603072577E0
7.544075958E0,4.402662780E0,-4.536856964E0,1.177467849E0,6.430625257E0
7.554112958E0,2.086944210E0,-4.278293672E0,2.258293795E0,5.268683303E0
7.564150958E0,-2.974569234E-1,-3.909379973E0,5.022229657E0,6.371383140E0
7.574187958E0,-2.089850569E0,-3.281724057E0,6.461245801E0,7.542206938E0
7.584224958E0,-3.222283309E0,-3.053765677E0,5.786502843E0,7.293298958E0
7.594261958E0,-2.704904419E0,-2.754934950E0,4.451429143E0,5.892486395E0
7.604299958E0,7.305234955E-1,-2.807600237E0,4.240757471E0,5.138122965E0
7.614336958E0,2.639410926E0,-3.346240481E0,3.438961533E0,5.476337446E0
7.624373958E0,2.264466116E0,-3.435874788E0,2.678563882E0,4.909964035E0
7.634410958E0,1.394995820E0,-2.544026467E0,1.779141808E0,3.403443782E0
7.644448958E0,6.232168557E-1,-1.630389081E0,6.761392736E-1,1.871825879E0
7.654485958E0,1.069192618E-1,-1.431328810E0,-1.221120822E-1,1.440501736E0
7.664522958E0,-2.133254305E-2,-1.469140999E0,-2.269089217E0,2.703256597E0
7.674559958E0,-1.067222106E0,-2.100504050E0,-4.487321692E0,5.068247848E0
7.684597958E0,-2.953543231E0,-3.377711949E0,-5.439139057E0,7.050999171E0
7.694634958E0,-4.119741450E0,-4.430987277E0,-4.346963373E0,7.449967008E0
7.704671958E0,-5.033129452E0,-5.322527450E0,-5.190409613E-1,7.343779276E0
7.714708958E0,-5.701577298E0,-6.021555650E0,3.474964594E0,8.991245468E0
7.724746958E0,-6.783754828E0,-6.119045691E0,2.556924255E0,9.486828310E0
7.734783958E0,-8.405791746E0,-6.159687933E0,-5.167633246E-1,1.043389355E1
7.744820958E0,-8.435566353E0,-5.415449647E0,-1.528029039E0,1.014005657E1
7.754857958E0,-6.249997010E0,-3.912325215E0,-1.185215995E0,7.468164980E0
7.764895958E0,-3.811655458E0,-2.197899367E0,-1.715361403E0,4.722493377E0
7.774932958E0,-2.312833992E0,-1.128827786E0,-2.188087154E0,3.378043611E0
7.784969958E0,-9.249586187E-1,-7.378010863E-1,-3.106531828E0,3.324220042E0
7.795006958E0,3.836084832E-1,-6.604775065E-1,-6.349068723E0,6.394846336E0
7.805044958E0,3.144781390E0,-3.027471918E-1,-7.836344862E0,8.449237045E0
7.815081958E0,5.833137896E0,-2.129614413E-1,-4.258045934E0,7.225081693E0
7.825118958E0,6.313830478E0,-4.249382114E-1,-2.582258779E0,6.834697374E0
7.835155958E0,6.148288786E0,2.690251297E-1,-3.024694490E0,6.857303135E0
7.845193958E0,3.431712155E0,1.298108772E0,-3.820864822E0,5.297239157E0
7.855230958E0,-1.505282347E-1,3.427444857E0,-4.311294188E0,5.509745418E0
7.865267958E0,-1.432330146E0,5.563661361E0,-4.776925512E0,7.471607239E0
7.875304958E0,-1.636336284E0,6.836608395E0,-5.271255555E0,8.786520694E0
7.885342958E0,-1.936099203E0,6.641426582E0,-5.394888498E0,8.772790268E0
7.895379958E0,-1.546140643E0,6.556445489E0,-5.256388425E0,8.544422017E0
7.905416958E0,-1.508857042E0,6.939559152E0,-5.272092876E0,8.844721256E0
7.915453958E0,-1.635790154E0,7.275958824E0,-5.406266595E0,9.211031686E0
7.925491958E0,-1.334619225E0,7.103337323E0,-5.841939125E0,9.293377338E0
7.935528958E0,-1.005443349E0,6.804047005E0,-6.227216842E0,9.278157230E0
7.945565958E0,-2.405384452E-1,6.928167606E0,-6.427871649E0,9.453829862E0
7.955602958E0,4.761998740E-1,6.698624631E0,-6.005151871E0,9.008894896E0
7.965640958E0,8.459190273E-1,6.536194242E0,-5.122653832E0,8.347394591E0
7.975677958E0,8.843115529E-1,6.414661034E0,-4.221128368E0,7.729670615E0
7.985714958E0,1.032085457E0,6.121254185E0,-2.862651480E0,6.835914473E0
7.995751958E0,1.677994479E0,5.467448936E0,-1.195935695E0,5.842852516E0
8.005789958E0,1.961214456E0,3.789324356E0,6.325979823E-1,4.313411808E0
8.015826958E0,8.879887207E-1,1.513844132E0,3.251051903E0,3.694534680E0
8.025863958E0,-3.925513610E-1,-1.835345684E0,6.771524207E0,7.026815099E0
8.035900958E0,-7.891279453E-1,-7.059602489E0,9.862345444E0,1.215428187E1
8.045938958E0,-6.807239293E-1,-1.377091558E1,1.377851462E1,1.949227965E1
8.055975958E0,-8.902409220E-1,-1.905658452E1,1.469765833E1,2.408250616E1
8.066012958E0,1.344862962E0,-1.796445912E1,9.429802344E0,2.033350978E1
8.076050958E0,3.495414646E0,-1.221530128E1,4.253699698E0,1.339871150E1
8.086087958E0,2.473334799E0,-4.620531204E0,3.187820113E0,6.134239212E0
8.096124958E0,3.563234746E-1,2.765756977E0,4.404292399E0,5.212884960E0
8.106161958E0,-2.449971518E0,6.959106393E0,5.852652394E0,9.417274673E0
8.116199958E0,-3.987618057E0,7.560846280E0,4.021594473E0,9.446730458E0
8.126236958E0,-4.717971545E0,4.960315830E0,8.903315538E-1,6.903381700E0
8.136273958E0,-4.193859878E0,3.864980310E-1,-4.682036896E0,6.297563887E0
8.146310958E0,-3.843166980E0,-3.838052128E0,-6.799777368E0,8.702732262E0
8.156348958E0,-2.230860267E0,-7.072821874E0,-3.043403826E0,8.016473891E0
8.166385958E0,-1.177384088E0,-7.568085718E0,1.469639182E-1,7.660532169E0
8.176422958E0,-3.231731533E0,-2.825837118E0,-5.173984784E-1,4.324019577E0
8.186459958E0,-5.799160895E0,2.057698923E0,-4.072298019E0,7.378889015E0
8.196497958E0,-6.432372251E0,5.179394043E0,-6.222940189E0,1.034052803E1
8.206534958E0,-6.733861122E0,5.746847611E0,-3.360263858E0,9.469029320E0
8.216571958E0,-6.315701002E0,3.647548088E0,-3.161508227E0,7.949076706E0
8.226608958E0,-3.159474858E0,3.081313080E-1,-2.450267825E0,4.010117043E0
8.236646958E0,7.966547737E-1,-2.201439856E0,-4.375589586E0,4.962537707E0
8.246683958E0,1.638778958E0,-3.210465209E0,-7.190373128E0,8.043267312E0
8.256720958E0,1.328487396E0,-3.174176220E0,-7.533448566E0,8.282096397E0
8.266757958E0,1.388653491E0,-2.252678422E0,-6.208303438E0,6.748773976E0
8.276795958E0,1.707576420E0,-1.583161120E0,-4.926355201E0,5.448962464E0
8.286832958E0,2.318982339E0,-1.094214608E0,-3.682085837E0,4.486952285E0
8.296869958E0,2.870591122E0,-7.129936892E-1,-3.275607870E0,4.413418211E0
8.306906958E0,3.403228321E0,-5.371152896E-1,-3.194479507E0,4.698420496E0
8.316944958E0,3.607993720E0,-4.669130337E-1,-3.262161028E0,4.886442575E0
8.326981958E0,2.711907629E0,-6.935166138E-1,-2.334327187E0,3.644789665E0
8.337018958E0,7.130047989E-1,-8.536461228E-1,1.296404747E0,1.708143090E0
8.347055958E0,-1.072000743E0,-1.002403382E0,4.374260514E0,4.613908666E0
8.357093958E0,-1.056078483E0,-1.131260228E0,2.430229125E0,2.881156897E0
8.367130958E0,-3.889681873E-1,-1.181611186E-1,4.131730288E-1,5.796294095E-1
8.377167958E0,2.983554943E-1,1.113091174E0,-8.182476640E-1,1.413335488E0
8.387204958E0,2.900843154E-1,1.163456166E0,-1.722515910E0,2.098771122E0
8.397242958E0,2.488924353E-1,1.759387429E0,-1.682173630E0,2.446855061E0
8.407279958E0,4.385511142E-1,2.390017238E0,-1.308375898E0,2.759774804E0
8.417316958E0,5.728492324E-1,2.151390029E0,-4.806463891E-1,2.277642696E0
8.427353958E0,1.455068213E0,1.707350133E0,2.320671453E-1,2.255243477E0
8.437391958E0,1.916931591E0,1.198015550E0,5.808336785E-1,2.333931393E0
8.447428958E0,1.917023685E0,8.846129769E-1,7.838017166E-1,2.252080163E0
8.457465958E0,1.449271868E0,9.560829091E-1,1.371832806E0,2.212783027E0
8.467502958E0,6.994845745E-1,1.541414339E0,1.820724136E0,2.486015530E0
8.477540958E0,1.696989159E-1,2.342869384E0,1.353017051E0,2.710809808E0
8.487577958E0,-1.288065594E-1,2.816036600E0,7.128691435E-1,2.907720014E0
8.497614958E0,-2.438370788E-1,2.934902893E0,3.122424853E-1,2.961521042E0
8.507652083E0,-3.358001862E-1,2.876673980E0,-1.426720619E-3,2.896207346E0
8.517690083E0,-4.841879015E-1,2.593100393E0,-3.090779722E-1,2.655962494E0
8.527727083E0,-7.096403110E-1,1.989307550E0,-4.631906231E-1,2.162285701E0
8.537764083E0,-9.682679218E-1,1.323286298E0,-5.432750389E-2,1.640603813E0
8.547801083E0,-1.302328708E0,7.898050529E-1,7.469901319E-1,1.696421628E0
8.557839083E0,-1.906675283E0,1.517510337E-1,2.147508208E0,2.875800848E0
8.567876083E0,-2.203590315E0,-3.947180468E-1,4.478621035E0,5.006961053E0
8.577913083E0,-1.783607765E0,-7.542463803E-1,7.269681838E0,7.523192027E0
8.587950083E0,-1.197771575E0,-1.623427970E0,8.450666202E0,8.688149077E0
8.597988083E0,6.607732294E-1,-2.852063050E0,7.077199684E0,7.658827604E0
8.608025083E0,3.472804048E0,-3.633748074E0,4.819311393E0,6.963494477E0
8.618062083E0,5.606761773E0,-3.598621511E0,3.012381716E0,7.311654940E0
8.628099083E0,6.180139740E0,-3.196172276E0,2.467538162E0,7.382302418E0
8.638137083E0,5.873294234E0,-2.678318299E0,2.457665138E0,6.907176848E0
8.648174083E0,5.329832377E0,-2.467440221E0,1.695236164E0,6.113035258E0
8.658211083E0,4.249837613E0,-2.836710600E0,5.570981491E-1,5.139883764E0
8.668248083E0,3.239473246E0,-3.223224419E0,2.658497992E-1,4.577558157E0
8.678286083E0,2.219779794E0,-3.736355014E0,1.277075168E0,4.529756297E0
8.688323083E0,-2.616757643E-1,-4.324088480E0,2.817068049E0,5.167406292E0
8.698360083E0,-3.050504685E0,-4.475830159E0,4.311232792E0,6.922814647E0
8.708398083E0,-3.917048889E0,-3.973027500E0,5.425349568E0,7.782200039E0
8.718435083E0,-2.658166455E0,-3.500857819E0,5.502231098E0,7.042471259E0
8.728472083E0,3.273641159E-1,-3.761044883E0,4.170849330E0,5.625709734E0
8.738509083E0,1.909363832E0,-3.840329618E0,3.316938329E0,5.421796907E0
8.748547083E0,1.768222572E0,-3.386633046E0,2.433520961E0,4.529670929E0
8.758584083E0,7.617372483E-1,-2.536877661E0,1.094069012E0,2.865829532E0
8.768621083E0,-2.145488141E-1,-1.760490214E0,3.312646472E-1,1.804187699E0
8.778658083E0,-9.980474988E-1,-1.113373010E0,-1.705153700E-1,1.504916530E0
8.788696083E0,-1.918003532E0,-6.953754437E-1,-1.648121932E0,2.622706705E0
8.798733083E0,-2.905333231E0,-9.230753767E-1,-2.986482351E0,4.267564431E0
8.808770083E0,-3.578140469E0,-1.702432625E0,-3.682960580E0,5.409765678E0
8.818807083E0,-4.243217687E0,-2.920938572E0,-2.424597087E0,5.693456728E0
8.828845083E0,-4.869477580E0,-3.948846924E0,7.851929154E-1,6.318364650E0
8.838882083E0,-5.411104581E0,-4.574386733E0,2.561455262E0,7.534329421E0
8.848919083E0,-6.380398690E0,-5.233590716E0,1.396331470E0,8.369569929E0
8.858956083E0,-6.971632884E0,-5.614982373E0,-7.529832356E-1,8.983244173E0
8.868994083E0,-5.952202994E0,-4.888869286E0,-1.841353698E0,7.919617846E0
8.879031083E0,-4.263155231E0,-3.914516752E0,-2.299847910E0,6.227939815E0
8.889068083E0,-2.426621247E0,-2.754343212E0,-1.438750096E0,3.942701998E0
8.899105083E0,-1.397696210E0,-1.808442060E0,-8.822606421E-1,2.449979841E0
8.909143083E0,-2.681267050E-1,-1.308086461E0,-3.802551635E0,4.030183750E0
8.919180083E0,2.552311386E0,-4.866555727E-1,-5.660863720E0,6.228684060E0
8.929217083E0,4.746600975E0,-7.623365879E-2,-5.462024474E0,7.236694255E0
8.939254083E0,6.061140130E0,-3.415206635E-1,-4.225469926E0,7.396529736E0
8.949292083E0,5.458917848E0,-3.794392723E-1,-3.205605589E0,6.341897620E0
8.959329083E0,4.153166473E0,6.133928025E-1,-3.216159228E0,5.288546366E0
8.969366083E0,1.458414428E0,2.148727207E0,-3.803178749E0,4.605232877E0
8.979403083E0,-3.259046508E-1,3.838142175E0,-4.726006789E0,6.096940984E0
8.989441083E0,-1.404357212E0,4.817365440E0,-4.560211912E0,6.780469132E0
8.999478083E0,-1.586813291E0,5.230891056E0,-4.429854379E0,7.035894220E0
9.009515083E0,-1.786959097E0,5.725656132E0,-4.842534780E0,7.708858804E0
9.019552083E0,-1.869471788E0,6.209036095E0,-5.056927620E0,8.223111999E0
9.029590083E0,-1.533736652E0,6.689919296E0,-5.524371580E0,8.810564662E0
9.039627083E0,-1.243716218E0,6.759115831E0,-6.089448840E0,9.182258111E0
9.049664083E0,-8.467511592E-1,6.661433415E0,-6.384046183E0,9.265404920E0
9.059701083E0,-4.513730349E-1,6.420125257E0,-6.230571975E0,8.957777239E0
9.069739083E0,-3.046297029E-2,6.280987837E0,-5.897419261E0,8.615758246E0
9.079776083E0,2.101481266E-1,6.029443544E0,-5.363654426E0,8.072616706E0
9.089813083E0,2.177571814E-1,5.944888712E0,-4.461774914E0,7.436165368E0
9.099850083E0,1.558788756E-1,6.122395561E0,-3.369987777E0,6.990339280E0
9.109888083E0,6.533306010E-1,6.170925112E0,-2.158354647E0,6.570057260E0
9.119925083E0,1.080880764E0,5.010128844E0,-5.222753486E-1,5.151938063E0
9.129962083E0,1.114056988E0,3.330147774E0,1.532876527E0,3.831542459E0
9.140000083E0,8.312271671E-1,1.269295447E0,4.683837839E0,4.923452695E0
9.150037083E0,-1.559208293E-1,-2.221694026E0,7.256358372E0,7.590452719E0
9.160074083E0,-3.258985113E-1,-6.808962175E0,1.018148530E1,1.225278820E1
9.170111083E0,4.365110207E-1,-1.227005928E1,1.341554052E1,1.818575333E1
9.180149083E0,6.911894220E-1,-1.673915286E1,1.172975550E1,2.045150717E1
9.190186083E0,2.476911833E0,-1.615419624E1,7.427036258E0,1.795143493E1
9.200223083E0,2.114875629E0,-1.081437389E1,3.805189899E0,1.165773785E1
9.210260083E0,6.099490848E-1,-2.678307774E0,3.634453833E0,4.555724430E0
9.220298083E0,-1.879502102E0,3.973094158E0,5.119229702E0,6.747185938E0
9.230335083E0,-4.163693508E0,7.961526732E0,5.745347800E0,1.066448653E1
9.240372083E0,-4.985495694E0,8.178605783E0,5.127098885E0,1.086424884E1
9.250409083E0,-4.857735494E0,3.867644886E0,2.490842532E0,6.690333894E0
9.260447083E0,-3.789326695E0,-3.845473999E-1,-2.194244272E0,4.395632086E0
9.270484083E0,-2.264239683E0,-4.444839331E0,-5.069698523E0,7.112328812E0
9.280521083E0,-4.358460461E-1,-8.199845209E0,-4.392129605E0,9.312262115E0
9.290558083E0,-4.058192781E-1,-8.515070359E0,-2.357040696E0,8.844588931E0
9.300596083E0,-3.307283406E0,-4.198290313E0,-5.267587012E-1,5.370404064E0
9.310633083E0,-4.945011912E0,1.092469799E0,-5.000147647E0,7.116748525E0
9.320670083E0,-5.446567944E0,5.054007520E0,-6.503339907E0,9.874286016E0
9.330707083E0,-6.929043519E0,5.361097439E0,-3.343598709E0,9.377241714E0
9.340745083E0,-5.903376989E0,3.203938547E0,-2.711477859E0,7.243424209E0
9.350782083E0,-1.909177160E0,6.419915342E-1,-3.999559826E0,4.478123419E0
9.360819083E0,7.267891712E-1,-1.004442891E0,-6.463738469E0,6.581568432E0
9.370856083E0,5.297258708E-1,-1.774713566E0,-7.392220767E0,7.620705059E0
9.380894083E0,4.309400859E-1,-1.959608372E0,-7.043188770E0,7.323406473E0
9.390931083E0,1.033856432E0,-1.399971946E0,-6.330241274E0,6.565115015E0
9.400968083E0,1.807671397E0,-1.042023531E0,-5.916392891E0,6.273531204E0
9.411005083E0,2.522996956E0,-1.238674749E0,-4.957852398E0,5.699134072E0
9.421043083E0,3.402646231E0,-1.942045090E0,-3.623421307E0,5.336545931E0
9.431080083E0,4.345037300E0,-2.450711337E0,-1.563605253E0,5.227829051E0
9.441117083E0,3.730326243E0,-1.453795567E0,1.851315307E0,4.410920969E0
9.451155083E0,1.087763667E0,-4.799739593E-1,2.426519067E0,2.702147216E0
9.461192083E0,-4.801213092E-1,-8.715274930E-1,3.284071130E-1,1.047820535E0
9.471229083E0,-6.765324989E-1,-9.542831361E-1,-3.429469456E-1,1.219001695E0
9.481266083E0,-5.987282780E-1,-1.960928088E-1,2.245307422E-1,6.688362989E-1
9.491304083E0,-5.628908394E-1,8.315845782E-1,-1.665399577E-1,1.017897129E0
9.501341083E0,-1.062508227E0,1.298646716E0,-7.704653871E-1,1.846354229E0
9.511377875E0,-9.962823705E-1,1.536602665E0,-8.495688593E-1,2.018785169E0
9.521414875E0,-1.637096129E-1,1.729038041E0,-6.886382818E-1,1.868313696E0
9.531452875E0,4.826775657E-1,1.699582107E0,-7.790467608E-1,1.930924863E0
9.541489875E0,5.035129492E-1,1.239376999E0,-9.051964185E-1,1.615227907E0
9.551526875E0,2.687248752E-2,4.558723211E-1,-5.095446445E-2,4.594976183E-1
9.561563875E0,2.127427554E-1,3.326492679E-1,7.773060447E-1,8.718484401E-1
9.571601875E0,1.057045028E0,1.497535079E0,5.386186087E-1,1.910514461E0
9.581638875E0,2.020499814E0,1.593796620E0,3.101100423E-1,2.592060069E0
9.591675875E0,2.560853584E0,1.613785327E0,3.012696004E-1,3.041880591E0
9.601712875E0,2.371208792E0,2.173852692E0,-3.358278143E-1,3.234354183E0
9.611750875E0,1.831688250E0,2.168160428E0,-2.929665359E-1,2.853389367E0
9.621787875E0,1.332263674E0,2.247719398E0,2.917175889E-1,2.629119271E0
9.631824875E0,1.060847618E0,2.601571839E0,5.800496399E-1,2.868803111E0
9.641861875E0,3.564301863E-1,2.464495563E0,6.252837002E-1,2.567442417E0
9.651899875E0,-5.863247256E-1,2.064926666E0,4.779046297E-1,2.199111560E0
9.661936875E0,-1.323082961E0,1.490278099E0,1.044816746E0,2.250137633E0
9.671973875E0,-1.773479803E0,1.193370522E0,2.705284488E0,3.447887466E0
9.682010875E0,-2.148745918E0,6.271407759E-1,4.738173090E0,5.240295679E0
9.692048875E0,-2.778317089E0,-1.808198816E-1,6.474341226E0,7.047612077E0
9.702085875E0,-2.684647325E0,-1.064727684E0,7.202942888E0,7.760371289E0
9.712122875E0,-1.292484043E0,-1.909218822E0,6.551634400E0,6.945469374E0
9.722160875E0,4.868014607E-1,-2.935133858E0,5.071906432E0,5.880154869E0
9.732197875E0,2.330816080E0,-3.870408280E0,3.522622618E0,5.729016841E0
9.742234875E0,4.135057354E0,-4.004856234E0,3.051229155E0,6.515180130E0
9.752271875E0,5.073282282E0,-3.432955273E0,3.051087652E0,6.843428299E0
9.762309875E0,4.887915021E0,-3.243596703E0,2.829608280E0,6.513011273E0
9.772346875E0,4.475232573E0,-3.265350684E0,2.034175136E0,5.901532865E0
9.782383875E0,3.932054890E0,-3.204316862E0,1.119124039E0,5.194337381E0
9.792420875E0,3.073121715E0,-3.298831256E0,1.645887418E0,4.799511447E0
9.802458875E0,1.429730473E0,-3.409910227E0,2.917530230E0,4.709946882E0
9.812495875E0,-3.265029672E-1,-3.557840105E0,3.002933200E0,4.667165972E0
9.822532875E0,-1.232748449E0,-3.818273921E0,3.294121324E0,5.191350477E0
9.832569875E0,-1.878815200E0,-3.830948346E0,3.681397912E0,5.635494865E0
9.842607875E0,-1.665813560E0,-3.237571147E0,4.024520712E0,5.427114216E0
9.852644875E0,-2.507973120E-2,-2.811779242E0,4.627630309E0,5.414950949E0
9.862681875E0,8.552558613E-1,-3.200581661E0,4.611030064E0,5.677744605E0
9.872718875E0,8.650696819E-1,-3.475849863E0,4.005926274E0,5.373762475E0
9.882756875E0,6.207342741E-1,-3.096424039E0,2.424405298E0,3.981318113E0
9.892793875E0,1.861784162E-1,-1.819382200E0,1.664001361E-1,1.836437584E0
9.902830875E0,-6.170918973E-1,-8.322271872E-1,-1.790457194E0,2.068608582E0
9.912867875E0,-1.138171052E0,-6.791231078E-1,-1.992016565E0,2.392649480E0
9.922905875E0,-1.328306863E0,-1.042379041E0,-3.282846723E0,3.691616962E0
9.932942875E0,-1.736120188E0,-2.389806738E0,-4.181390106E0,5.119503177E0
9.942979875E0,-1.692637223E0,-3.430270232E0,-2.653399220E0,4.655351980E0
9.953017875E0,-1.309157378E0,-3.824888291E0,2.977905071E-1,4.053682606E0
9.963054875E0,-1.941238028E0,-4.242371888E0,1.923059766E0,5.046214738E0
9.973091875E0,-3.614737022E0,-4.822627934E0,9.114451186E-1,6.095473413E0
9.983128875E0,-5.293082042E0,-5.654879680E0,-5.979633160E-1,7.768651223E0
9.993166875E0,-6.848105190E0,-5.446808265E0,-1.769611578E0,8.927249863E0
1.000320387E1,-6.051316223E0,-3.939604231E0,-2.268244295E0,7.568608968E0
1.001324087E1,-3.329181229E0,-2.131607729E0,-2.159898897E0,4.504704475E0
1.002327787E1,-1.505579239E0,-1.337718980E0,-2.235846042E0,3.009197308E0
1.003331587E1,1.128963003E0,-5.994354987E-1,-3.468687901E0,3.696711529E0
1.004335287E1,1.521405459E0,-1.361942825E0,-4.165735648E0,4.639279720E0
1.005338987E1,2.507643921E0,-1.908982009E0,-6.824582427E0,7.517141454E0
1.006342687E1,5.191227638E0,-1.475169479E0,-4.078162776E0,6.764346311E0
1.007346487E1,5.047508340E0,-1.418466105E0,-1.565881720E0,5.471870987E0
1.008350187E1,4.404367243E0,-5.682780254E-1,-2.515011413E0,5.103594139E0
1.009353887E1,3.315634692E0,1.582935417E0,-3.789914925E0,5.278501026E0
1.010357587E1,8.887093900E-1,3.694506492E0,-5.116010810E0,6.372813288E0
1.011361388E1,-1.010005347E0,5.132168421E0,-5.041153001E0,7.264467433E0
1.012365087E1,-1.593025226E0,5.594526474E0,-5.101940070E0,7.737328242E0
1.013368788E1,-1.843292927E0,5.857619019E0,-5.805232644E0,8.450452972E0
1.014372487E1,-1.541371070E0,6.675863759E0,-6.158246010E0,9.212327373E0
1.015376287E1,-9.945280597E-1,6.979028442E0,-6.758207758E0,9.765720463E0
1.016379987E1,-9.770010307E-1,6.615310578E0,-7.059113077E0,9.723576631E0
1.017383687E1,-9.464395349E-1,6.849745334E0,-6.848732597E0,9.732414763E0
1.018387487E1,-9.739802130E-1,6.746250787E0,-6.752121976E0,9.594357108E0
1.019391187E1,-9.464681862E-1,6.418122586E0,-6.026710555E0,8.854904837E0
1.020394887E1,-7.099107447E-1,6.627412561E0,-5.463164681E0,8.618163311E0
1.021398587E1,-6.363956027E-1,6.789283370E0,-4.482193391E0,8.160234411E0
1.022402387E1,-3.921617903E-1,6.594826028E0,-3.285376813E0,7.378293977E0
1.023406087E1,3.328717545E-2,5.762840915E0,-2.326152195E0,6.214694480E0
1.024409787E1,7.035660772E-1,4.624533039E0,-6.077765518E-1,4.717065124E0
1.025413487E1,9.677483967E-1,2.996519682E0,1.458654603E0,3.470351627E0
1.026417287E1,5.197670393E-1,1.607671478E0,3.335806709E0,3.739300972E0
1.027420987E1,5.024032938E-1,-9.578095919E-1,8.112405946E0,8.184188324E0
1.028424687E1,7.717428575E-1,-6.091264985E0,1.268768964E1,1.409526745E1
1.029428387E1,1.404599725E0,-1.178653431E1,1.461626626E1,1.882898114E1
1.030432187E1,2.925958992E0,-1.730055690E1,1.260890192E1,2.160682560E1
1.031435887E1,3.427729032E0,-1.831290406E1,6.061816068E0,1.959227897E1
1.032439587E1,2.197496932E0,-1.196123508E1,2.877515979E0,1.249720911E1
1.033443287E1,-6.845773906E-2,-3.174827015E0,3.547029188E0,4.760843318E0
1.034447087E1,-2.201694063E0,3.161066762E0,4.449850395E0,5.885657853E0
1.035450787E1,-4.319958007E0,5.384962265E0,5.881854558E0,9.069513152E0
1.036454487E1,-5.264006177E0,3.990445186E0,3.634050083E0,7.539213077E0
1.037458187E1,-4.326007537E0,1.852584445E0,-9.338058946E-1,4.797749866E0
1.038461987E1,-3.034001796E0,-8.243620974E-1,-5.419939139E0,6.265818386E0
1.039465687E1,-2.032543470E0,-3.881474721E0,-4.621396008E0,6.368232096E0
1.040469387E1,-8.810802354E-1,-5.947111824E0,5.487945181E-1,6.037020527E0
1.041473087E1,8.263080508E-2,-6.349033640E0,2.540218175E0,6.838842328E0
1.042476888E1,-1.895208454E0,-2.684175455E0,-1.857188250E0,3.774355727E0
1.043480587E1,-4.075481243E0,3.118476228E0,-4.889356944E0,7.088035883E0
1.044484288E1,-5.111213170E0,6.537607514E0,-5.635631815E0,1.003120920E1
1.045488087E1,-4.757309273E0,6.666272571E0,-4.397855784E0,9.295822557E0
1.046491787E1,-3.320667975E0,4.405876409E0,-4.178416212E0,6.920819661E0
1.047495487E1,-4.563880455E-1,1.140250906E0,-2.913606749E0,3.161892861E0
1.048499187E1,2.060435712E0,-1.042750340E0,-4.292563802E0,4.874302780E0
1.049502987E1,1.980480593E0,-1.312661322E0,-7.233950672E0,7.614159537E0
1.050506687E1,1.015726263E0,-1.493698136E0,-8.094991769E0,8.294077748E0
1.051510383E1,9.256884974E-1,-1.070401238E0,-7.085696858E0,7.225632012E0
1.052514083E1,1.219483310E0,-1.156788586E0,-5.584553463E0,5.832026814E0
1.053517883E1,1.552156844E0,-2.195404360E0,-4.616571762E0,5.342445695E0
1.054521583E1,2.280333705E0,-3.712902417E0,-3.223651558E0,5.420101063E0
1.055525283E1,2.816917191E0,-3.917910476E0,3.733545135E-1,4.839880014E0
1.056528983E1,1.187882325E0,-1.971219188E0,2.912926133E0,3.712399246E0
1.057532783E1,-7.790520233E-1,-1.130891853E0,1.221379854E0,1.837826756E0
1.058536483E1,-1.434410000E0,-1.124219010E0,-6.008739138E-1,1.918971050E0
1.059540183E1,-1.128159157E0,-3.961628938E-1,-1.180413530E0,1.680197674E0
1.060543883E1,-8.787844723E-1,3.795690805E-1,-1.917795517E0,2.143425875E0
1.061547683E1,-7.169440681E-1,8.412020785E-1,-1.791412190E0,2.104943555E0
1.062551383E1,6.839546621E-2,9.415619338E-1,-1.522739648E0,1.791634128E0
1.063555083E1,9.102863467E-1,9.731135094E-1,-1.567170301E0,2.057083831E0
1.064558883E1,1.468270934E0,1.220421495E0,-1.516262541E0,2.438093570E0
1.065562583E1,1.902622578E0,1.494068264E0,-1.246205378E0,2.721257153E0
1.066566283E1,1.239216785E0,1.368910367E0,-9.839005259E-1,2.092279637E0
1.067569983E1,8.796922526E-1,1.354551360E0,-4.327150083E-1,1.672097522E0
1.068573783E1,1.322074170E0,1.017533053E0,3.502850550E-1,1.704685673E0
1.069577483E1,1.507175675E0,7.177691102E-1,1.142115583E0,2.022671258E0
1.070581183E1,1.393885287E0,5.877328813E-1,1.574968001E0,2.183774333E0
1.071584883E1,1.227726422E0,9.136549276E-1,1.254766871E0,1.979019301E0
1.072588683E1,1.148556584E0,1.858145732E0,3.740031159E-1,2.216250464E0
1.073592383E1,8.158451892E-1,2.371068166E0,-1.496618418E-1,2.511964628E0
1.074596083E1,7.394836226E-1,2.622354598E0,-6.169256902E-1,2.793595707E0
1.075599783E1,1.064473477E0,2.861712125E0,-4.624562860E-1,3.088100692E0
1.076603583E1,1.248455825E0,2.948231036E0,9.584872842E-2,3.203107111E0
1.077607283E1,1.041832180E0,2.584780975E0,1.073082040E0,2.986304078E0
1.078610983E1,4.416504309E-2,1.452396328E0,2.064982653E0,2.524986931E0
1.079614683E1,-1.016545312E0,2.424086040E-1,2.840025387E0,3.026197366E0
1.080618483E1,-1.299420010E0,-5.292244720E-1,4.646292282E0,4.853514487E0
1.081622183E1,-1.890330999E0,-5.690557051E-1,7.980403883E0,8.220950178E0
1.082625883E1,-2.393087904E0,-5.495248353E-1,9.469655796E0,9.782802674E0
1.083629583E1,-1.778947388E0,-1.184392707E0,7.394717528E0,7.697355858E0
1.084633383E1,3.402389538E-1,-2.330350496E0,5.082903875E0,5.601982487E0
1.085637083E1,3.305361134E0,-3.565832664E0,3.730516570E0,6.128403438E0
1.086640783E1,5.476233208E0,-4.286651682E0,2.967252906E0,7.561025235E0
1.087644583E1,6.372839409E0,-4.684531319E0,2.872843469E0,8.414935853E0
1.088648283E1,6.734363397E0,-4.840549065E0,2.170410583E0,8.572820290E0
1.089651983E1,6.490022289E0,-4.650249678E0,1.004513057E0,8.047003036E0
1.090655683E1,5.585410665E0,-4.653549262E0,4.598276702E-1,7.284488624E0
1.091659483E1,3.815451178E0,-4.029077155E0,7.469410153E-1,5.599022351E0
1.092663183E1,1.681788737E0,-2.960775653E0,2.272389532E0,4.093697596E0
1.093666883E1,-6.163310283E-1,-2.841758502E0,3.759022038E0,4.752441688E0
1.094670583E1,-2.623544799E0,-3.146486145E0,4.867409420E0,6.361999437E0
1.095674383E1,-3.542285342E0,-2.985222861E0,5.539708242E0,7.221337022E0
1.096678083E1,-2.716332510E0,-2.390648738E0,5.913410811E0,6.932682822E0
1.097681783E1,-7.122389598E-1,-2.411841386E0,5.545603405E0,6.089169101E0
1.098685483E1,5.377900583E-1,-2.612207340E0,4.817629734E0,5.506578029E0
1.099689283E1,1.196536789E0,-2.368009488E0,2.945243694E0,3.964042083E0
1.100692983E1,1.556007089E0,-1.713606069E0,6.514405616E-1,2.404574521E0
1.101696683E1,1.435879405E0,-6.301146698E-1,-1.481187433E0,2.157014227E0
1.102700383E1,1.406526237E0,-4.518775034E-1,-3.786770293E0,4.064743360E0
1.103704183E1,9.122589049E-1,-1.488560187E0,-5.635125446E0,5.899378487E0
1.104707883E1,-9.047361696E-1,-2.908767008E0,-6.643790612E0,7.308859469E0
1.105711583E1,-2.573701963E0,-3.956819018E0,-6.952341750E0,8.403297825E0
1.106715283E1,-3.782418795E0,-4.897474049E0,-4.854561918E0,7.865031177E0
1.107719083E1,-5.151292325E0,-6.287944854E0,3.476738347E0,8.840914695E0
1.108722783E1,-6.778804575E0,-7.959068563E0,9.880531454E0,1.438484848E1
1.109726483E1,-8.952332747E0,-8.023589079E0,2.026755019E0,1.219138955E1
1.110730283E1,-8.408960937E0,-6.767698374E0,-2.089899539E0,1.099454617E1
1.111733983E1,-4.507045519E0,-4.013042920E0,-1.976497177E0,6.350158572E0
1.112737683E1,-2.398381680E0,-2.186393800E0,-1.990334613E0,3.807096585E0
1.113741383E1,-8.910368742E-1,-1.123381689E0,-2.124866766E0,2.563394606E0
1.114745183E1,8.839955109E-1,-9.567003751E-1,-3.066006823E0,3.331234232E0
1.115748883E1,3.209611808E0,-8.476866406E-1,-6.453875386E0,7.257595201E0
1.116752583E1,7.307582320E0,-1.433135015E-1,-6.436538392E0,9.739113132E0
1.117756283E1,8.119514991E0,-3.810086650E-1,-3.468299938E0,8.837465460E0
1.118760083E1,5.697940330E0,-1.205306443E0,-2.670157048E0,6.406951403E0
1.119763783E1,3.786743688E0,-1.199451041E-1,-2.509354817E0,4.544301506E0
1.120767483E1,1.635908121E0,2.386589600E0,-3.118442899E0,4.254020618E0
1.121771183E1,2.212201948E-1,4.545350044E0,-5.126118892E0,6.854650997E0
1.122774983E1,-9.329842146E-1,5.820706131E0,-6.498876143E0,8.774193440E0
1.123778683E1,-1.743433155E0,6.054902321E0,-6.325272310E0,8.928072080E0
1.124782383E1,-1.566605752E0,6.273645489E0,-6.055354310E0,8.858904962E0
1.125786083E1,-1.640523621E0,6.783917381E0,-6.262621733E0,9.377274857E0
1.126789883E1,-1.541959738E0,7.268964384E0,-6.841080930E0,1.010029066E1
1.127793583E1,-1.129848125E0,7.503070527E0,-7.300392584E0,1.052940435E1
1.128797283E1,-9.022442324E-1,7.517357613E0,-7.148165587E0,1.041253962E1
1.129801083E1,-6.453560221E-1,7.624824175E0,-6.815751377E0,1.024738478E1
1.130804783E1,-6.853255418E-1,7.417670773E0,-5.998532238E0,9.564198858E0
1.131808483E1,-2.175513594E-1,7.223538535E0,-5.203255945E0,8.905094609E0
1.132812183E1,1.762670933E-1,6.716604819E0,-3.992464814E0,7.815601427E0
1.133815983E1,2.467020683E-1,6.217083033E0,-2.243776913E0,6.614190667E0
1.134819683E1,6.635196666E-1,5.653506753E0,-1.143025410E0,5.805936966E0
1.135823383E1,6.504353522E-1,4.214283618E0,7.054408407E-1,4.322140597E0
1.136827083E1,3.568856844E-1,2.067795895E0,2.929476677E0,3.603467893E0
1.137830883E1,-4.672334611E-1,-4.769310683E-1,5.149809471E0,5.192909390E0
1.138834583E1,-2.258702077E0,-4.379960380E0,7.998654798E0,9.394906417E0
1.139838283E1,-2.574029700E0,-8.996348248E0,1.155350054E1,1.486752452E1
1.140841983E1,-1.355294395E0,-1.400378445E1,1.470658352E1,2.035255268E1
1.141845783E1,1.431421927E0,-1.877365179E1,1.311814646E1,2.294743420E1
1.142849483E1,4.100810504E0,-1.743226777E1,5.455286143E0,1.872059704E1
1.143853183E1,3.272680169E0,-9.259518560E0,1.345767673E0,9.912628818E0
1.144856883E1,2.069261207E0,-3.043639469E-1,2.040343802E0,2.921897018E0
1.145860683E1,6.127611570E-1,5.281844863E0,4.498877836E0,6.965146314E0
1.146864383E1,-1.196538543E0,5.696130032E0,6.510236113E0,8.732741613E0
1.147868083E1,-2.402627636E0,2.968871707E0,3.393154446E0,5.108846823E0
1.148871783E1,-3.161745624E0,1.383591557E-1,-2.449027339E0,4.001688837E0
1.149875583E1,-4.245188491E0,-2.917854166E0,-5.544276672E0,7.567991945E0
1.150879283E1,-4.293953685E0,-5.526283035E0,-3.995355093E0,8.058579574E0
1.151883000E1,-4.077837086E0,-6.839254845E0,-9.699185908E-1,8.021527548E0
1.152886700E1,-5.086861271E0,-3.973018729E0,-9.982331479E-1,6.531271302E0
1.153890500E1,-6.548496784E0,1.181207728E0,-3.102081220E0,7.341727979E0
1.154894200E1,-6.516456381E0,5.873998824E0,-5.946211352E0,1.059837230E1
1.155897900E1,-6.231822694E0,8.024905288E0,-5.283147622E0,1.145191546E1
1.156901700E1,-6.476867808E0,6.487779297E0,-4.148514428E0,1.006236894E1
1.157905400E1,-4.117067518E0,3.452788444E0,-3.240758172E0,6.274910877E0
1.158909100E1,-5.518960275E-1,4.264163876E-1,-5.772877661E0,5.814854826E0
1.159912800E1,3.354820977E-1,-8.788587320E-1,-9.031571290E0,9.080430655E0
1.160916600E1,-1.672894245E-1,-1.385241641E0,-9.082794068E0,9.189343189E0
1.161920300E1,-2.474358939E-1,-1.908335892E0,-7.661531825E0,7.899496206E0
1.162924000E1,-2.206172007E-1,-2.381210747E0,-6.649432590E0,7.066384531E0
1.163927700E1,6.267025271E-1,-3.365021737E0,-5.499794564E0,6.477952423E0
1.164931500E1,1.949572503E0,-4.868275977E0,-4.272192103E0,6.764064555E0
1.165935200E1,3.533461894E0,-5.691285614E0,-3.491950463E0,7.554455833E0
1.166938900E1,4.430918572E0,-4.010949032E0,-1.382949678E0,6.134598711E0
1.167942600E1,2.265375066E0,-1.481991425E0,2.759570915E0,3.865676449E0
1.168946400E1,-3.456967449E-1,-8.401875865E-1,2.779654932E0,2.924363685E0
1.169950100E1,-1.112935931E0,-1.103864268E0,1.367462889E0,2.080167652E0
1.170953800E1,-1.368066030E0,-4.026071101E-1,3.751069240E-1,1.474585484E0
1.171957500E1,-9.201932842E-1,5.283772105E-1,-7.578845179E-1,1.303965912E0
1.172961300E1,2.335874945E-2,1.532720699E0,-2.247738548E0,2.720681339E0
1.173965000E1,8.567328680E-1,2.055239584E0,-2.193562925E0,3.125655013E0
1.174968700E1,1.129189875E0,1.588625928E0,-8.763117579E-1,2.136989567E0
1.175972400E1,1.536550333E0,1.423557860E0,4.402163281E-1,2.140395833E0
1.176976200E1,2.382089876E0,1.409461977E0,5.568157285E-1,2.823292227E0
1.177979900E1,2.941028436E0,9.391984892E-1,6.585034865E-1,3.156797254E0
1.178983600E1,2.689849593E0,4.872876567E-1,8.379638904E-1,2.859182326E0
1.179987400E1,2.454230483E0,5.308143300E-1,4.905936724E-1,2.558455251E0
1.180991100E1,2.221739927E0,6.463366002E-1,1.638483747E-1,2.319639108E0
1.181994800E1,1.615599280E0,9.086105347E-1,2.030486566E-1,1.864661603E0
1.182998500E1,9.347084123E-1,1.592648812E0,6.787330985E-2,1.847922304E0
1.184002300E1,6.471536024E-1,1.920387003E0,1.423937162E-1,2.031494523E0
1.185006000E1,4.290048037E-1,2.299785930E0,1.500851619E-1,2.344266623E0
1.186009700E1,3.101421654E-1,2.698510489E0,4.429990911E-1,2.752161917E0
1.187013400E1,1.588187094E-1,3.094858739E0,7.610876226E-1,3.191023091E0
1.188017200E1,-3.631664711E-1,3.163322033E0,9.739731232E-1,3.329732694E0
1.189020900E1,-1.182307297E0,2.795128711E0,1.365026793E0,3.327745964E0
1.190024600E1,-2.056361080E0,1.903838798E0,2.725043399E0,3.908846964E0
1.191028300E1,-3.465328383E0,6.148475897E-1,4.557866009E0,5.758531143E0
1.192032100E1,-4.257136107E0,-5.768874657E-1,5.813432779E0,7.228555019E0
1.193035800E1,-3.606210027E0,-1.298193557E0,6.674741678E0,7.696897670E0
1.194039500E1,-2.094284951E0,-2.026804574E0,6.921984175E0,7.510514707E0
1.195043200E1,2.704661760E-1,-3.033816147E0,5.846107020E0,6.591976916E0
1.196047000E1,3.133322309E0,-3.779637274E0,4.631715174E0,6.749529766E0
1.197050700E1,5.822098353E0,-3.940335132E0,3.446831008E0,7.829668843E0
1.198054400E1,7.335050200E0,-3.969807438E0,2.853084851E0,8.814897940E0
1.199058200E1,7.734864095E0,-3.790913630E0,3.244714398E0,9.204744442E0
1.200061900E1,7.213569617E0,-3.504710550E0,2.880256569E0,8.521411888E0
1.201065600E1,6.028784562E0,-3.503235297E0,1.298641015E0,7.092627816E0
1.202069300E1,4.510957599E0,-3.384376021E0,3.243286800E-1,5.648710349E0
1.203073100E1,2.009840194E0,-3.206818301E0,1.484539057E0,4.065340998E0
1.204076800E1,-5.149891332E-1,-3.508405990E0,3.629349214E0,5.074081406E0
1.205080500E1,-2.558612054E0,-3.983664755E0,4.426686942E0,6.481638512E0
1.206084200E1,-4.210196999E0,-4.031077487E0,4.560408086E0,7.400855788E0
1.207088000E1,-4.979966567E0,-3.576434251E0,4.142685632E0,7.399513038E0
1.208091700E1,-4.415829248E0,-2.626468114E0,3.866803472E0,6.430400593E0
1.209095400E1,-2.658126402E0,-2.115188747E0,3.915668653E0,5.183832598E0
1.210099100E1,-9.852824423E-1,-2.152633731E0,3.078996413E0,3.883919719E0
1.211102900E1,-4.222698346E-2,-1.669680616E0,1.445082046E0,2.208591994E0
1.212106600E1,3.419656366E-2,-1.053163061E0,-4.422225809E-1,1.142752226E0
1.213110300E1,-4.939012961E-1,-5.684949571E-1,-5.699024550E-1,9.444118883E-1
1.214114000E1,-1.476118043E0,-2.224251598E-1,-1.252244382E0,1.948464375E0
1.215117800E1,-1.630512165E0,-5.917610282E-1,-2.811122015E0,3.303204205E0
1.216121500E1,-1.674371983E0,-1.629816638E0,-3.297755368E0,4.041659842E0
1.217125200E1,-1.753985479E0,-2.558669064E0,-2.298672035E0,3.860977281E0
1.218128900E1,-1.905733004E0,-3.409324921E0,-3.656866211E-1,3.922886871E0
1.219132700E1,-2.945446007E0,-4.167820473E0,7.842139453E-1,5.163465037E0
1.220136400E1,-4.011178828E0,-4.991143520E0,5.571513587E-1,6.427401253E0
1.221140100E1,-5.014351704E0,-5.614967755E0,-8.053241479E-1,7.571006068E0
1.222143900E1,-5.270790117E0,-5.405465527E0,-1.891960472E0,7.783302669E0
1.223147600E1,-3.735997750E0,-4.269835675E0,-1.690430191E0,5.920027881E0
1.224151300E1,-1.995691686E0,-3.148607515E0,-1.777672842E0,4.129967956E0
1.225155000E1,-4.343474047E-1,-2.182263912E0,-2.090155355E0,3.052815562E0
1.226158800E1,9.203505743E-1,-1.184331896E0,-3.274437549E0,3.601614705E0
1.227162500E1,1.847174893E0,-1.275443210E0,-5.390410116E0,5.839120797E0
1.228166200E1,4.016400391E0,-1.272756414E0,-5.577338583E0,6.989855983E0
1.229169900E1,5.264403203E0,-1.356637647E0,-3.713810782E0,6.583828469E0
1.230173700E1,5.262719790E0,-1.474073710E0,-2.216346747E0,5.897567786E0
1.231177400E1,4.166391413E0,-9.016669661E-1,-2.420302015E0,4.902008014E0
1.232181100E1,1.962917019E0,9.466712308E-1,-3.142774917E0,3.824429869E0
1.233184800E1,3.071410820E-2,2.705414296E0,-4.466171143E0,5.221771208E0
1.234188600E1,-2.060032985E0,3.928964637E0,-4.600163013E0,6.390774504E0
1.235192300E1,-1.798280330E0,5.228859149E0,-4.526522010E0,7.145920630E0
1.236196000E1,-1.102994787E0,6.039355744E0,-5.521820440E0,8.257173625E0
1.237199700E1,-1.175943480E0,6.508956742E0,-5.693606374E0,8.727342922E0
1.238203500E1,-1.245271139E0,7.442882212E0,-5.616902014E0,9.407272935E0
1.239207200E1,-1.012430918E0,7.946388291E0,-5.881228906E0,9.937754107E0
1.240210900E1,-1.053425309E0,7.417897645E0,-5.876194453E0,9.521794558E0
1.241214600E1,-6.202248354E-1,6.515217941E0,-6.009605695E0,8.885274575E0
1.242218400E1,-3.687913464E-1,5.993202501E0,-5.676869304E0,8.263251682E0
1.243222100E1,-2.011535740E-1,5.579236005E0,-4.865618418E0,7.405577611E0
1.244225800E1,-8.639699668E-3,5.621625980E0,-4.114174023E0,6.966288911E0
1.245229500E1,-6.761486292E-2,6.146008957E0,-3.147818726E0,6.905560122E0
1.246233300E1,1.048157260E-2,6.295356785E0,-1.588626512E0,6.492716004E0
1.247237000E1,4.796773593E-1,5.562922273E0,-9.661676019E-2,5.584400540E0
1.248240700E1,1.402467100E0,4.327833037E0,1.867462393E0,4.917770689E0
1.249244500E1,1.731619440E0,2.222199810E0,3.354622464E0,4.380658599E0
1.250248200E1,1.613323251E0,-8.388497436E-1,5.615006347E0,5.902099379E0
1.251251871E1,1.148786087E0,-4.739730204E0,8.970180788E0,1.021023483E1
1.252255571E1,1.103197393E0,-9.535517664E0,1.388431882E1,1.687949794E1
1.253259371E1,3.006077833E0,-1.546893999E1,1.376057770E1,2.092075780E1
1.254263071E1,3.844949796E0,-1.872622502E1,6.130492201E0,2.007580825E1
1.255266771E1,1.742029384E0,-1.454940451E1,1.950015430E0,1.478250311E1
1.256270471E1,7.626697330E-1,-5.854307740E0,3.004750807E0,6.624432931E0
1.257274271E1,-1.338786536E0,1.332584540E0,4.010467806E0,4.433055715E0
1.258277971E1,-4.624763711E0,5.127752604E0,5.785136349E0,9.008334403E0
1.259281671E1,-7.033049698E0,4.797436375E0,4.223853171E0,9.503689780E0
1.260285371E1,-7.470024987E0,2.842767146E0,-1.202822546E0,8.082659243E0
1.261289171E1,-6.971791343E0,-4.195377231E-3,-6.648431547E0,9.633666704E0
1.262292871E1,-5.865796934E0,-3.686748991E0,-7.420638235E0,1.015212114E1
1.263296571E1,-4.430148202E0,-6.735929282E0,-2.008723229E0,8.308665680E0
1.264300271E1,-1.234895401E0,-6.586706584E0,3.299154607E0,7.469544256E0
1.265304071E1,-4.218777788E-1,-3.275564600E0,2.624001759E0,4.218138160E0
1.266307771E1,-2.817020102E0,2.354217076E0,-1.998232740E0,4.179817505E0
1.267311471E1,-3.738909663E0,6.549825271E0,-5.258194045E0,9.193925232E0
1.268315271E1,-2.895790867E0,7.196681689E0,-5.092969857E0,9.279880066E0
1.269318971E1,-1.437066098E0,4.747447944E0,-5.391136340E0,7.325829099E0
1.270322671E1,3.419071645E-1,1.641500545E0,-4.175376245E0,4.499465672E0
1.271326371E1,1.586343467E0,-1.142154760E0,-3.522203080E0,4.028264841E0
1.272330171E1,1.580342323E0,-1.999951236E0,-5.386241051E0,5.958932745E0
1.273333871E1,7.882765907E-1,-1.162805371E0,-6.754859058E0,6.899392524E0
1.274337571E1,4.953515518E-1,-1.022694975E0,-6.163573408E0,6.267448869E0
1.275341271E1,9.528879905E-1,-4.365554595E-1,-5.134889715E0,5.240769846E0
1.276345071E1,1.603408858E0,-6.880751950E-1,-4.507295195E0,4.833226399E0
1.277348771E1,2.212792225E0,-2.208789221E0,-3.260802427E0,4.517524955E0
1.278352471E1,2.984514179E0,-3.604447677E0,-4.849087170E-1,4.704732128E0
1.279356171E1,2.219465652E0,-2.620902150E0,1.388861652E0,3.704604236E0
1.280359971E1,2.325414276E-1,-1.514095563E0,5.159312658E-1,1.616399072E0
1.281363671E1,-8.498357847E-1,-1.047818121E0,-2.597768810E-1,1.373909642E0
1.282367371E1,-8.812981904E-1,-9.128269619E-1,3.118061368E-1,1.306584337E0
1.283371071E1,-8.318523806E-1,-5.765541744E-1,5.825323677E-1,1.167791530E0
1.284374871E1,-5.049860090E-2,6.023976982E-2,-2.771844806E-1,2.881148640E-1
1.285378571E1,1.150655442E0,6.665632886E-1,-1.148876573E0,1.757336605E0
1.286382271E1,2.101706530E0,1.074173276E0,-1.622223444E0,2.864022951E0
1.287385971E1,1.721808543E0,9.033708447E-1,-6.660715377E-1,2.055323536E0
1.288389771E1,1.412461307E0,9.525751644E-1,-2.183584213E-2,1.703796699E0
1.289393471E1,1.570776132E0,1.057088882E0,6.333569509E-1,1.996475792E0
1.290397171E1,1.648981180E0,1.087864532E0,6.973046594E-1,2.094951541E0
1.291400971E1,1.409367545E0,6.911338735E-1,5.802969041E-1,1.673537393E0
1.292404671E1,1.767073301E0,3.189188361E-1,3.539003885E-1,1.830164682E0
1.293408371E1,1.737929317E0,4.466103315E-1,-6.821747696E-1,1.919693078E0
1.294412071E1,8.834397331E-1,9.875853682E-1,-9.978425539E-1,1.658758688E0
1.295415871E1,4.362785938E-1,1.697851916E0,-1.376725171E0,2.228993570E0
1.296419571E1,4.763141870E-3,2.348983818E0,-1.692504637E0,2.895223586E0
1.297423271E1,-9.114449725E-2,2.943470233E0,-1.471612033E0,3.292106667E0
1.298426971E1,-2.359018224E-1,3.359621834E0,-1.225648906E0,3.583981553E0
1.299430771E1,-2.292756115E-1,3.593436785E0,-5.983770796E-1,3.650124705E0
1.300434471E1,-2.422782111E-1,3.413146076E0,-6.177232504E-2,3.422291731E0
1.301438171E1,-5.579044801E-1,2.897881247E0,1.204456989E-1,2.953553842E0
1.302441871E1,-1.430134370E0,1.953750046E0,1.901081836E-1,2.428696087E0
1.303445671E1,-2.458159812E0,5.857600307E-1,6.832426174E-1,2.617725148E0
1.304449371E1,-3.522407148E0,-8.144311863E-1,2.242357063E0,4.254270263E0
1.305453071E1,-3.664198034E0,-1.432291262E0,5.248605781E0,6.559395409E0
1.306456771E1,-3.018105848E0,-1.501820503E0,8.528199112E0,9.170311218E0
1.307460571E1,-1.609019408E0,-1.720461929E0,9.670222310E0,9.952996143E0
1.308464271E1,5.862067580E-1,-2.213989735E0,7.950114137E0,8.273433610E0
1.309467971E1,3.432832190E0,-2.447556179E0,5.677426543E0,7.071636320E0
1.310471771E1,5.322039793E0,-3.115509936E0,4.082744654E0,7.395898433E0
1.311475471E1,6.006927670E0,-3.808937672E0,3.298857276E0,7.840513092E0
1.312479171E1,6.241576434E0,-3.890301678E0,2.709813741E0,7.838036364E0
1.313482871E1,5.854647464E0,-4.148889527E0,1.489874349E0,7.328704306E0
1.314486671E1,4.981143027E0,-4.486571494E0,7.270042026E-1,6.743118324E0
1.315490371E1,3.289574529E0,-4.261555433E0,1.434614360E0,5.571379869E0
1.316494071E1,1.102012601E0,-3.774720351E0,2.125309693E0,4.469886664E0
1.317497771E1,-3.355448091E-1,-3.617787514E0,2.739309144E0,4.550251796E0
1.318501571E1,-5.627895364E-1,-3.252499673E0,3.436481144E0,4.764964726E0
1.319505271E1,-7.496592396E-1,-2.557077452E0,3.711285077E0,4.568836941E0
1.320508971E1,-1.015848908E0,-2.544457406E0,3.945871861E0,4.803760739E0
1.321512671E1,-8.360308009E-1,-2.647317531E0,3.934129775E0,4.815040467E0
1.322516471E1,-4.199319716E-1,-2.617054097E0,3.904158994E0,4.718874067E0
1.323520171E1,-1.950496656E-1,-2.622117201E0,3.874372108E0,4.682339396E0
1.324523871E1,-6.094509020E-2,-2.258687021E0,2.876982129E0,3.658197306E0
1.325527571E1,2.118416995E-2,-1.758606825E0,1.181867221E0,2.118951832E0
1.326531371E1,-9.219568044E-2,-1.160319720E0,-2.974689102E-1,1.201386552E0
1.327535071E1,-5.628108788E-1,-8.048335665E-1,-1.856704978E0,2.100444365E0
1.328538771E1,-1.860195181E0,-1.216941233E0,-3.776782079E0,4.382391464E0
1.329542571E1,-3.501850092E0,-1.920784029E0,-5.318304006E0,6.651069302E0
1.330546271E1,-4.865969251E0,-2.756653447E0,-5.346869994E0,7.737300156E0
1.331549971E1,-5.760235396E0,-3.580655941E0,-2.984983710E0,7.410231881E0
1.332553671E1,-5.768175330E0,-4.128616061E0,1.111560227E0,7.180033660E0
1.333557471E1,-5.862227794E0,-4.538929217E0,3.663720902E0,8.269851509E0
1.334561171E1,-6.621211588E0,-5.282913734E0,2.226693980E0,8.758298151E0
1.335564871E1,-6.752966899E0,-5.406678824E0,-4.996013081E-1,8.665122002E0
1.336568571E1,-5.177868505E0,-4.339898182E0,-1.978040696E0,7.039721832E0
1.337572371E1,-2.393553488E0,-2.823472504E0,-2.337960208E0,4.378030746E0
1.338576071E1,4.039095774E-2,-2.023114981E0,-3.081214846E0,3.686259701E0
1.339579771E1,1.630253133E0,-1.566111224E0,-3.465811363E0,4.137907448E0
1.340583471E1,2.757712378E0,-9.167720783E-1,-3.514665142E0,4.560517478E0
1.341587271E1,3.365955245E0,-2.662102801E-1,-3.735328828E0,5.035196528E0
1.342590971E1,4.333429115E0,-3.778652018E-1,-4.065466717E0,5.953940681E0
1.343594671E1,5.060669253E0,-1.253975158E0,-3.654919088E0,6.367201938E0
1.344598371E1,4.637650975E0,-6.629134566E-1,-3.444478381E0,5.814782209E0
1.345602171E1,2.595393087E0,7.717085052E-1,-2.822401879E0,3.911208465E0
1.346605871E1,-2.639374673E-2,2.829962913E0,-3.019180566E0,4.138216767E0
1.347609571E1,-1.784901608E0,4.216748219E0,-3.626101086E0,5.840843122E0
1.348613271E1,-1.896612517E0,5.039670732E0,-4.680832662E0,7.134817064E0
1.349617071E1,-1.988618017E0,5.412354131E0,-5.166635419E0,7.742241304E0
1.350620771E1,-1.649391216E0,5.778647109E0,-4.839045746E0,7.715543890E0
1.351624458E1,-1.470458377E0,5.909092058E0,-5.429167800E0,8.158154190E0
1.352628258E1,-8.554241149E-1,6.391090323E0,-6.061961664E0,8.850150572E0
1.353631958E1,-9.528135847E-1,6.431594571E0,-5.980484222E0,8.833994226E0
1.354635658E1,-1.055183713E0,6.613333635E0,-5.712367165E0,8.802314074E0
1.355639358E1,-5.565395938E-1,6.891739452E0,-5.686686779E0,8.952330173E0
1.356643158E1,1.333330353E-1,6.946316194E0,-5.542752888E0,8.887699136E0
1.357646858E1,6.417725560E-1,7.066647214E0,-4.791499112E0,8.561999685E0
1.358650558E1,5.238378708E-1,7.122981629E0,-3.702253468E0,8.044746990E0
1.359654258E1,7.161095242E-1,7.129451573E0,-2.651179032E0,7.640068249E0
1.360658058E1,1.327160371E0,6.321253518E0,-8.990392274E-1,6.521339757E0
1.361661758E1,1.899449440E0,4.744485744E0,1.163668420E0,5.241390783E0
1.362665458E1,1.887118831E0,2.506399049E0,3.638349541E0,4.804252393E0
1.363669158E1,1.269952821E0,-7.667366177E-1,6.293299735E0,6.465778125E0
1.364672958E1,4.310441664E-1,-5.189086972E0,8.226679251E0,9.736050235E0
1.365676658E1,1.411153869E0,-1.010265665E1,1.108421588E1,1.506369371E1
1.366680358E1,1.026026279E0,-1.580103845E1,1.124023713E1,1.941825113E1
1.367684058E1,4.521317111E-1,-1.788270101E1,8.266600531E0,1.970614379E1
1.368687858E1,-7.178305060E-2,-1.364154827E1,4.486610085E0,1.436059407E1
1.369691558E1,-7.650822942E-1,-5.970569099E0,4.047598503E0,7.253695604E0
1.370695258E1,-1.730657866E0,8.496548134E-1,4.156505818E0,4.581880680E0
1.371699058E1,-4.028598268E0,5.380297356E0,4.561339840E0,8.122993585E0
1.372702758E1,-6.099928220E0,6.179539230E0,4.007727216E0,9.563352280E0
1.373706458E1,-6.826386293E0,4.342047619E0,9.624253839E-1,8.147342509E0
1.374710158E1,-4.760920221E0,1.475053704E0,-3.349272262E0,6.004978723E0
1.375713958E1,-2.676537237E0,-2.293018947E0,-6.635734903E0,7.513638611E0
1.376717658E1,-2.524872158E0,-5.739502923E0,-3.637256404E0,7.248896976E0
1.377721358E1,-1.467283924E0,-7.376823294E0,2.291851258E0,7.862761996E0
1.378725058E1,-1.481825364E0,-6.012859086E0,2.086181880E0,6.534710065E0
1.379728858E1,-3.936215477E0,-9.779637748E-1,-2.139326053E0,4.585512118E0
1.380732558E1,-4.475620244E0,3.092002375E0,-4.316648483E0,6.944430097E0
1.381736258E1,-3.004280106E0,5.024091995E0,-5.857427230E0,8.281102166E0
1.382739958E1,-2.087932097E0,4.586865860E0,-5.236892053E0,7.268000911E0
1.383743758E1,-1.165589523E0,3.257378005E0,-3.658333277E0,5.035127880E0
1.384747458E1,4.711787237E-1,1.149083710E0,-3.082434868E0,3.323222454E0
1.385751158E1,1.013930583E0,-2.363596594E-1,-4.679736602E0,4.794148076E0
1.386754858E1,7.099923134E-1,-8.294684708E-1,-5.942925217E0,6.042389194E0
1.387758658E1,8.343856868E-1,-1.076309849E0,-5.803508300E0,5.961153492E0
1.388762358E1,1.339950570E0,-1.108048536E0,-5.337182327E0,5.613265919E0
1.389766058E1,1.978917047E0,-1.984949035E0,-5.239811568E0,5.942369950E0
1.390769858E1,2.590679061E0,-3.828404807E0,-4.930842939E0,6.758810062E0
1.391773558E1,3.724871083E0,-5.641348053E0,-4.288743524E0,8.005797490E0
1.392777258E1,4.307765101E0,-3.898807037E0,-3.062247064E0,6.567716008E0
1.393780958E1,2.698628603E0,-6.789020830E-1,-1.168185979E-1,2.785166235E0
1.394784758E1,6.173382112E-1,2.089216000E-1,2.910314181E0,2.982395570E0
1.395788458E1,-2.279978487E-1,-5.490032637E-1,2.789450480E0,2.852090739E0
1.396792158E1,-6.138538554E-1,-7.645047355E-1,1.894450947E0,2.133126447E0
1.397795858E1,-1.402854916E0,-2.997165799E-2,1.631957889E-2,1.403269947E0
1.398799658E1,-1.306339605E0,6.992275894E-1,-1.505284978E0,2.112184947E0
1.399803358E1,-7.767324328E-2,1.633057165E0,-2.024033725E0,2.601849603E0
1.400807058E1,8.728439936E-1,1.871595497E0,-1.544496260E0,2.578797208E0
1.401810758E1,1.510033210E0,2.455095579E0,-1.610149675E0,3.301556689E0
1.402814558E1,1.777932458E0,2.053907003E0,-1.500814197E0,3.103549751E0
1.403818258E1,1.310481773E0,5.790573674E-1,5.980247118E-2,1.433961731E0
1.404821958E1,1.094726824E0,6.519318008E-1,1.141662424E0,1.710799516E0
1.405825658E1,1.567295285E0,1.684645979E0,4.673288438E-1,2.347944385E0
1.406829458E1,1.550834203E0,1.442620368E0,-3.861917100E-1,2.152994261E0
1.407833158E1,1.351975808E0,1.121270844E0,-9.814019376E-1,2.012023025E0
1.408836858E1,1.006378173E0,1.347811275E0,-1.073054704E0,1.995203914E0
1.409840658E1,5.353893377E-1,1.411954061E0,-2.819001138E-1,1.536139215E0
1.410844358E1,4.384395786E-1,1.566431651E0,2.455538213E-1,1.645063543E0
1.411848058E1,3.717721108E-1,1.763039600E0,4.726105607E-1,1.862762431E0
1.412851758E1,2.737752615E-1,2.120165897E0,7.297278357E-1,2.258884468E0
1.413855558E1,1.275584713E-2,2.474484946E0,1.138050672E0,2.723673584E0
1.414859258E1,-5.965364492E-1,2.397926767E0,1.547871419E0,2.915787106E0
1.415862958E1,-1.457063283E0,2.074382783E0,1.987238220E0,3.221057759E0
1.416866658E1,-2.615343786E0,1.252802791E0,3.188187318E0,4.309765229E0
1.417870458E1,-3.955516258E0,-3.357594019E-1,5.039333932E0,6.415117281E0
1.418874158E1,-4.170066973E0,-1.657554660E0,6.588910400E0,7.971868430E0
1.419877858E1,-2.944622719E0,-1.934941308E0,6.934686667E0,7.778475428E0
1.420881558E1,-9.170970373E-1,-1.909712327E0,5.843381048E0,6.215558722E0
1.421885358E1,1.204794812E0,-2.047280354E0,4.144713446E0,4.777189229E0
1.422889058E1,3.402408834E0,-2.156306368E0,2.817662126E0,4.915817621E0
1.423892758E1,5.409883683E0,-2.176481016E0,1.954534743E0,6.150131473E0
1.424896458E1,6.399790395E0,-2.196415928E0,1.266234138E0,6.883669728E0
1.425900258E1,7.020160096E0,-2.690270008E0,1.234114505E0,7.618611363E0
1.426903958E1,6.576064067E0,-4.074590712E0,1.692588837E0,7.919076023E0
1.427907658E1,5.383713300E0,-5.094208297E0,1.428981299E0,7.548331910E0
1.428911458E1,3.835628749E0,-5.077013975E0,1.434483090E0,6.522718800E0
1.429915158E1,1.614401624E0,-4.657783815E0,2.354734554E0,5.463150876E0
1.430918858E1,-6.383523734E-1,-4.567151973E0,3.570757774E0,5.832382187E0
1.431922558E1,-2.530688383E0,-4.334995292E0,3.105037572E0,5.902357681E0
1.432926358E1,-3.110891512E0,-3.198645648E0,4.985704440E0,6.690756963E0
1.433930058E1,-2.688095136E0,-2.289479628E0,6.204653606E0,7.138998445E0
1.434933758E1,-1.603821672E0,-2.388141451E0,5.136505301E0,5.887202243E0
1.435937458E1,-3.838638604E-2,-2.806612058E0,3.944365618E0,4.841132604E0
1.436941258E1,9.814149477E-1,-2.957331058E0,3.194647322E0,4.462594962E0
1.437944958E1,1.037380257E0,-2.483352833E0,2.552551707E0,3.709274769E0
1.438948658E1,5.117246327E-1,-1.644796035E0,1.898394310E0,2.563419016E0
1.439952358E1,2.829568519E-1,-1.246001310E0,1.378898581E0,1.879879023E0
1.440956158E1,4.150185563E-1,-6.988919592E-1,-3.474742619E-1,8.839845787E-1
1.441959858E1,-2.126895458E-1,-1.444846988E-1,-2.707512277E0,2.719693991E0
1.442963558E1,-1.375053306E0,-7.949166888E-1,-3.509030473E0,3.851747525E0
1.443967358E1,-2.000600570E0,-2.311128944E0,-3.911555722E0,4.964271124E0
1.444971058E1,-2.162533360E0,-3.636699749E0,-2.546719694E0,4.938412376E0
1.445974758E1,-2.775151114E0,-4.374972705E0,-2.026136237E-1,5.184872434E0
1.446978458E1,-3.656176239E0,-4.848326447E0,1.041907902E0,6.161125393E0
1.447982258E1,-4.757667122E0,-5.150045114E0,4.595535819E-1,7.026346890E0
1.448985958E1,-5.435862862E0,-5.134074029E0,2.919261883E-1,7.482816454E0
1.449989658E1,-5.163129428E0,-4.381636192E0,-3.419492644E-1,6.780381295E0
1.450993358E1,-3.825135044E0,-3.027756093E0,-1.389869858E0,5.072544064E0
1.451997221E1,-2.783340724E0,-1.647647138E0,-1.762470373E0,3.683480486E0
1.453000921E1,-1.865117952E0,-3.565012300E-1,-2.760434549E0,3.350486084E0
1.454004621E1,-1.731011184E-1,6.744166839E-1,-3.868184584E0,3.930350346E0
1.455008321E1,2.754466588E0,6.306485206E-1,-6.456699007E0,7.047961819E0
1.456012121E1,4.400244079E0,-1.785839063E-1,-6.725480307E0,8.039037600E0
1.457015821E1,5.574253592E0,-6.821315002E-1,-3.743955810E0,6.749430465E0
1.458019521E1,6.010728360E0,-1.109060104E0,-2.515455217E0,6.609567662E0
1.459023221E1,5.476850674E0,-1.308763568E0,-2.609541594E0,6.206324413E0
1.460027021E1,2.904226061E0,-3.010538381E-1,-2.761267485E0,4.018676467E0
1.461030721E1,6.038236879E-1,2.164265597E0,-3.398298241E0,4.073951345E0
1.462034421E1,-5.473525947E-1,4.378878061E0,-4.191287103E0,6.086136337E0
1.463038221E1,-1.023082645E0,5.664966127E0,-5.441610090E0,7.921468279E0
1.464041921E1,-1.620743660E0,5.861033208E0,-5.801144271E0,8.404272433E0
1.465045621E1,-1.522998679E0,6.053715336E0,-5.819466521E0,8.534236049E0
1.466049321E1,-1.526428218E0,6.776103746E0,-5.969048823E0,9.158335489E0
1.467053121E1,-1.572433379E0,7.229015622E0,-6.157483533E0,9.625269713E0
1.468056821E1,-1.366854779E0,7.258114291E0,-6.457577258E0,9.810648250E0
1.469060521E1,-9.608561374E-1,6.946013893E0,-6.443067393E0,9.522786932E0
1.470064221E1,-7.007328089E-1,6.703178442E0,-5.967463642E0,9.001902578E0
1.471068021E1,-6.481140076E-1,6.956354109E0,-4.971129670E0,8.574557974E0
1.472071721E1,-5.004930085E-1,7.063078074E0,-3.977708781E0,8.121559719E0
1.473075421E1,-6.039793700E-2,6.595935245E0,-2.872584438E0,7.194563990E0
1.474079121E1,6.256003270E-1,5.766289018E0,-1.507425936E0,5.992812175E0
1.475082921E1,1.358655667E0,4.433160687E0,4.153499472E-1,4.655252354E0
1.476086621E1,1.245954971E0,2.382557361E0,2.224065364E0,3.489333763E0
1.477090321E1,2.882785490E-1,-8.385491967E-2,5.614756086E0,5.622777078E0
1.478094121E1,-1.078233437E0,-3.971439396E0,9.609503068E0,1.045358634E1
1.479097821E1,-4.724253501E-1,-9.040923911E0,1.197496434E1,1.501203723E1
1.480101521E1,8.946589319E-1,-1.509748041E1,1.415954024E1,2.071779209E1
1.481105221E1,1.608096132E0,-1.887291412E1,1.079532367E1,2.180164841E1
1.482109021E1,2.837008516E0,-1.525140018E1,3.872250446E0,1.598900085E1
1.483112721E1,3.521507846E0,-7.228365996E0,2.877871198E0,8.540048894E0
1.484116421E1,2.549859649E0,6.019766986E-1,4.042401205E0,4.817174242E0
1.485120121E1,5.195803669E-1,6.562058231E0,4.437850739E0,7.938834371E0
1.486123921E1,-2.710708365E0,9.631563444E0,4.724014642E0,1.106486640E1
1.487127621E1,-4.125533117E0,7.322410274E0,1.875662820E0,8.611377749E0
1.488131321E1,-4.211091623E0,2.588616164E0,-4.271840977E0,6.533211433E0
1.489135021E1,-5.285737939E0,-5.404090261E-1,-8.255356336E0,9.817432236E0
1.490138821E1,-5.089230562E0,-3.619720019E0,-8.350322134E0,1.042739279E1
1.491142521E1,-4.643504622E0,-7.847701324E0,-8.574479824E-1,9.158808235E0
1.492146221E1,-4.987602446E0,-1.049125559E1,6.014316212E0,1.308107876E1
1.493149921E1,-5.885361133E0,-7.287243950E0,4.173914441E0,1.025489941E1
1.494153721E1,-6.236363642E0,3.007983148E-2,-2.682203774E0,6.788766703E0
1.495157421E1,-5.074238886E0,5.539400679E0,-5.702017593E0,9.431111535E0
1.496161121E1,-3.963868421E0,6.586714770E0,-5.237116002E0,9.301851877E0
1.497164921E1,-2.906195403E0,5.026306336E0,-4.604576492E0,7.410253152E0
1.498168621E1,6.445922296E-1,2.006917024E0,-3.793934009E0,4.340178608E0
1.499172321E1,3.360504178E0,-1.093040487E0,-5.503112859E0,6.540028821E0
1.500176021E1,3.198856732E0,-2.268275869E0,-6.789359969E0,7.840482677E0
1.501179821E1,1.798283107E0,-2.489688876E0,-7.024870613E0,7.666888545E0
1.502183521E1,1.764890536E0,-2.210589579E0,-6.664891459E0,7.240326170E0
1.503187221E1,2.369584728E0,-2.508605204E0,-6.033334281E0,6.950478717E0
1.504190921E1,2.894291056E0,-3.667678882E0,-5.222131927E0,7.007100039E0
1.505194721E1,3.420399547E0,-4.542621149E0,-5.069079888E0,7.617749725E0
1.506198421E1,3.175491551E0,-2.904652323E0,-4.834045208E0,6.472151479E0
1.507202121E1,1.694838261E0,-5.550463611E-1,-2.685860623E0,3.224034813E0
1.508205821E1,-8.481143644E-1,3.233831853E-1,1.577041424E0,1.819597294E0
1.509209621E1,-3.159870422E0,3.036096561E-1,3.436192877E0,4.678074539E0
1.510213321E1,-3.223777273E0,2.768674153E-1,1.527575149E0,3.578111416E0
1.511217021E1,-2.694528243E0,5.796385807E-1,4.325033391E-1,2.789896499E0
1.512220721E1,-2.117229718E0,4.060499507E-1,5.443364547E-1,2.223474852E0
1.513224521E1,-1.364444410E0,6.387673795E-1,3.024589241E-2,1.506866659E0
1.514228221E1,-2.012525381E-1,1.339102432E0,-4.989050509E-1,1.443123056E0
1.515231921E1,7.939505826E-1,1.851237246E0,-9.046006604E-1,2.208107612E0
1.516235621E1,9.515540944E-1,1.110266969E0,-8.162129060E-1,1.674619791E0
1.517239421E1,1.552170146E0,1.354694617E-1,7.149047054E-2,1.559709917E0
1.518243121E1,2.154684058E0,4.845634389E-1,-6.160165943E-2,2.209357345E0
1.519246821E1,3.100559775E0,1.489825525E0,-1.051628167E0,3.597078372E0
1.520250621E1,3.760995181E0,2.174826838E0,-2.045800424E0,4.802109526E0
1.521254321E1,3.584708646E0,2.045189974E0,-1.865848854E0,4.529274782E0
1.522258021E1,2.772184821E0,1.949641793E0,-1.054731284E0,3.549446420E0
1.523261721E1,2.136589118E0,2.109702305E0,6.378124561E-3,3.002648423E0
1.524265521E1,1.571330741E0,2.414779612E0,1.155962960E0,3.104269839E0
1.525269221E1,7.258123939E-1,2.632721127E0,1.647662340E0,3.189485123E0
1.526272921E1,-3.708884503E-1,2.652199956E0,1.803340949E0,3.228585050E0
1.527276621E1,-1.369515993E0,2.294078463E0,2.795841486E0,3.867182394E0
1.528280421E1,-2.601936121E0,1.568172367E0,4.074890674E0,5.082712874E0
1.529284121E1,-3.653570720E0,7.185555607E-1,5.386931022E0,6.548582056E0
1.530287821E1,-4.370352820E0,-8.173764288E-2,6.516089761E0,7.846406221E0
1.531291621E1,-4.223650565E0,-7.546065688E-1,6.061176968E0,7.426070388E0
1.532295321E1,-2.347585164E0,-8.985199946E-1,4.400957147E0,5.068226326E0
1.533299021E1,-1.392821386E-2,-1.584704785E0,4.177533867E0,4.468027805E0
1.534302721E1,1.615619014E0,-2.868544596E0,4.143772921E0,5.292412203E0
1.535306521E1,3.417030382E0,-3.646341807E0,4.019038948E0,6.412844865E0
1.536310221E1,5.299825051E0,-3.409759369E0,3.834141802E0,7.376669159E0
1.537313921E1,6.273717409E0,-2.941930076E0,3.058334692E0,7.574159610E0
1.538317621E1,6.094550536E0,-3.057611391E0,2.228890779E0,7.173596570E0
1.539321421E1,5.632254463E0,-3.325799784E0,1.608528242E0,6.735770012E0
1.540325121E1,4.420943222E0,-3.221517032E0,1.505308513E0,5.673523128E0
1.541328821E1,2.262253091E0,-3.274413868E0,1.867694381E0,4.396345929E0
1.542332521E1,3.122397079E-1,-3.222725067E0,2.750467093E0,4.248354943E0
1.543336321E1,-1.436397615E0,-2.951086231E0,3.132120706E0,4.536775085E0
1.544340021E1,-2.736850682E0,-3.078777142E0,3.788069544E0,5.596310500E0
1.545343721E1,-3.076884983E0,-2.974903110E0,4.801929960E0,6.432402433E0
1.546347421E1,-1.906832573E0,-2.352049513E0,5.594249901E0,6.361114629E0
1.547351221E1,2.398627263E-1,-2.178948541E0,4.557043891E0,5.056876496E0
1.548354921E1,1.799395979E0,-2.530213589E0,2.818083125E0,4.193017910E0
1.549358621E1,2.434237245E0,-2.795918670E0,2.824243752E0,4.660367469E0
1.550362421E1,2.420499651E0,-2.623379030E0,3.175791221E0,4.777717653E0
1.551366108E1,1.858081120E0,-1.719817566E0,1.644489641E0,3.019036947E0
1.552369808E1,1.619697447E0,-9.300119287E-1,-3.562813747E-1,1.901388552E0
1.553373508E1,1.206502199E0,-7.894653296E-1,-1.963026069E0,2.435646610E0
1.554377308E1,8.682764411E-2,-2.008194056E0,-3.211943386E0,3.789058289E0
1.555381008E1,-1.123958078E0,-3.356663142E0,-4.695463858E0,5.880293364E0
1.556384708E1,-2.134930994E0,-4.092460973E0,-4.779840349E0,6.644775461E0
1.557388408E1,-2.766345792E0,-4.654771330E0,-2.094699519E0,5.805801516E0
1.558392208E1,-3.385154870E0,-5.075097842E0,1.439073447E0,6.267920228E0
1.559395908E1,-4.890561470E0,-5.554742603E0,2.286294649E0,7.745960244E0
1.560399608E1,-6.243143488E0,-5.666406296E0,1.538256258E-3,8.431192282E0
1.561403308E1,-6.181978104E0,-5.222416102E0,-1.621880359E0,8.253543428E0
1.562407108E1,-4.841959414E0,-4.536565188E0,-1.436215328E0,6.788792907E0
1.563410808E1,-3.025130985E0,-3.513476695E0,-4.936049885E-1,4.662572450E0
1.564414508E1,-2.209078074E0,-2.539189650E0,-7.627564180E-1,3.450986434E0
1.565418308E1,-5.652732874E-1,-1.528949829E0,-2.969602609E0,3.387589280E0
1.566422008E1,7.006113330E-1,-2.453479993E-1,-4.940430619E0,4.995888968E0
1.567425708E1,3.435590029E0,7.541832304E-1,-5.372366778E0,6.421401403E0
1.568429408E1,4.906108632E0,8.359126872E-1,-4.421263357E0,6.657043008E0
1.569433208E1,5.229891767E0,-1.162017167E-2,-4.803264587E0,7.100933292E0
1.570436908E1,5.814895753E0,8.240422547E-2,-3.483222909E0,6.778838020E0
1.571440608E1,4.706318921E0,7.244600791E-1,-2.861349013E0,5.555321626E0
1.572444308E1,2.918390356E0,1.714115946E0,-3.328116159E0,4.746741294E0
1.573448108E1,1.379657257E0,3.017501830E0,-4.520243855E0,5.607261002E0
1.574451808E1,1.500204040E-1,4.353330991E0,-5.390584947E0,6.930541314E0
1.575455508E1,-6.972497687E-1,5.413253433E0,-5.992476861E0,8.105507319E0
1.576459208E1,-1.233219150E0,6.007355686E0,-6.280297866E0,8.777886596E0
1.577463008E1,-1.578825409E0,6.553642334E0,-6.704067804E0,9.507231070E0
1.578466708E1,-1.650798348E0,6.828361482E0,-7.308053021E0,1.013702593E1
1.579470408E1,-1.496691910E0,6.889589431E0,-7.561733302E0,1.033858500E1
1.580474108E1,-1.527352955E0,6.919143013E0,-7.229136660E0,1.012263621E1
1.581477908E1,-1.710442872E0,6.949874809E0,-6.556283521E0,9.706246869E0
1.582481608E1,-1.461449718E0,7.105549909E0,-5.688225181E0,9.218491227E0
1.583485308E1,-1.079586190E0,6.994573849E0,-4.778602493E0,8.539590826E0
1.584489108E1,-7.703599910E-1,6.598965856E0,-3.612831999E0,7.562563054E0
1.585492808E1,-9.649367630E-2,6.164233559E0,-2.165944918E0,6.534401563E0
1.586496508E1,7.174036592E-2,5.278333025E0,-8.111368650E-1,5.340776087E0
1.587500208E1,1.396271244E-1,3.585835404E0,9.927040207E-1,3.723328156E0
1.588504008E1,-1.693280563E-1,1.405608662E0,2.184058422E0,2.602790598E0
1.589507708E1,-9.829840480E-1,-7.381326234E-1,5.934653161E0,6.060627488E0
1.590511408E1,-2.184509097E0,-4.493934892E0,9.759470116E0,1.096425044E1
1.591515108E1,-5.762242453E-1,-9.239760818E0,1.275403332E1,1.575977729E1
1.592518908E1,2.432793568E0,-1.512344439E1,1.544713221E1,2.175433171E1
1.593522608E1,3.904920301E0,-1.933987042E1,1.113789332E1,2.265682365E1
1.594526308E1,4.350672846E0,-1.550211358E1,3.286135781E0,1.643297198E1
1.595530008E1,3.468171884E0,-6.620278373E0,2.705719521E0,7.948409909E0
1.596533808E1,1.480479335E0,1.551086803E0,4.493023896E0,4.978448861E0
1.597537508E1,-4.445266762E-1,7.477506500E0,5.591614560E0,9.347559083E0
1.598541208E1,-2.770521873E0,1.004564981E1,6.316098028E0,1.218539970E1
1.599544908E1,-3.302621421E0,7.035984415E0,2.919002559E0,8.302587602E0
1.600548708E1,-3.009333855E0,2.344507189E0,-3.671754976E0,5.294769949E0
1.601552408E1,-3.399467685E0,-7.358703357E-1,-8.589015418E0,9.266556617E0
1.602556108E1,-2.013012454E0,-3.534284597E0,-9.418635916E0,1.025934156E1
1.603559908E1,-8.358457366E-1,-6.999247529E0,-3.553789154E0,7.894144755E0
1.604563608E1,-3.843363739E0,-9.427972165E0,4.009156861E0,1.094218638E1
1.605567308E1,-7.353016940E0,-7.761298188E0,4.546818865E0,1.161801056E1
1.606571008E1,-7.103285283E0,-2.407855339E0,-1.571193916E0,7.663098555E0
1.607574808E1,-4.607186396E0,3.287610449E0,-6.443013598E0,8.575953194E0
1.608578508E1,-4.529257922E0,3.966739404E0,-6.589327891E0,8.925717948E0
1.609582208E1,-4.745451412E0,2.693847919E0,-3.512385605E0,6.489451314E0
1.610585908E1,-1.289870922E0,1.403142892E0,-4.929534917E0,5.285157658E0
1.611589708E1,1.117223402E0,-3.364721775E-1,-6.534080474E0,6.637439965E0
1.612593408E1,1.014671718E0,-8.477532989E-1,-6.489771443E0,6.623094272E0
1.613597108E1,1.192489639E0,-9.010302043E-1,-6.223646532E0,6.400598654E0
1.614600808E1,1.974779265E0,-7.303254211E-1,-6.291995221E0,6.634932722E0
1.615604608E1,2.722308072E0,-1.365241240E0,-5.839785596E0,6.586193186E0
1.616608308E1,3.319607583E0,-2.509078828E0,-5.385105522E0,6.805485475E0
1.617612008E1,3.909648652E0,-3.619523553E0,-5.010948624E0,7.314089789E0
1.618615708E1,3.816904211E0,-3.018283603E0,-5.273490361E0,7.175548359E0
1.619619508E1,2.885182264E0,-1.026551798E0,-4.543416370E0,5.479116498E0
1.620623208E1,1.457419671E0,2.814504629E-1,-1.941040100E0,2.443547243E0
1.621626908E1,-6.428706631E-1,7.325438547E-1,1.936169077E0,2.167637858E0
1.622630708E1,-2.681392765E0,8.397402745E-1,5.285096499E0,5.985589018E0
1.623634408E1,-2.338314403E0,5.804414034E-1,4.728870755E0,5.307244585E0
1.624638108E1,-7.379554528E-1,5.487144113E-1,2.902715725E0,3.044901367E0
1.625641808E1,2.224467945E-1,8.651259613E-1,4.946609225E-1,1.021085174E0
1.626645608E1,8.846503991E-1,3.632173419E-1,-1.483932116E0,1.765385989E0
1.627649308E1,1.508850318E0,-1.957004607E-2,-1.134517200E0,1.887893415E0
1.628653008E1,1.669154220E0,3.574081331E-1,-6.206497818E-1,1.816321154E0
1.629656708E1,1.022654629E0,2.338909650E-1,3.400062346E-1,1.102783620E0
1.630660508E1,1.098717403E0,1.107285474E0,1.021102778E0,1.864379772E0
1.631664208E1,1.495993022E0,2.184512166E0,1.023193157E0,2.838487760E0
1.632667908E1,1.758234504E0,2.906083721E0,7.106659126E-1,3.470123514E0
1.633671608E1,1.699533137E0,3.373738182E0,-2.236355335E-1,3.784248281E0
1.634675408E1,1.161828448E0,3.320640201E0,-9.180245519E-1,3.635830822E0
1.635679108E1,5.652173004E-1,2.970944545E0,-8.786154878E-1,3.149277260E0
1.636682808E1,5.768921435E-2,2.578613917E0,-1.907151977E-1,2.586300459E0
1.637686608E1,-8.051968248E-1,1.902664678E0,5.922656429E-1,2.149244843E0
1.638690308E1,-1.495745831E0,1.274309435E0,1.940982066E0,2.761979636E0
1.639694008E1,-1.998511944E0,7.246220469E-1,3.381940656E0,3.994577537E0
1.640697708E1,-2.116002387E0,3.112975752E-1,4.844288360E0,5.295422740E0
1.641701508E1,-1.802006029E0,7.451691628E-3,5.765234181E0,6.040298537E0
1.642705208E1,-9.757180054E-1,-2.036094046E-1,5.596267190E0,5.684337154E0
1.643708908E1,2.811965476E-1,-2.777257866E-1,5.154772003E0,5.169901112E0
1.644712608E1,1.349939222E0,-6.340089154E-1,4.711988089E0,4.942381507E0
1.645716408E1,2.301176983E0,-1.607649259E0,4.096380361E0,4.965912173E0
1.646720108E1,3.513245438E0,-2.859721733E0,3.546150352E0,5.752919625E0
1.647723808E1,5.512547926E0,-3.473456597E0,3.355635202E0,7.328940781E0
1.648727508E1,7.001674708E0,-3.264128031E0,3.117943254E0,8.330639271E0
1.649731308E1,6.834973513E0,-3.333685339E0,2.796699858E0,8.102582981E0
1.650735008E1,5.966377814E0,-4.178445448E0,2.374469053E0,7.661277561E0
1.651738671E1,5.001827552E0,-4.797672603E0,2.437221226E0,7.346835276E0
1.652742371E1,3.241040300E0,-5.010499558E0,2.720355394E0,6.558184316E0
1.653746171E1,1.445415629E0,-5.237534078E0,2.526424009E0,5.991978624E0
1.654749871E1,2.391391334E-1,-5.213801984E0,3.128711779E0,6.085207971E0
1.655753571E1,-1.013180970E0,-4.816300662E0,4.194261582E0,6.466461008E0
1.656757371E1,-2.192346851E0,-3.739725934E0,4.241516440E0,6.064849255E0
1.657761071E1,-1.574888333E0,-2.787622055E0,4.018479077E0,5.138023363E0
1.658764771E1,4.788518786E-1,-2.697310055E0,4.022565111E0,4.866807036E0
1.659768471E1,9.091803458E-1,-3.053557516E0,2.826444644E0,4.259062307E0
1.660772271E1,3.690616339E-3,-2.992244782E0,1.445489012E0,3.323098094E0
