Time (s),Linear Acceleration x (m/s^2),Linear Acceleration y (m/s^2),Linear Acceleration z (m/s^2),Absolute acceleration (m/s^2),Predicted Label
0.006109999958,0.2367180938,-2.688333995,0.4708544956,2.739503437,1.0
0.01614799991,-0.4976623714,-0.7561888254,1.910274098,2.113914971,1.0
0.02618499997,0.0732188344,0.6596495408,2.473143595,2.560651822,1.0
0.03622199991,1.86065945,1.471847091,3.389253184,4.137079234,1.0
0.04625899997,1.40918862,2.030202391,2.619365794,3.60119584,1.0
0.05629599991,-2.365541671,3.154212656,-0.3375591749,3.957119037,1.0
0.06633399997,-4.225359121,3.281168572,-1.586036927,5.579896059,1.0
0.07637099992,-3.923291961,4.116475487,-1.000341215,5.773930446,1.0
0.08640799997,-1.270317833,3.769743785,-1.096512418,4.126380385,1.0
0.09644499992,-0.1214536858,2.032359429,-1.769289104,2.697335682,1.0
0.106483,-0.6462988856,-0.2647683567,-2.051292567,2.166934639,1.0
0.1165199999,-2.451921418,-1.594176105,0.767819522,3.023716738,1.0
0.126557,-0.9809052166,-1.641884122,3.234945747,3.758035724,1.0
0.1365939999,1.677912911,-2.25067575,2.245582679,3.594937362,1.0
0.146632,2.968922286,-2.653927808,2.285835204,4.591609188,1.0
0.1566689999,3.264835837,-2.704428456,2.180551262,4.767377699,1.0
0.166706,3.209187885,-2.508146197,2.208409737,4.633223262,1.0
0.1767429999,3.267609171,-2.104674869,2.161083104,4.44715709,1.0
0.186781,2.881497641,-1.320932209,2.170124508,3.841527162,1.0
0.1968179999,1.216545961,-0.8371423566,2.45569258,2.865522194,1.0
0.206855,0.4213269711,-1.294744284,1.889566476,2.329021392,1.0
0.2168919999,0.6802761787,-1.748120429,0.3970224345,1.917375166,1.0
0.2269299999,-0.02280004799,-2.942929366,-1.771902371,3.435257065,1.0
0.2369669999,-0.9296558332,-3.84875721,-2.768912719,4.831570105,1.0
0.2470039999,-0.9950820833,-4.018884873,-1.043676977,4.269764116,1.0
0.2570409999,-0.2234355587,-3.47000674,1.198253531,3.677863748,1.0
0.2670789999,0.8338796103,-1.901026872,0.6492865205,2.175047439,1.0
0.277116,0.2501760453,-1.032681434,-1.08277263,1.517041716,1.0
0.2871529999,-1.007641903,-0.5248010534,-1.833467412,2.156933263,1.0
0.29719,-1.318946494,-0.5010911787,-1.036997849,1.751021634,1.0
0.3072279999,-1.679702159,-0.6457331675,0.1797048175,1.808497854,1.0
0.317265,-2.040512787,-0.3629951477,0.929521932,2.27144644,1.0
0.3273019999,-1.288798251,-0.2769182861,-0.4617601749,1.39674877,1.0
0.337339,-0.01635992467,0.05766173244,-2.663844686,2.664518912,1.0
0.3473759999,0.3353325552,1.056394233,-4.439265765,4.575532453,1.0
0.357414,-0.4571569544,2.251803094,-4.64599232,5.183131707,1.0
0.3674509999,-1.565114858,3.37527483,-3.313437016,4.982060774,1.0
0.377488,-2.179553728,4.290520785,-1.536219673,5.051632799,1.0
0.3875249999,-2.127581921,4.951771878,-0.3969984609,5.404096348,1.0
0.397563,-2.047731174,4.989813863,-0.3819366181,5.407154606,1.0
0.4075999999,-1.884441538,4.674975214,-0.2967105994,5.049212844,1.0
0.417637,-2.03519679,4.384559215,0.2425734955,4.839961507,1.0
0.4276739999,-2.685069787,4.159189398,0.4798979455,4.973807218,1.0
0.437712,-3.249404742,4.185121799,0.03179065369,5.298573987,1.0
0.4477489999,-3.499799766,4.10434193,-0.4835098437,5.415533478,1.0
0.457786,-4.221190934,3.538460678,-1.264710646,5.651429013,1.0
0.4678229999,-4.634124811,3.231655519,-2.367447571,6.125644306,1.0
0.477861,-4.585369265,3.10266945,-3.109870881,6.350076056,1.0
0.4878979999,-3.866671325,3.428586819,-2.874713994,5.913572123,1.0
0.497935,-3.146664193,4.1088361,-2.713361832,5.843488861,1.0
0.5079718332,-2.737213502,4.019926847,-2.431978612,5.437524214,1.0
0.5180098333,-2.440292183,4.050658643,-1.59106831,4.989424791,1.0
0.5280468332,-2.091376692,4.400044397,-1.454288487,5.084211066,1.0
0.5380838333,-2.216772717,5.551523711,-1.191899947,6.095418138,1.0
0.5481208332,-1.686396343,5.973196253,-0.9386102593,6.277260176,1.0
0.5581588333,-1.064727246,5.826204852,-1.890367398,6.217056859,1.0
0.5681958332,-0.6486139445,5.447853747,-2.291095798,5.945496653,1.0
0.5782328333,-0.4898180027,-8.236859838,2.291179998,8.563602481,1.0
0.5882698332,-6.72710174,-41.64325241,13.88574203,44.40977596,1.0
0.5983068333,-4.593026487,-39.94498242,10.42944116,41.53878616,1.0
0.6083448333,8.571981894,-11.55089386,-0.04656832181,14.38416459,1.0
0.6183818333,11.43422202,3.077764989,-4.395219859,12.63059888,1.0
0.6284188333,3.452102566,7.49874768,-4.872270795,9.585783828,1.0
0.6384558333,-0.9151725724,4.523744583,-4.914529792,6.741988502,1.0
0.6484938333,-3.194930327,-0.4383985019,-4.829059871,5.80685735,1.0
0.6585308333,-2.922981589,-2.99818146,-3.202917624,5.271773397,1.0
0.6685678333,-0.3939187324,-0.7922445112,-1.500221143,1.741690791,1.0
0.6786048333,1.446194479,0.9740309376,0.1806307241,1.752952423,1.0
0.6886428333,1.651315388,0.9519220304,2.10610539,2.840541846,1.0
0.6986798333,1.138922711,0.7451849502,3.185951343,3.464495852,1.0
0.7087168333,1.075697646,-0.002119615674,3.914587795,4.059695497,1.0
0.7187538333,1.506189689,-1.052683005,4.26761958,4.646431509,1.0
0.7287918333,2.334908546,-1.319237686,3.791111265,4.643781931,1.0
0.7388288333,2.949027427,-1.183433179,2.758362004,4.207830533,1.0
0.7488658333,3.103657922,-1.969829305,2.118336449,4.242672424,1.0
0.7589028333,3.132847222,-3.281522328,1.873470114,4.908463179,1.0
0.7689398333,3.570113411,-4.149021674,1.738760937,5.743115898,1.0
0.7789778332,4.255279031,-4.970550796,0.9852315715,6.616982401,1.0
0.7890148333,4.85444702,-5.193081205,-0.09502558663,7.109344424,1.0
0.7990518332,5.13281103,-5.131483712,-0.5228102227,7.276757842,1.0
0.8090888333,4.105182175,-4.713536432,-0.1422276735,6.252213616,1.0
0.8191268332,3.23115032,-1.648335355,0.1799420683,3.631765546,1.0
0.8291638333,2.591399731,0.8840095443,0.7153493862,2.829938194,1.0
0.8392008332,2.378581254,2.418525338,1.534967784,3.723310313,1.0
0.8492378333,2.285185432,1.994203423,2.03126176,3.650334792,1.0
0.8592758332,1.872012404,1.515537486,2.929364995,3.792421863,1.0
0.8693128333,0.7646848297,0.9621967578,11.10269425,11.17051409,1.0
0.8793498332,-0.7468375196,-1.188803262,15.41816043,15.48194724,1.0
0.8893868333,-1.833618709,-3.281236399,2.084104364,4.297925183,1.0
0.8994248332,-3.276703638,-5.019995436,-4.881777198,7.731034182,1.0
0.9094618333,-6.273865929,-6.369874286,-6.094066971,10.82008985,1.0
0.9194988332,-8.399476168,-7.2490973,-7.056166665,13.14876799,1.0
0.9295358333,-10.04655028,-7.555939296,-5.482863951,13.71448826,1.0
0.9395728332,-9.597244381,-6.963084839,0.8851807415,11.89013016,1.0
0.9496108333,-6.411413491,-5.321938051,3.731579593,9.129837558,1.0
0.9596478333,-4.062285832,-3.234760975,1.224381815,5.335255905,1.0
0.9696848333,-3.275778608,-1.167311236,-1.169609776,3.668968253,1.0
0.9797218333,-2.415912071,0.2982419121,-1.893594477,3.084036222,1.0
0.9897598333,-1.701508911,0.02555408657,-3.613804976,3.994417603,1.0
0.9997968333,0.5681499714,-0.8626397252,-3.778418714,3.917063909,1.0
1.009833833,2.346543628,-1.312000002,-0.3003533417,2.705147526,1.0
1.019870833,3.170691279,-2.014114947,-0.6059946129,3.804887867,1.0
1.029908833,3.374297175,-1.76808984,-1.718791672,4.179266434,1.0
1.039945833,3.948404875,-0.8695066953,-2.189277647,4.597703727,1.0
1.049982833,4.174019983,-0.2284466225,-2.675227461,4.963010442,1.0
1.060019833,3.072710948,0.5708531392,-3.014290247,4.342046934,1.0
1.070057833,1.100133891,1.704375654,-2.586611738,3.287210251,1.0
1.080094833,-0.3415729961,3.058266279,-2.223030407,3.796251959,1.0
1.090131833,-1.006315023,4.076662381,-2.559684141,4.917705663,1.0
1.100168833,-1.141899529,4.954576787,-2.890139826,5.848476202,1.0
1.110205833,-1.064496061,5.730705788,-2.792325848,6.463066171,1.0
1.120243833,-0.8557593066,5.905222371,-3.145751443,6.745348573,1.0
1.130280833,-0.444586464,5.833254256,-3.746012861,6.946734822,1.0
1.140317833,-0.202395815,5.676489235,-4.274685355,7.108897874,1.0
1.150354833,-0.2687564501,5.331341543,-4.444925577,6.946423257,1.0
1.160392833,-0.3011930019,5.307189619,-4.318731261,6.848972082,1.0
1.170429833,-0.4563088158,5.28745702,-4.268486722,6.810682666,1.0
1.180466833,-0.2840532048,5.149277374,-3.825677665,6.421180055,1.0
1.190503833,-0.06602471262,4.856178673,-3.119343955,5.772099902,1.0
1.200541833,0.5436907759,5.136145113,-2.389450058,5.690787104,1.0
1.210578833,0.7382812889,5.314247208,-1.457566144,5.559746551,1.0
1.220615833,0.7207742867,5.412515514,-0.09205476254,5.461072591,1.0
1.230652833,0.6639424203,4.984137386,1.087641168,5.144454134,1.0
1.240689833,0.8498932336,3.094569302,2.799764091,4.258797558,1.0
1.250727833,0.8400924231,0.6776414233,2.902337117,3.096532564,1.0
1.260764833,0.273346222,-1.812814023,3.986959368,4.388263648,1.0
1.270801833,-0.495761003,-4.69470372,7.176325777,8.589858768,1.0
1.280838833,-1.015091109,-8.746713654,9.588920869,13.01855649,1.0
1.290876833,0.3951203352,-12.30510515,10.91792224,16.45517423,1.0
1.300913833,3.053417768,-13.68876688,9.785522386,17.1015247,1.0
1.310950833,4.577111535,-11.61832161,4.775339162,13.36933847,1.0
1.320987833,3.498733526,-6.239172644,1.023256307,7.226026919,1.0
1.331025833,1.266805411,-0.5428823984,1.286827154,1.885587805,1.0
1.341062833,-1.251164109,3.156064469,3.00317586,4.53268351,1.0
1.351099833,-3.142638385,4.714487189,3.66329844,6.747023117,1.0
1.361136833,-3.753256391,3.948458669,1.435380053,5.633611213,1.0
1.371174833,-3.530226045,2.094104857,-1.849380171,4.501997123,1.0
1.381211833,-3.441750948,0.05125026047,-4.223793529,5.448734528,1.0
1.391248833,-3.539597962,-2.198115714,-4.636295005,6.233433869,1.0
1.401285833,-3.111183581,-4.332617229,-2.78238412,6.016036629,1.0
1.411322833,-2.606716805,-5.772415146,0.6159933516,6.363583655,1.0
1.421360833,-3.214649769,-4.257029103,1.607844556,5.571484007,1.0
1.431397833,-4.43759697,0.08524304867,-0.9561828965,4.540244374,1.0
1.441434833,-5.286297517,3.627581601,-4.174416717,7.650493098,1.0
1.451471833,-5.744540884,5.642496446,-5.177083808,9.572863358,1.0
1.461509833,-5.616787409,5.421836561,-4.882561895,9.207824018,1.0
1.471546833,-3.728695162,3.334178844,-3.521239751,6.117110884,1.0
1.481583833,-0.8113612519,1.206929045,-2.541603673,2.928264679,1.0
1.491620833,0.1353734212,-0.0008291351795,-4.291245547,4.29338037,1.0
1.501659,0.1763624029,-0.3775968146,-5.984543359,5.999036779,1.0
1.511696,0.4510755578,0.1537607217,-5.902879976,5.922086079,1.0
1.521733,0.7693608481,0.7514900029,-5.428199501,5.533715132,1.0
1.53177,1.227499696,0.6369950885,-4.780972078,4.976968179,1.0
1.541807,1.633610166,-0.9265562242,-3.433933805,3.913960908,1.0
1.551845,1.97948452,-3.521060534,-2.225819529,4.611995102,1.0
1.561882,3.601088159,-5.3921444,-0.4005437739,6.496421513,1.0
1.571919,4.512573477,-4.535096952,2.502059246,6.86955051,1.0
1.581956,2.940570891,-2.67935618,3.105633988,5.046867263,1.0
1.591994,1.741961557,-1.163385415,0.8041418409,2.243778017,1.0
1.602031,1.54565474,-0.3143708718,-0.4257316786,1.633745721,1.0
1.612068,1.10516922,0.339988693,-0.2298037612,1.178898251,1.0
1.622105,0.2735549676,0.8749457753,-1.307926832,1.597195989,1.0
1.632143,0.06940206438,0.5800607497,-1.209868514,1.343528541,1.0
1.64218,0.5891949776,0.7984250182,-0.8997813852,1.339492356,1.0
1.652217,0.9902531603,0.9288430703,-0.7240355712,1.538693692,1.0
1.662254,0.2250277555,0.7855541271,-0.5578256158,0.989394863,1.0
1.672291,-0.3137174454,0.8075232857,-0.02230712771,0.8666083894,1.0
1.682329,-0.2419621691,0.6548150629,0.5723500995,0.9027253703,1.0
1.692366,-0.2901784556,0.6056306237,0.2145267044,0.7049919824,1.0
1.702403,0.06119052708,1.314288602,-0.1726354973,1.326989761,1.0
1.71244,0.1748605455,1.536596818,1.089119344,1.891530316,1.0
1.722478,0.2526080485,1.959952773,1.375370956,2.407669198,1.0
1.732515,0.4819465175,2.28795292,1.126833301,2.595525823,1.0
1.742552,0.2243494785,2.230627402,0.5658876836,2.312198124,1.0
1.752589,-0.02192208856,2.485042094,0.3074150606,2.504080431,1.0
1.762626,-0.05518587515,2.974048247,0.2380296242,2.984068793,1.0
1.772664,-0.2029100776,3.109847492,0.326674656,3.133534786,1.0
1.782701,-0.4568330187,2.896135853,0.6911841595,3.012313866,1.0
1.792738,-0.9464988841,2.108737514,0.897936881,2.479702539,1.0
1.802775,-1.283720821,1.264289061,1.14630219,2.13550338,1.0
1.812813,-1.508938026,0.1888574642,2.120116342,2.609109889,1.0
1.82285,-1.677478024,-0.9229438144,4.008486185,4.442265109,1.0
1.832887,-1.543086496,-1.355037848,5.724824073,6.082010702,1.0
1.842924,-0.942350577,-2.030810502,6.610200112,6.979037285,1.0
1.852962,0.4755344608,-2.739150977,6.593903922,7.156021941,1.0
1.862999,1.945203464,-2.999262026,4.935982057,6.094530998,1.0
1.873036,2.854601618,-3.002954543,3.236744936,5.257661473,1.0
1.883073,3.362758865,-2.917271199,2.428007329,5.070881385,1.0
1.89311,3.941202275,-2.725987725,1.522087537,5.028005063,1.0
1.903148,4.236667929,-2.554000647,0.6358051801,4.987636983,1.0
1.913185,3.665399637,-2.754039157,0.08836780071,4.585596477,1.0
1.923222,2.693064392,-2.757279099,-0.005290414542,3.85424595,1.0
1.933259,1.00233877,-2.815720266,1.393596435,3.297737808,1.0
1.943297,-1.0802345,-3.637083326,3.902830214,5.443102551,1.0
1.953334,-2.12918128,-4.251650834,5.362116609,7.166745584,1.0
1.963371,-2.363538561,-3.909734899,5.245838878,6.956375999,1.0
1.973408,-1.922524161,-3.070491638,4.049118487,5.433173894,1.0
1.983446,-0.905046072,-2.323715075,3.042128256,3.93361214,1.0
1.993483,-0.3836011742,-2.127252722,2.777117532,3.519195333,1.0
2.00352,-0.1745114668,-2.361207422,2.992790912,3.816091218,1.0
2.013557,0.4195008856,-2.537552429,3.22260169,4.123143822,1.0
2.023594,0.5794093698,-1.868174291,3.459951868,3.974551211,1.0
2.033632,0.4568723412,-0.7677897012,2.943869598,3.076459259,1.0
2.043669,0.2262730663,-0.09540492475,1.201905702,1.226735064,1.0
2.053706,0.02708649561,0.3373744029,-1.148903031,1.19772006,1.0
2.063743,-0.08269059286,-0.1503073561,-3.475353434,3.479584965,1.0
2.073781,-1.051427461,-3.660772151,-2.774283972,4.712048812,1.0
2.083818,-2.506402557,-6.622333669,-0.385847309,7.091278809,1.0
2.093855,-2.918627168,-6.391245859,-1.107481356,7.112870246,1.0
2.103892,-3.553082811,-5.622382609,-2.522578295,7.113296347,1.0
2.11393,-4.230700845,-4.808257232,-2.560391654,6.897374332,1.0
2.123967,-4.696166108,-3.965678719,-1.761682461,6.39406826,1.0
2.134004,-4.751181976,-3.313625296,-1.116221774,5.899135006,1.0
2.144041,-3.946662989,-2.954975215,-0.5826045808,4.964620365,1.0
2.154078,-2.281253911,-1.983580202,-0.6638023795,3.095051441,1.0
2.164116,-1.457242208,-0.9888144529,-2.427422754,2.998948166,1.0
2.174153,-0.6338025087,-0.7712728876,-2.194542188,2.410929883,1.0
2.18419,0.7203301907,-0.8535098827,-2.779994655,2.995951432,1.0
2.194227,1.443854131,-1.102974322,-2.724449907,3.274735776,1.0
2.204265,2.312348965,-0.9842448539,-3.434723179,4.25593926,1.0
2.214302,3.10227067,-0.9725714725,-4.069329388,5.208591004,1.0
2.224339,3.696110968,-0.6480767316,-3.166338612,4.909881866,1.0
2.234376,3.217597935,-0.1240966272,-3.299308681,4.610181582,1.0
2.244414,2.182618984,0.5428701192,-4.984132708,5.468099528,1.0
2.254451,0.9351196177,2.104072605,-5.441424733,5.908525481,1.0
2.264488,-0.1966469787,3.873554083,-5.097822461,6.405535505,1.0
2.274525,-1.227104424,5.08154966,-5.321895951,7.459926858,1.0
2.284562,-1.813654414,6.108070468,-5.74217744,8.577322946,1.0
2.2946,-2.053865927,6.816173546,-5.985366647,9.300709702,1.0
2.304637,-2.201704442,7.184169817,-6.214438337,9.750848284,1.0
2.314674,-1.872440274,7.454966068,-6.320279957,9.951305964,1.0
2.324711,-1.55660409,7.298365354,-6.330148888,9.785700694,1.0
2.334749,-1.127774848,6.977906361,-6.247919494,9.433957351,1.0
2.344786,-0.7010928512,6.524368833,-5.645720601,8.656389603,1.0
2.354823,-0.5426504101,6.435398769,-4.51457381,7.879733718,1.0
2.36486,-0.6005917856,6.604536499,-3.456389744,7.478451907,1.0
2.374898,0.1275283581,6.793910857,-2.681294532,7.304986556,1.0
2.384935,0.934808692,6.398851917,-1.619374388,6.666449322,1.0
2.394972,1.855358803,5.125588549,0.277755315,5.458128093,1.0
2.405009,2.255479677,3.46948166,1.696927764,4.472589339,1.0
2.415046,1.096646465,0.8895655686,3.668519127,3.930902308,1.0
2.425084,0.5710890743,-2.524245921,8.145416987,8.546682286,1.0
2.435121,1.316174183,-7.021911337,12.64155043,14.52061812,1.0
2.445158,2.81671897,-12.41863586,13.42979603,18.50718358,1.0
2.455195,3.851592818,-17.56137079,9.201744561,20.19674761,1.0
2.465233,3.285520654,-16.72099024,3.859674547,17.47235669,1.0
2.47527,2.309592003,-9.391112487,3.151466219,10.17147719,1.0
2.485307,0.9280979888,-1.954658119,4.037204785,4.58051053,1.0
2.495344,-1.584560359,3.786568564,5.065178041,6.519582932,1.0
2.505381333,-4.799395485,7.582385668,5.496271031,10.52310623,1.0
2.515418333,-6.098334854,7.100150006,3.256780712,9.910017089,0.0
2.525455333,-5.47927376,3.855658679,-2.045379424,7.005149661,0.0
2.535492333,-4.460570388,1.5997409,-6.776599005,8.269108368,0.0
2.545529333,-2.943540692,-1.148567401,-7.059314221,7.734181027,0.0
2.555567333,-1.669964059,-5.176307298,-1.957061325,5.780400179,0.0
2.565604333,-2.334657993,-9.447532856,4.75397636,10.8308262,0.0
2.575641333,-3.545517975,-10.28631653,5.833582284,12.34543185,0.0
2.585678333,-4.629347051,-5.474145167,0.1331232664,7.1704143,0.0
2.595716333,-3.730531188,0.9062453359,-4.280913517,5.750162093,0.0
2.605753333,-1.703813445,5.665627447,-6.497121978,8.78720141,0.0
2.615790333,-0.6422974898,7.251604001,-7.520380039,10.46682486,0.0
2.625827333,-0.7488390215,5.174765972,-4.763978899,7.073503919,0.0
2.635865333,0.804094917,1.630325346,-2.830452325,3.363924752,0.0
2.645902333,2.04615535,-0.1399197775,-3.913961851,4.418758494,0.0
2.655939333,1.76788928,-0.7579418206,-5.467678732,5.796155538,0.0
2.665976333,1.448318772,-0.8066549742,-6.184810495,6.403139884,0.0
2.676013333,1.565627074,-0.5835679096,-5.530546825,5.777429171,0.0
2.686051333,1.712614089,-1.300175178,-4.557985293,5.039715512,0.0
2.696088333,2.020973438,-2.80133553,-3.90736356,5.215295235,0.0
2.706125333,2.651529573,-4.338467953,-3.612353404,6.237147615,0.0
2.716162333,3.298908147,-4.066298191,-3.128018007,6.099350178,0.0
2.726200333,2.2450174,-1.996156393,-0.8891184027,3.132933929,0.0
2.736237333,-0.2427977362,-0.6677455956,3.967218291,4.030341907,0.0
2.746274333,-1.568080274,-0.2989850932,5.251695449,5.488950075,0.0
2.756311333,-0.4154022798,-0.2073463601,2.043439172,2.095517887,0.0
2.766349333,0.9743890795,0.3873172259,-0.008830026537,1.048583178,0.0
2.776386333,1.254247638,0.3547534972,-1.386304665,1.902847289,0.0
2.786423333,0.8634095111,0.5318972343,-1.993545758,2.236652709,0.0
2.796460333,0.6797996306,1.087677421,-2.128346883,2.484960797,0.0
2.806497333,0.869908399,1.476124329,-1.744934427,2.445501955,0.0
2.816535333,0.9592155549,1.619136114,-1.086777534,2.173196182,0.0
2.826572333,0.913143881,1.675484562,-0.6815853703,2.026237617,0.0
2.836609333,1.560849022,1.98589453,-0.4755780226,2.570253141,0.0
2.846646333,1.667592136,1.920547802,-0.2565214437,2.556397982,0.0
2.856684333,1.309456317,1.714269143,0.06347090464,2.158106369,0.0
2.866721333,1.092019417,1.797643422,0.04062290948,2.103729664,0.0
2.876758333,1.08038682,2.152857095,-0.2417414367,2.420840407,0.0
2.886795333,0.8889951727,2.488666783,-1.041241758,2.840415317,0.0
2.896833333,0.3408495493,2.482839448,-1.592879777,2.969500989,0.0
2.906870333,-0.08834543511,2.425188825,-1.189821846,2.70278038,0.0
2.916907333,-0.6006438258,2.346531495,-0.228061291,2.432898481,0.0
2.926944333,-1.652677936,1.908163399,0.8271026874,2.65641314,0.0
2.936981333,-2.935025684,1.049117373,2.288081266,3.866566812,0.0
2.947019333,-4.007852639,0.209944278,4.387341321,5.946067881,0.0
2.957056333,-4.529416674,-0.4435230017,6.041729128,7.564047787,0.0
2.967093333,-3.895723801,-0.8983504254,6.767715915,7.860386513,0.0
2.977130333,-2.274620537,-1.322650706,6.706012588,7.203742659,0.0
2.987168333,-0.8530480988,-1.937966073,6.121515555,6.477372635,0.0
2.997205333,0.8582209843,-2.32447112,5.545086511,6.073523991,0.0
3.007242333,3.576400922,-2.242330019,4.424320574,6.115006134,0.0
3.017279333,5.553015336,-2.296841857,3.039664824,6.734316898,0.0
3.027317333,6.845804311,-2.415873626,1.67721066,7.450806509,0.0
3.037354333,7.045703657,-3.026371472,0.908071129,7.721752229,0.0
3.047391333,6.416877129,-3.554749852,0.4610281035,7.350177244,0.0
3.057428333,5.216950125,-4.023364425,0.6752598524,6.622688711,0.0
3.067465333,4.563108623,-3.696493376,1.148495773,5.98373346,0.0
3.077503333,3.647354253,-3.431865352,2.018873118,5.399698279,0.0
3.087540333,1.219723192,-3.592171447,3.97366777,5.493765186,0.0
3.097577333,-1.140472077,-3.650404453,4.522811952,5.923002379,0.0
3.107614333,-1.997277451,-3.573394868,3.790271313,5.578926844,0.0
3.117652333,-1.632255073,-3.391490913,2.281708386,4.401438446,0.0
3.127689333,-1.439844256,-3.448199549,2.079323242,4.276308777,0.0
3.137726333,-0.7280933927,-3.390472328,3.800501894,5.144826259,0.0
3.147763333,-0.347614924,-2.909414295,4.150871733,5.080872349,0.0
3.157801333,-1.095082043,-1.99697208,3.633223579,4.288055007,0.0
3.167838333,-1.32545313,-0.7205681723,1.796793091,2.346169197,0.0
3.177875333,-1.523759695,0.1212700832,-0.1209298483,1.533353863,0.0
3.187912333,-1.12240038,-0.4129572666,-0.5077640212,1.299284657,0.0
3.197949333,-0.5690235454,-1.260739802,-1.307376609,1.903283016,0.0
3.207987333,-0.1713292658,-2.032306804,-3.218130909,3.809985723,0.0
3.218024333,-0.2250296558,-3.795133565,-3.656518301,5.274827316,0.0
3.228061333,-1.647792879,-5.659275616,-2.130735324,6.267587646,0.0
3.238098333,-2.949371535,-6.253536329,-0.7479329954,6.954488683,0.0
3.248136333,-3.941875289,-6.518721008,0.2743099894,7.622817743,0.0
3.258173333,-5.049146145,-6.39760646,0.1350814989,8.151165084,0.0
3.268210333,-5.246865649,-5.559560124,-0.7277064532,7.679053626,0.0
3.278247333,-4.201633459,-4.247316293,-1.938981442,6.281167762,0.0
3.288285333,-3.679130654,-3.514344422,-1.905691781,5.433072818,0.0
3.298322333,-2.926696326,-2.040261356,-1.384339708,3.826828218,0.0
3.308359333,-0.6379721582,-0.5305763483,-2.131063645,2.28690883,0.0
3.318396333,1.295457937,0.2216691148,-3.874222419,4.091081497,0.0
3.328433333,1.921991041,-0.2756389153,-3.060443197,3.624408771,0.0
3.338471333,2.200239569,-0.4295113188,-3.823862105,4.43254504,0.0
3.348508333,3.217558759,-0.2990733862,-5.068667074,6.011115967,0.0
3.358545333,2.866462695,0.09122358084,-2.949142617,4.113681113,0.0
3.368582333,2.472347789,0.4200826836,-3.69729386,4.46754462,0.0
3.378620333,1.962523209,1.256572491,-4.771979937,5.31058041,0.0
3.388657333,0.571750102,2.923687348,-4.641652809,5.515413556,0.0
3.398694333,-0.1921872342,4.748098739,-4.495792553,6.541676256,0.0
3.408731333,-0.8716516002,5.495019727,-4.617353827,7.230143476,0.0
3.418769333,-1.642909431,6.099365718,-4.866261612,7.973826912,0.0
3.428806333,-2.078042848,6.67631224,-5.278861613,8.761152158,0.0
3.438843333,-2.440996919,7.187348363,-6.055529727,9.710091798,0.0
3.448880333,-2.476193795,7.35807829,-7.098046178,10.51927333,0.0
3.458918333,-2.166562968,7.180200727,-7.510719854,10.61415047,0.0
3.468955333,-1.51534102,6.511452334,-7.167821002,9.801679847,0.0
3.478992333,-0.8754599648,5.48132204,-6.208071304,8.327753045,0.0
3.489029333,-0.3955063976,4.855154241,-5.266483642,7.173896986,0.0
3.499066333,-0.1035030992,4.937505841,-4.430941084,6.634976693,0.0
3.5091045,-0.1426230915,5.54017602,-3.252859862,6.42611772,0.0
3.5191415,0.006234008968,5.990156686,-2.065592372,6.336299222,0.0
3.5291785,0.8000521521,5.655362075,-0.4139612335,5.726654132,0.0
3.5392155,1.143260468,4.643179225,1.304716418,4.956656408,0.0
3.5492535,0.6629182805,2.701624716,3.200612066,4.240537036,0.0
3.5592905,0.2502707702,-0.5872849846,5.706203615,5.741802749,0.0
3.5693275,-0.1087674205,-5.304013411,8.222428325,9.785331685,0.0
3.5793645,0.2438737701,-10.51211494,12.20651993,16.11096408,0.0
3.5894025,2.154275045,-15.87166813,13.83019348,21.16187615,0.0
3.5994395,4.885166245,-17.09066057,8.15045144,19.55467685,0.0
3.6094765,5.219146923,-12.01044524,3.584140004,13.5770523,0.0
3.6195135,3.028994533,-4.350760555,3.683420464,6.455347519,0.0
3.6295515,0.1344331889,3.003791864,5.769501479,6.505996093,0.0
3.6395885,-3.503849255,6.876871737,5.595255037,9.532848652,0.0
3.6496255,-2.610398504,4.356159289,2.591007675,5.701195039,0.0
3.6596625,-3.23312434,1.566436329,0.1495364007,3.595716466,0.0
3.6696995,-3.238291232,-0.5799847358,-2.756503174,4.291995124,0.0
3.6797375,-2.831738128,-3.104743457,-3.426246763,5.421931357,0.0
3.6897745,-2.001853043,-6.224850474,-0.3891994447,6.550393518,0.0
3.6998115,-1.887767872,-9.022933198,3.211077413,9.761557724,0.0
3.7098485,-3.403233876,-7.183756419,1.907496524,8.174772174,0.0
3.7198865,-5.56801169,-1.441312346,-1.917652261,6.0627985,0.0
3.7299235,-5.759574076,3.545329403,-5.000070464,8.410871462,0.0
3.7399605,-3.689298669,6.848288793,-6.95045193,10.43162337,0.0
3.7499975,-3.316198071,6.373557447,-7.051683605,10.06705746,0.0
3.7600355,-4.021182244,4.132709697,-3.939211298,6.983307363,0.0
3.7700725,-1.13886687,1.766193588,-3.244487234,3.865637716,0.0
3.7801095,1.394039508,-0.5287321365,-5.695824223,5.887725995,0.0
3.7901465,0.7820928678,-2.238884255,-7.327264048,7.701497932,0.0
3.8001835,0.5674485978,-2.608237081,-7.427318678,7.892398959,0.0
3.8102215,1.665500295,-1.744152508,-6.887601378,7.297603165,0.0
3.8202585,1.63501072,-2.030714607,-5.847361833,6.402241973,0.0
3.8302955,1.424845563,-2.872359905,-4.850448402,5.814420521,0.0
3.8403325,1.891040413,-3.015742988,-3.729243046,5.155384885,0.0
3.8503705,2.312744237,-2.010962128,-3.149611482,4.394633895,0.0
3.8604075,1.414237983,-0.9714067072,-1.541045526,2.306191964,0.0
3.8704445,-0.8301818311,-0.3436192292,3.672373027,3.780687728,0.0
3.8804815,-2.759398715,-0.1893071151,5.909385003,6.52464172,0.0
3.8905195,-2.00100432,-0.1535595775,1.879150246,2.749328005,0.0
3.9005565,-0.7835678279,0.2163370389,0.1084453851,0.8200857619,0.0
3.9105935,-0.1284639126,0.450754838,-0.6687899083,0.8166779305,0.0
3.9206305,0.2181656094,0.8514025462,-1.36671123,1.624925264,0.0
3.9306685,0.6247128658,1.80013492,-2.480462555,3.127850121,0.0
3.9407055,0.8568151675,2.061057563,-2.899475783,3.659105126,0.0
3.9507425,1.602182843,1.623215716,-2.010254615,3.040220838,0.0
3.9607795,2.239477017,0.994975664,-0.6680567405,2.539986947,0.0
3.9708165,2.011909377,0.6259701633,-0.07762419976,2.108469469,0.0
3.9808545,1.662148525,0.5729756784,0.1524498125,1.764732215,0.0
3.9908915,1.921908303,1.036671574,0.5002433324,2.240237235,0.0
4.0009285,2.468682754,1.784860239,0.7174931216,3.12968321,0.0
4.0109655,2.265268939,2.122695403,0.3631962919,3.125570457,0.0
4.0210035,1.460739428,2.348610181,0.08552841106,2.767136528,0.0
4.0310405,0.9641647844,2.671594001,0.2033509576,2.847521703,0.0
4.0410775,0.2859611513,2.842907479,-0.1409928147,2.860729923,0.0
4.0511145,-0.3378151368,2.664411866,0.02738258399,2.685881506,0.0
4.0611525,-1.212783716,2.139971001,1.381366106,2.821080032,0.0
4.0711895,-2.37634484,1.447800416,2.910057489,4.026360072,0.0
4.0812265,-3.330507377,1.071619213,4.254360434,5.508196604,0.0
4.0912635,-4.178021233,0.7352113545,5.626164004,7.046284024,0.0
4.1013015,-4.266078546,0.09524821937,6.326460464,7.63102879,0.0
4.1113385,-3.464320323,-1.029461372,6.358281012,7.313620406,0.0
4.1213755,-1.681549879,-2.0197464,6.420323478,6.937401464,0.0
4.1314125,0.9103180678,-2.915343956,5.829565247,6.581165576,0.0
4.1414495,3.310354949,-3.624780784,4.651196634,6.762478521,0.0
4.1514875,5.198802121,-3.696382864,3.201741164,7.137361995,0.0
4.1615245,5.973121993,-3.005980477,2.293819577,7.069350269,0.0
4.1715615,5.322152059,-2.372563884,1.587987996,6.039542019,0.0
4.1815985,4.176957332,-2.646870804,1.113801173,5.068870748,0.0
4.1916365,2.989837484,-3.095470943,-0.01423943192,4.303634661,0.0
4.2016735,1.128831294,-3.497024385,-0.1353992951,3.677196297,0.0
4.2117105,-0.4974105026,-3.725993748,2.225183352,4.368281993,0.0
4.2217475,-1.719756609,-3.621599899,4.054246495,5.70179474,0.0
4.2317855,-2.595640424,-3.885437379,4.383680964,6.407076683,0.0
4.2418225,-2.42613432,-4.123333102,5.156800987,7.034244808,0.0
4.2518595,-1.474085843,-3.289746437,4.928459029,6.106150104,0.0
4.2618965,-0.06467166692,-2.032768149,3.243998114,3.828818687,0.0
4.2719345,0.7335717952,-1.689042501,2.197765027,2.867257097,0.0
4.2819715,0.8316556218,-1.982741711,2.128083758,3.025170449,0.0
4.2920085,0.2517037766,-1.915706892,2.293921173,2.999226906,0.0
4.3020455,-0.4768864833,-1.340283569,2.433512629,2.818823244,0.0
4.3120825,-0.6693810618,-1.026127875,2.726185945,2.988829073,0.0
4.3221205,-1.301845289,-1.075466096,1.787223684,2.45877957,0.0
4.3321575,-0.9004276487,-0.4599829137,-1.359741933,1.694477016,0.0
4.3421945,-0.4241922529,-1.177306466,-3.579276583,3.791729215,0.0
4.3522315,-1.563701148,-4.145842543,-3.078102373,5.395172462,0.0
4.3622695,-1.831557126,-5.451012998,-1.9984409,6.087849394,0.0
4.3723065,-1.931073229,-5.524817723,-0.8528890546,5.914395525,0.0
4.3823435,-2.249781126,-5.739591801,0.3283433783,6.173511038,0.0
4.3923805,-3.132555154,-5.782298695,-0.6667990775,6.610030333,0.0
4.4024185,-3.820782377,-5.558967801,-2.35925913,7.146090164,0.0
4.4124555,-3.791962035,-5.152275826,-2.878971351,7.015226177,0.0
4.4224925,-3.104735856,-4.059108455,-1.734202302,5.396591869,0.0
4.4325295,-1.963602751,-3.037221565,-0.921749813,3.732301343,0.0
4.4425675,-0.07156845778,-1.907538332,-2.774080489,3.367394703,0.0
4.4526045,1.205308782,-0.8013398552,-2.934974813,3.272459622,0.0
4.4626415,1.267280058,-0.4619528407,-2.413736761,2.765054127,0.0
4.4726785,1.43846636,-0.11419963,-2.850068857,3.194545275,0.0
4.4827165,2.636751905,0.2855610555,-3.378950682,4.295499207,0.0
4.4927535,1.814850023,0.1938340294,-3.406770857,3.864885498,0.0
4.50279075,1.261024415,0.1292795992,-5.451176135,5.596625505,0.0
4.51282775,2.204911932,1.181894192,-5.894286908,6.403212371,0.0
4.52286575,1.555402925,2.523157169,-5.233287245,6.014390721,0.0
4.53290275,-0.4255787739,4.082731791,-4.992711743,6.463511949,0.0
4.54293975,-2.612639157,7.223273656,-5.576825198,9.492236036,0.0
4.55297675,-3.898929244,8.496967964,-6.089747048,11.15729057,0.0
4.56301375,-1.854564604,6.177714899,-6.563987228,9.202689801,0.0
4.57305175,0.8997324148,5.521647363,-6.247410786,8.386193985,0.0
4.58308875,1.322058967,5.342638364,-6.090880823,8.209168886,0.0
4.59312575,0.3894536524,5.265199009,-6.072746853,8.046878221,0.0
4.60316275,-0.1521316874,5.618557945,-5.919687213,8.162967238,0.0
4.61320075,-0.1463043523,5.756480314,-5.712364826,8.111077763,0.0
4.62323775,-0.1246449499,5.717807999,-5.232872093,7.751891061,0.0
4.63327475,-0.408278617,5.729331107,-4.418414009,7.246675701,0.0
4.64331175,-0.646755407,5.987246527,-3.323944463,6.878518759,0.0
4.65334975,-0.2778972562,6.005843012,-2.152839553,6.386086071,0.0
4.66338675,0.1369094847,5.266409968,-0.7345102733,5.319146877,0.0
4.67342375,1.18507917,4.162074999,1.814009194,4.692324615,0.0
4.68346075,1.927522068,2.529358726,3.139644318,4.468821247,0.0
4.69349875,-1.021354354,-0.01902976334,4.901615047,5.006930888,0.0
4.70353575,-1.442482958,-3.631374105,8.265551541,9.142591386,0.0
4.71357275,1.939842736,-9.047407304,14.0851239,16.85257499,0.0
4.72360975,5.392805135,-16.35871079,15.43144998,23.12616299,0.0
4.73364775,7.324975448,-18.89096214,6.398617444,21.24772978,0.0
4.74368475,7.260586494,-13.28518971,3.063591923,15.44661702,0.0
4.75372175,4.175652233,-4.577479325,5.382291257,8.207219244,0.0
4.76375875,-0.4811882798,5.853518366,6.720286226,8.925103158,0.0
4.77379575,-2.475133402,7.570112947,5.286016266,9.55902,0.0
4.78383375,-1.973190869,2.491362934,3.086238189,4.430038108,0.0
4.79387075,-3.291927449,-0.9052822995,-3.083309027,4.600338783,0.0
4.80390775,-3.716286786,-1.970996409,-5.30762816,6.77248337,0.0
4.81394475,-2.821863935,-2.635006803,-5.130104939,6.420603835,0.0
4.82398275,-0.8683423685,-4.490619521,-2.121299087,5.041784602,0.0
4.83401975,-0.2253986152,-6.873637642,3.519326835,7.725500653,0.0
4.84405675,-1.298949602,-7.160069933,5.574438365,9.166691584,0.0
4.85409375,-5.173511744,-2.528904982,1.28953383,5.901142404,0.0
4.86413175,-6.723061899,3.218599856,-2.298144909,7.800026689,0.0
4.87416875,-5.456490085,6.216915218,-4.487424603,9.410648141,0.0
4.88420575,-2.703249072,7.201371741,-7.153064969,10.50398253,0.0
4.89424275,-2.829415029,5.436518919,-6.266188534,8.765069659,0.0
4.90428075,-0.9424005707,2.068920899,-2.858088021,3.652015835,0.0
4.91431775,1.896852838,-2.249004031,-4.263660723,5.18023866,0.0
4.92435475,2.416937965,-3.784377612,-6.774854196,8.127838115,0.0
4.93439175,2.00536415,-3.047528452,-7.305122981,8.165398754,0.0
4.94442975,1.953846526,-1.914701171,-6.896576854,7.419324034,0.0
4.95446675,1.59600336,-1.909282556,-5.581403568,6.111027114,0.0
4.96450375,1.161950216,-2.696034778,-3.556789653,4.611885131,0.0
4.97454075,1.11754266,-2.047508395,-0.2288009638,2.343830648,0.0
4.98457775,0.1346374029,-0.5352219611,2.132958435,2.203202547,0.0
4.99461575,-1.317234722,-0.8027215523,1.330351489,2.036984115,0.0
5.00465275,-1.373885763,-1.530856606,-0.6560824469,2.159057252,0.0
5.01468975,-0.1234812078,-0.920844664,-1.378847126,1.662655076,0.0
5.02472675,0.4232723397,0.009259650707,-1.31215086,1.37876216,0.0
5.03476475,0.2865591753,0.9521950954,-1.251882001,1.598749575,0.0
5.04480175,-0.2078234929,1.289256088,-0.9704916179,1.627029761,0.0
5.05483875,-0.6132945693,1.228677764,-0.8202053118,1.599536192,0.0
5.06487575,-0.6027894616,1.310200229,-0.9845370685,1.746222499,0.0
5.07491375,-0.06967395991,1.472295572,-1.149887629,1.869425118,0.0
5.08495075,0.4608652586,1.280762422,-1.22524194,1.831383897,0.0
5.09498775,0.7159876098,0.8325248104,-0.9059781913,1.423563241,0.0
5.10502475,0.9579303369,0.5593312007,-0.5704760303,1.247367157,0.0
5.11506275,1.349370581,0.7555257511,-0.3724793315,1.59071084,0.0
5.12509975,2.012345872,1.538967279,-0.3070484036,2.551908093,0.0
5.13513675,2.184266145,2.263516236,-0.5002860171,3.185091905,0.0
5.14517375,2.024575177,2.957177861,-0.6616487038,3.644390834,0.0
5.15521175,1.747653529,3.606424035,-0.8429287612,4.095255313,0.0
5.16524875,1.778690111,4.220406822,-1.240056446,4.744819516,0.0
5.17528575,0.7466052389,3.553624848,-1.370916109,3.881376034,0.0
5.18532275,-0.2404484712,2.602834253,-0.9126240635,2.768653878,0.0
5.19536075,-0.8932276797,1.731452356,0.3430070988,1.978240839,0.0
5.20539775,-1.856187061,0.8475106394,1.8020569,2.722336085,0.0
5.21543475,-3.165099587,0.1693914986,3.761205096,4.91865964,0.0
5.22547175,-4.097976359,-0.5262716281,5.483168006,6.865530092,0.0
5.23550975,-3.725154673,-1.209176715,6.114997079,7.261685407,0.0
5.24554675,-2.502635489,-1.590317527,7.253385648,7.836063909,0.0
5.25558375,-1.984442374,-1.95418274,9.746769379,10.13688093,0.0
5.26562075,-0.8985644335,-2.208910843,9.26281522,9.564854989,0.0
5.27565775,1.074310978,-2.55063382,6.309291869,6.889632854,0.0
5.28569575,4.351813053,-2.851273091,4.170307586,6.667795772,0.0
5.29573275,6.585795003,-3.081422423,2.814549068,7.796765126,0.0
5.30576975,6.423947582,-3.421853165,1.69163194,7.472469488,0.0
5.31580675,5.585962642,-3.97107453,0.9721685994,6.922248431,0.0
5.32584475,5.006110638,-4.26872295,0.4573754941,6.59487162,0.0
5.33588175,3.743161758,-4.422030512,0.171685946,5.796127143,0.0
5.34591875,2.124709037,-4.668240391,1.039873217,5.233373018,0.0
5.35595575,1.162590632,-5.114220393,3.171561345,6.129083828,0.0
5.36599375,-0.1547353064,-5.168639259,4.944736508,7.154662392,0.0
5.37603075,-2.326318548,-4.673968323,5.350359027,7.475565504,0.0
5.38606775,-3.253251333,-3.870305954,4.84836153,7.004964093,0.0
5.39610475,-2.459046835,-3.270782163,4.279509601,5.921075047,0.0
5.40614275,-1.17140531,-2.886549343,4.110027763,5.157197467,0.0
5.41617975,-0.6833722794,-2.495235545,3.655793831,4.478618831,0.0
5.42621675,-0.9927889515,-1.753027412,2.269172248,3.0344485,0.0
5.43625375,-0.852996351,-0.08773630142,-1.365279247,1.612230708,0.0
5.44629175,-0.6542616239,0.02283220768,-3.797447308,3.853464109,0.0
5.45632875,-0.9261393178,-1.459979582,-3.824074359,4.196762933,0.0
5.46636575,-1.563490502,-3.210759909,-3.099768062,4.728852269,0.0
5.47640275,-2.642014691,-4.852387338,-1.816869652,5.816091457,0.0
5.48644075,-3.623847861,-5.170034405,-0.5862430108,6.340757836,0.0
5.49647775,-3.788829682,-5.070106659,0.2076761431,6.33279885,0.0
5.506514625,-4.070522804,-5.647329755,0.8137337597,7.008826713,0.0
5.516551625,-5.119587552,-5.941717182,-0.3217828023,7.849695787,0.0
5.526589625,-5.580881411,-5.074263445,-1.469992062,7.684742253,0.0
5.536626625,-4.762034408,-3.704046809,-1.499296845,6.216496239,0.0
5.546663625,-3.700670627,-2.357496194,-2.191546367,4.904653593,0.0
5.556700625,-2.290529203,-1.251602358,-2.933690473,3.926776322,0.0
5.566737625,-1.086631208,-0.09725439906,-3.544055879,3.708174467,0.0
5.576775625,0.1204948886,0.7083451527,-4.027418592,4.09101117,0.0
5.586812625,2.351825126,1.075821607,-5.517025139,6.093114141,0.0
5.596849625,3.106964815,0.5697135168,-6.74466853,7.4477082,0.0
5.606886625,2.699656251,0.4875613064,-5.156762395,5.841066538,0.0
5.616924625,3.323826934,-0.06829021633,-4.261149051,5.40461657,0.0
5.626961625,4.151038379,0.2232367533,-3.038233134,5.148962502,0.0
5.636998625,3.317166955,1.061143341,-3.233615798,4.752461775,0.0
5.647035625,1.577961629,1.885924684,-3.977680714,4.676389492,0.0
5.657073625,-0.08547562167,3.371910342,-3.978679419,5.216030613,0.0
5.667110625,-0.8111359879,4.938356026,-4.03241036,6.42694602,0.0
5.677147625,-1.559606196,5.992552875,-4.879883578,7.883928284,0.0
5.687184625,-1.646141772,6.814629881,-5.919079102,9.17520902,0.0
5.697222625,-1.749752825,7.36199417,-6.466548057,9.95373482,0.0
5.707259625,-1.567610742,7.66047231,-6.757354649,10.33450924,0.0
5.717296625,-1.543631311,7.480182186,-6.611308744,10.10174868,0.0
5.727333625,-1.599369602,7.313357615,-6.062546386,9.633153762,0.0
5.737371625,-1.26806724,7.117251357,-5.547120758,9.112288961,0.0
5.747408625,-0.7887952387,7.079416364,-5.017579951,8.713004221,0.0
5.757445625,-0.1796798207,7.07539231,-4.285955571,8.274229652,0.0
5.767482625,0.3009747545,6.783223901,-3.16972415,7.493321258,0.0
5.777520625,0.9522402652,6.086283157,-1.499956703,6.340305537,0.0
5.787557625,1.453886345,4.845370679,0.2450456983,5.064726046,0.0
5.797594625,1.818254711,3.40665859,2.265450787,4.477012421,0.0
5.807631625,1.160050894,1.194335312,5.440993209,5.690040599,0.0
5.817669625,0.6806069849,-2.523513849,9.108030066,9.475629779,0.0
5.827706625,2.023151526,-8.245250593,12.02923235,14.72344152,0.0
5.837743625,3.755451436,-15.80070048,14.47283172,21.75381366,0.0
5.847780625,3.86448622,-21.50602175,11.1560957,24.53368493,0.0
5.857818625,3.54443127,-18.56893492,3.981320606,19.31888327,0.0
5.867855625,2.945644228,-9.734698387,3.371126815,10.71474072,0.0
5.877892625,0.4764524737,-1.4768985,4.792758018,5.037734169,0.0
5.887929625,-2.593606178,3.571708531,6.50682017,7.862735119,0.0
5.897967625,-5.098049918,4.210374754,5.203857039,8.414124828,0.0
5.908004625,-6.270026062,3.093795716,0.04675112039,6.991922798,0.0
5.918041625,-6.687994393,0.2697688955,-5.550427358,8.695360148,0.0
5.928078625,-6.78102067,-3.552985747,-5.381941009,9.357950527,0.0
5.938116625,-4.018706533,-5.613464436,-0.7566337985,6.945032749,0.0
5.948153625,-1.710275787,-5.135263352,0.8209414762,5.474478777,0.0
5.958190625,-4.581782876,-0.807558369,-0.7647818935,4.714846358,0.0
5.968227625,-6.945338539,3.615599486,-2.619881811,8.256758915,0.0
5.978264625,-5.006333417,6.658112782,-5.345892924,9.898101396,0.0
5.988302625,-2.756695547,6.860567946,-6.67360498,9.960108749,0.0
5.998339625,-1.057175421,4.905099987,-5.605589406,7.523314319,0.0
6.008376625,0.3389572442,0.7975122678,-4.276732466,4.3636405,0.0
6.018413625,2.068627661,-1.919325734,-6.219760473,6.829967204,0.0
6.028451625,1.846177943,-2.312373231,-7.593599458,8.149735928,0.0
6.038488625,0.7047812748,-2.350160277,-6.660534114,7.098076123,0.0
6.048525625,0.8717102185,-2.009872207,-5.438425112,5.863099239,0.0
6.058562625,1.699042117,-2.345138689,-4.392864893,5.261528442,0.0
6.068600625,2.194302744,-3.446952338,-3.724062121,5.528569764,0.0
6.078637625,3.046701656,-4.503141333,-2.237027764,5.87919774,0.0
6.088674625,3.313325627,-3.62513571,0.7349850672,4.965877432,0.0
6.098711625,1.362813183,-1.653416585,2.787469443,3.515825945,0.0
6.108749625,0.06749967277,-1.356644078,1.555665758,2.065220403,0.0
6.118786625,-0.1570822325,-1.399556794,-0.1601663464,1.417422769,0.0
6.128823625,-0.6348643631,-0.4956205237,-0.8126039314,1.144123076,0.0
6.138860625,-0.8309902087,0.6666697079,-1.70453236,2.010080544,0.0
6.148898625,-0.07594919175,1.860444857,-2.187963193,2.873013449,0.0
6.158935625,0.2862726617,2.643536137,-2.094022265,3.384547915,0.0
6.168972625,0.4610064688,2.79405984,-2.13844137,3.548553063,0.0
6.179009625,0.9467092377,2.108474974,-1.08585192,2.553624775,0.0
6.189047625,1.340870045,1.751238164,-0.2268743062,2.217259465,0.0
6.199084625,1.123940975,1.564976864,-0.5724692365,2.010004211,0.0
6.209121625,1.062599005,1.344538588,-0.8550967439,1.915226123,0.0
6.219158625,0.8839073642,0.40071729,-0.5250285101,1.103413572,0.0
6.229196625,0.8216570292,-0.09882379174,0.669922514,1.064745317,0.0
6.239233625,0.8478066547,0.5771488363,0.9222316235,1.379270847,0.0
6.249270625,0.9846238996,1.562536236,0.5118570721,1.916507598,0.0
6.259307625,1.072089183,2.138497503,-0.004670764999,2.392189081,0.0
6.269345625,1.160383601,2.778074722,-0.4287657988,3.041057278,0.0
6.279382625,1.156841357,3.611166712,-1.322281162,4.015872809,0.0
6.289419625,0.6582207736,3.700014569,-1.627006466,4.095181613,0.0
6.299456625,-0.1838297358,3.262100801,-1.106987778,3.44971259,0.0
6.309494625,-1.617327863,2.23753998,0.4079473722,2.790834219,0.0
6.319531625,-3.32005431,0.977660889,2.770445859,4.43327776,0.0
6.329568625,-4.86808185,-0.06173022509,5.675447845,7.477482181,0.0
6.339605625,-5.185265817,-0.2532212752,8.430543594,9.900766026,0.0
6.349643625,-3.388229336,-0.02638965368,9.261113681,9.861491827,0.0
6.359680625,-1.04462598,-0.6757393241,7.713815289,7.813501992,0.0
6.369717625,1.490971287,-2.206395371,5.453247803,6.068697349,0.0
6.379754625,3.66651704,-3.800206609,4.312529997,6.817831947,0.0
6.389792625,5.073743042,-4.150880504,4.114316403,7.739526916,0.0
6.399829625,5.735359002,-3.665800171,3.863812037,7.82697114,0.0
6.409866625,6.109491926,-3.607840816,2.473970976,7.514182546,0.0
6.419903625,5.309640187,-3.904915039,0.7229522283,6.63048266,0.0
6.429941625,4.508377223,-3.795489661,0.1187266906,5.894514651,0.0
6.439978625,2.97694028,-3.951342516,1.134302534,5.075620489,0.0
6.450015625,0.7184373008,-4.584083755,3.117168791,5.589876322,0.0
6.460052625,-1.210808527,-5.052118869,4.040856371,6.581677793,0.0
6.470089625,-1.609158718,-5.021932619,4.398384372,6.866948674,0.0
6.480127625,-1.632439699,-4.673336239,4.830471389,6.916529825,0.0
6.490164625,-0.7420555204,-4.022566865,4.433846565,6.032469307,0.0
6.500201625,0.3067968272,-3.57342352,4.188996749,5.51463269,0.0
6.5102395,0.6913049045,-2.956586707,4.259185849,5.23067601,0.0
6.5202765,0.1135542436,-2.18021037,3.420252782,4.057627498,0.0
6.5303135,-0.6393510778,-0.8329873252,0.8311502762,1.339196948,0.0
6.5403505,-0.7629254025,-0.05716705799,-1.373448976,1.572159449,0.0
6.5503875,-0.9501126096,-0.2625885147,-2.532057216,2.717164045,0.0
6.5604255,-1.18879683,-0.9603227252,-3.744978488,4.044789428,0.0
6.5704625,-2.176408803,-2.223801363,-4.356385576,5.353516887,0.0
6.5804995,-3.257903085,-4.769258643,-1.38686015,5.939961413,0.0
6.5905365,-3.804753697,-6.260226129,1.907902029,7.570117042,0.0
6.6005745,-3.734614591,-6.020325395,2.223547009,7.425350181,0.0
6.6106115,-4.257961734,-5.732187472,0.4743688184,7.15634244,0.0
6.6206485,-4.838399921,-5.542315516,-1.754638905,7.563473591,0.0
6.6306855,-3.911091745,-4.892619106,-2.628328698,6.792825045,0.0
6.6407235,-2.241479834,-3.226550315,-3.301740246,5.131895111,0.0
6.6507605,-1.079824026,-2.491875735,-2.545705787,3.722375929,0.0
6.6607975,-0.2545417227,-1.922670341,-2.398621124,3.084612784,0.0
6.6708345,0.9761362275,-0.7916200286,-2.732687757,3.007837526,0.0
6.6808725,1.144976041,-0.4862795967,-2.819303439,3.081543422,0.0
6.6909095,0.710270787,-0.62895926,-4.312393464,4.415519418,0.0
6.7009465,1.511344448,-0.01478234589,-4.807887688,5.039857595,0.0
6.7109835,2.297371761,-0.09206908822,-4.88827287,5.402000127,0.0
6.7210215,1.722506701,-0.09634749591,-3.110729252,3.557098348,0.0
6.7310585,0.1466374974,0.742444945,-3.47450091,3.555964514,0.0
6.7410955,-0.8554956702,1.964311872,-4.702084368,5.167203438,0.0
6.7511325,-1.393619385,3.987210506,-5.172448136,6.677892057,0.0
6.7611705,-1.370195878,5.725539188,-6.14208606,8.507905553,0.0
6.7712075,-2.084769046,6.226472492,-6.104144647,8.965255353,0.0
6.7812445,-2.155049801,6.666520493,-5.754326785,9.066367071,0.0
6.7912815,-1.935123156,7.072029576,-5.731249579,9.306208986,0.0
6.8013195,-1.439010005,7.025711442,-5.819207489,9.235504689,0.0
6.8113565,-0.5667017622,7.075715661,-5.945541261,9.259393279,0.0
6.8213935,0.003795062229,7.069497732,-6.13168094,9.358168824,0.0
6.8314305,0.2978146999,6.924879717,-5.782060128,9.026343225,0.0
6.8414685,0.4776812661,6.509440892,-5.293717049,8.403834858,0.0
6.8515055,0.5753242126,6.207980672,-4.482248647,7.678578964,0.0
6.8615425,0.6394269454,6.151510018,-3.450356002,7.082012345,0.0
6.8715795,0.5467316204,5.678883085,-2.397824441,6.188553191,0.0
6.8816175,0.8916828454,4.669215122,-0.724693383,4.808518343,0.0
6.8916545,1.401822152,3.140622557,1.455316427,3.734509512,0.0
6.9016915,1.435943286,1.023696603,3.8281104,4.21477367,0.0
6.9117285,0.7984380282,-2.02752729,5.916737877,6.305248393,0.0
6.9217665,-0.749460142,-6.059720426,9.547975742,11.33339062,0.0
6.9318035,-1.298513546,-10.984163,13.65601311,17.57340799,0.0
6.9418405,0.6548393288,-15.44489857,13.39767143,20.45657122,0.0
6.9518775,4.046953263,-15.57807476,7.246811623,17.65136036,0.0
6.9619155,4.731271037,-10.88295939,3.127235357,12.27205491,0.0
6.9719525,3.159826275,-4.229779324,2.753607633,5.954652821,0.0
6.9819895,1.066912935,1.642531993,3.879815281,4.346168563,0.0
6.9920265,-1.014219435,5.789421188,4.998836117,7.715853892,0.0
7.0020645,-1.955369871,7.231690139,4.954027734,8.981269642,0.0
7.0121015,-1.716777599,4.333227094,2.640364899,5.356837609,0.0
7.0221385,-1.601427529,0.9160452694,-1.587316151,2.43377929,0.0
7.0321755,-2.011198648,-1.281164711,-5.715629911,6.193119432,0.0
7.0422135,-1.491230611,-3.624811774,-6.060292284,7.217352125,0.0
7.0522505,-1.616617426,-6.610021772,-2.847073036,7.376426275,0.0
7.0622875,-5.104715744,-7.496519891,0.1352952147,9.070514765,0.0
7.0723245,-8.189671054,-4.903303138,0.9550824505,9.592980565,0.0
7.0823625,-8.151198714,-1.023275603,-0.9270514834,8.267318664,0.0
7.0923995,-5.946439394,3.557916119,-3.450330275,7.74103918,0.0
7.1024365,-3.863745963,5.151647835,-5.878979482,8.719541733,0.0
7.1124735,-1.579669309,4.519411211,-5.552751042,7.331676271,0.0
7.1225115,1.249809601,2.268676404,-4.421297856,5.124138112,0.0
7.1325485,2.133171566,-0.05479776621,-6.04694426,6.412406616,0.0
7.1425855,1.405710842,-0.9991096455,-7.037452651,7.245687191,0.0
7.1526225,1.063358559,-0.79954476,-7.087818228,7.211599717,0.0
7.1626605,0.9570158324,-0.8101375759,-6.226747895,6.351739254,0.0
7.1726975,1.313245752,-1.561839833,-4.793126392,5.209416347,0.0
7.1827345,1.833175197,-2.703150254,-3.727430409,4.955934832,0.0
7.1927715,2.81052443,-3.882392734,-2.792175282,5.546914792,0.0
7.2028095,4.003387413,-3.555219968,-2.141552088,5.766536668,0.0
7.2128465,3.0832909,-1.914370219,0.9602646916,3.754144961,0.0
7.2228835,0.3981860304,-0.6871764779,4.582493312,4.650807305,0.0
7.2329205,-0.5576483721,-0.3145018494,3.22650763,3.289412502,0.0
7.2429585,-0.3150587967,0.2566535908,0.9361589603,1.020552159,0.0
7.2529955,0.03016549319,0.6760053724,-0.1961736466,0.7045405028,0.0
7.2630325,0.05686797291,1.084853216,-1.813631171,2.114095195,0.0
7.2730695,0.392930553,1.311329327,-2.924317678,3.22887177,0.0
7.2831075,1.377309016,1.222744594,-2.517329834,3.119139939,0.0
7.2931445,1.707403343,1.125006046,-1.815515583,2.734403337,0.0
7.3031815,1.970177214,0.9636445284,-0.9462835604,2.388652676,0.0
7.3132185,1.980796342,1.010973646,-0.04510374047,2.224332756,0.0
7.3232565,2.020574804,1.508307989,0.2625621291,2.535084693,0.0
7.3332935,1.513765195,1.722654635,0.8093786073,2.431895925,0.0
7.3433305,0.7174038054,1.825886643,1.543443907,2.4961469,0.0
7.3533675,-0.06120280623,1.991112,1.12650878,2.288513669,0.0
7.3634055,-0.6006052342,2.050600403,0.4202733028,2.177686458,0.0
7.3734425,-0.5956004561,2.11305159,-0.04076562722,2.195766099,0.0
7.3834795,-0.6279745889,2.406632686,-0.5239584696,2.541803582,0.0
7.3935165,-0.6673134863,2.672711404,-0.6237704408,2.824496964,0.0
7.4035545,-0.8860204017,2.608287367,-0.3151041126,2.772631555,0.0
7.4135915,-1.295454721,2.445354118,0.7011127317,2.854736198,0.0
7.4236285,-1.964113944,1.801344125,2.066887968,3.37262659,0.0
7.4336655,-2.39956925,1.017812549,3.583959618,4.431550689,0.0
7.4437035,-2.473492381,0.2764674658,5.032226057,5.614080326,0.0
7.4537405,-1.679065543,-0.2388651913,6.664089221,6.876510948,0.0
7.4637775,-0.1518967755,-0.6500361335,7.141046602,7.172180015,0.0
7.4738145,1.227159242,-1.438882828,5.152545383,5.488627107,0.0
7.4838525,2.732490121,-2.282370583,3.042722626,4.683361903,0.0
7.4938895,4.407629405,-2.786768947,1.575837628,5.447618045,0.0
7.5039265,5.803862057,-3.028837827,1.04225815,6.629100649,0.0
7.513963958,6.440932574,-3.476104801,1.294931249,7.432749421,0.0
7.524001958,6.323083697,-4.313824863,1.648288285,7.82989953,0.0
7.534038958,5.682911816,-4.808214548,1.546705777,7.603072577,0.0
7.544075958,4.40266278,-4.536856964,1.177467849,6.430625257,0.0
7.554112958,2.08694421,-4.278293672,2.258293795,5.268683303,0.0
7.564150958,-0.2974569234,-3.909379973,5.022229657,6.37138314,0.0
7.574187958,-2.089850569,-3.281724057,6.461245801,7.542206938,0.0
7.584224958,-3.222283309,-3.053765677,5.786502843,7.293298958,0.0
7.594261958,-2.704904419,-2.75493495,4.451429143,5.892486395,0.0
7.604299958,0.7305234955,-2.807600237,4.240757471,5.138122965,0.0
7.614336958,2.639410926,-3.346240481,3.438961533,5.476337446,0.0
7.624373958,2.264466116,-3.435874788,2.678563882,4.909964035,0.0
7.634410958,1.39499582,-2.544026467,1.779141808,3.403443782,0.0
7.644448958,0.6232168557,-1.630389081,0.6761392736,1.871825879,0.0
7.654485958,0.1069192618,-1.43132881,-0.1221120822,1.440501736,0.0
7.664522958,-0.02133254305,-1.469140999,-2.269089217,2.703256597,0.0
7.674559958,-1.067222106,-2.10050405,-4.487321692,5.068247848,0.0
7.684597958,-2.953543231,-3.377711949,-5.439139057,7.050999171,0.0
7.694634958,-4.11974145,-4.430987277,-4.346963373,7.449967008,0.0
7.704671958,-5.033129452,-5.32252745,-0.5190409613,7.343779276,0.0
7.714708958,-5.701577298,-6.02155565,3.474964594,8.991245468,0.0
7.724746958,-6.783754828,-6.119045691,2.556924255,9.48682831,0.0
7.734783958,-8.405791746,-6.159687933,-0.5167633246,10.43389355,0.0
7.744820958,-8.435566353,-5.415449647,-1.528029039,10.14005657,0.0
7.754857958,-6.24999701,-3.912325215,-1.185215995,7.46816498,0.0
7.764895958,-3.811655458,-2.197899367,-1.715361403,4.722493377,0.0
7.774932958,-2.312833992,-1.128827786,-2.188087154,3.378043611,0.0
7.784969958,-0.9249586187,-0.7378010863,-3.106531828,3.324220042,0.0
7.795006958,0.3836084832,-0.6604775065,-6.349068723,6.394846336,0.0
7.805044958,3.14478139,-0.3027471918,-7.836344862,8.449237045,0.0
7.815081958,5.833137896,-0.2129614413,-4.258045934,7.225081693,0.0
7.825118958,6.313830478,-0.4249382114,-2.582258779,6.834697374,0.0
7.835155958,6.148288786,0.2690251297,-3.02469449,6.857303135,0.0
7.845193958,3.431712155,1.298108772,-3.820864822,5.297239157,0.0
7.855230958,-0.1505282347,3.427444857,-4.311294188,5.509745418,0.0
7.865267958,-1.432330146,5.563661361,-4.776925512,7.471607239,0.0
7.875304958,-1.636336284,6.836608395,-5.271255555,8.786520694,0.0
7.885342958,-1.936099203,6.641426582,-5.394888498,8.772790268,0.0
7.895379958,-1.546140643,6.556445489,-5.256388425,8.544422017,0.0
7.905416958,-1.508857042,6.939559152,-5.272092876,8.844721256,0.0
7.915453958,-1.635790154,7.275958824,-5.406266595,9.211031686,0.0
7.925491958,-1.334619225,7.103337323,-5.841939125,9.293377338,0.0
7.935528958,-1.005443349,6.804047005,-6.227216842,9.27815723,0.0
7.945565958,-0.2405384452,6.928167606,-6.427871649,9.453829862,0.0
7.955602958,0.476199874,6.698624631,-6.005151871,9.008894896,0.0
7.965640958,0.8459190273,6.536194242,-5.122653832,8.347394591,0.0
7.975677958,0.8843115529,6.414661034,-4.221128368,7.729670615,0.0
7.985714958,1.032085457,6.121254185,-2.86265148,6.835914473,0.0
7.995751958,1.677994479,5.467448936,-1.195935695,5.842852516,0.0
8.005789958,1.961214456,3.789324356,0.6325979823,4.313411808,0.0
8.015826958,0.8879887207,1.513844132,3.251051903,3.69453468,0.0
8.025863958,-0.392551361,-1.835345684,6.771524207,7.026815099,0.0
8.035900958,-0.7891279453,-7.059602489,9.862345444,12.15428187,0.0
8.045938958,-0.6807239293,-13.77091558,13.77851462,19.49227965,0.0
8.055975958,-0.890240922,-19.05658452,14.69765833,24.08250616,0.0
8.066012958,1.344862962,-17.96445912,9.429802344,20.33350978,0.0
8.076050958,3.495414646,-12.21530128,4.253699698,13.3987115,0.0
8.086087958,2.473334799,-4.620531204,3.187820113,6.134239212,0.0
8.096124958,0.3563234746,2.765756977,4.404292399,5.21288496,0.0
8.106161958,-2.449971518,6.959106393,5.852652394,9.417274673,0.0
8.116199958,-3.987618057,7.56084628,4.021594473,9.446730458,0.0
8.126236958,-4.717971545,4.96031583,0.8903315538,6.9033817,0.0
8.136273958,-4.193859878,0.386498031,-4.682036896,6.297563887,0.0
8.146310958,-3.84316698,-3.838052128,-6.799777368,8.702732262,0.0
8.156348958,-2.230860267,-7.072821874,-3.043403826,8.016473891,0.0
8.166385958,-1.177384088,-7.568085718,0.1469639182,7.660532169,0.0
8.176422958,-3.231731533,-2.825837118,-0.5173984784,4.324019577,0.0
8.186459958,-5.799160895,2.057698923,-4.072298019,7.378889015,0.0
8.196497958,-6.432372251,5.179394043,-6.222940189,10.34052803,0.0
8.206534958,-6.733861122,5.746847611,-3.360263858,9.46902932,0.0
8.216571958,-6.315701002,3.647548088,-3.161508227,7.949076706,0.0
8.226608958,-3.159474858,0.308131308,-2.450267825,4.010117043,0.0
8.236646958,0.7966547737,-2.201439856,-4.375589586,4.962537707,0.0
8.246683958,1.638778958,-3.210465209,-7.190373128,8.043267312,0.0
8.256720958,1.328487396,-3.17417622,-7.533448566,8.282096397,0.0
8.266757958,1.388653491,-2.252678422,-6.208303438,6.748773976,0.0
8.276795958,1.70757642,-1.58316112,-4.926355201,5.448962464,0.0
8.286832958,2.318982339,-1.094214608,-3.682085837,4.486952285,0.0
8.296869958,2.870591122,-0.7129936892,-3.27560787,4.413418211,0.0
8.306906958,3.403228321,-0.5371152896,-3.194479507,4.698420496,0.0
8.316944958,3.60799372,-0.4669130337,-3.262161028,4.886442575,0.0
8.326981958,2.711907629,-0.6935166138,-2.334327187,3.644789665,0.0
8.337018958,0.7130047989,-0.8536461228,1.296404747,1.70814309,0.0
8.347055958,-1.072000743,-1.002403382,4.374260514,4.613908666,0.0
8.357093958,-1.056078483,-1.131260228,2.430229125,2.881156897,0.0
8.367130958,-0.3889681873,-0.1181611186,0.4131730288,0.5796294095,0.0
8.377167958,0.2983554943,1.113091174,-0.818247664,1.413335488,0.0
8.387204958,0.2900843154,1.163456166,-1.72251591,2.098771122,0.0
8.397242958,0.2488924353,1.759387429,-1.68217363,2.446855061,0.0
8.407279958,0.4385511142,2.390017238,-1.308375898,2.759774804,0.0
8.417316958,0.5728492324,2.151390029,-0.4806463891,2.277642696,0.0
8.427353958,1.455068213,1.707350133,0.2320671453,2.255243477,0.0
8.437391958,1.916931591,1.19801555,0.5808336785,2.333931393,0.0
8.447428958,1.917023685,0.8846129769,0.7838017166,2.252080163,0.0
8.457465958,1.449271868,0.9560829091,1.371832806,2.212783027,0.0
8.467502958,0.6994845745,1.541414339,1.820724136,2.48601553,0.0
8.477540958,0.1696989159,2.342869384,1.353017051,2.710809808,0.0
8.487577958,-0.1288065594,2.8160366,0.7128691435,2.907720014,0.0
8.497614958,-0.2438370788,2.934902893,0.3122424853,2.961521042,0.0
8.507652083,-0.3358001862,2.87667398,-0.001426720619,2.896207346,0.0
8.517690083,-0.4841879015,2.593100393,-0.3090779722,2.655962494,0.0
8.527727083,-0.709640311,1.98930755,-0.4631906231,2.162285701,0.0
8.537764083,-0.9682679218,1.323286298,-0.05432750389,1.640603813,0.0
8.547801083,-1.302328708,0.7898050529,0.7469901319,1.696421628,0.0
8.557839083,-1.906675283,0.1517510337,2.147508208,2.875800848,0.0
8.567876083,-2.203590315,-0.3947180468,4.478621035,5.006961053,0.0
8.577913083,-1.783607765,-0.7542463803,7.269681838,7.523192027,0.0
8.587950083,-1.197771575,-1.62342797,8.450666202,8.688149077,0.0
8.597988083,0.6607732294,-2.85206305,7.077199684,7.658827604,0.0
8.608025083,3.472804048,-3.633748074,4.819311393,6.963494477,0.0
8.618062083,5.606761773,-3.598621511,3.012381716,7.31165494,0.0
8.628099083,6.18013974,-3.196172276,2.467538162,7.382302418,0.0
8.638137083,5.873294234,-2.678318299,2.457665138,6.907176848,0.0
8.648174083,5.329832377,-2.467440221,1.695236164,6.113035258,0.0
8.658211083,4.249837613,-2.8367106,0.5570981491,5.139883764,0.0
8.668248083,3.239473246,-3.223224419,0.2658497992,4.577558157,0.0
8.678286083,2.219779794,-3.736355014,1.277075168,4.529756297,0.0
8.688323083,-0.2616757643,-4.32408848,2.817068049,5.167406292,0.0
8.698360083,-3.050504685,-4.475830159,4.311232792,6.922814647,0.0
8.708398083,-3.917048889,-3.9730275,5.425349568,7.782200039,0.0
8.718435083,-2.658166455,-3.500857819,5.502231098,7.042471259,0.0
8.728472083,0.3273641159,-3.761044883,4.17084933,5.625709734,0.0
8.738509083,1.909363832,-3.840329618,3.316938329,5.421796907,0.0
8.748547083,1.768222572,-3.386633046,2.433520961,4.529670929,0.0
8.758584083,0.7617372483,-2.536877661,1.094069012,2.865829532,0.0
8.768621083,-0.2145488141,-1.760490214,0.3312646472,1.804187699,0.0
8.778658083,-0.9980474988,-1.11337301,-0.17051537,1.50491653,0.0
8.788696083,-1.918003532,-0.6953754437,-1.648121932,2.622706705,0.0
8.798733083,-2.905333231,-0.9230753767,-2.986482351,4.267564431,0.0
8.808770083,-3.578140469,-1.702432625,-3.68296058,5.409765678,0.0
8.818807083,-4.243217687,-2.920938572,-2.424597087,5.693456728,0.0
8.828845083,-4.86947758,-3.948846924,0.7851929154,6.31836465,0.0
8.838882083,-5.411104581,-4.574386733,2.561455262,7.534329421,0.0
8.848919083,-6.38039869,-5.233590716,1.39633147,8.369569929,0.0
8.858956083,-6.971632884,-5.614982373,-0.7529832356,8.983244173,0.0
8.868994083,-5.952202994,-4.888869286,-1.841353698,7.919617846,0.0
8.879031083,-4.263155231,-3.914516752,-2.29984791,6.227939815,0.0
8.889068083,-2.426621247,-2.754343212,-1.438750096,3.942701998,0.0
8.899105083,-1.39769621,-1.80844206,-0.8822606421,2.449979841,0.0
8.909143083,-0.268126705,-1.308086461,-3.802551635,4.03018375,0.0
8.919180083,2.552311386,-0.4866555727,-5.66086372,6.22868406,0.0
8.929217083,4.746600975,-0.07623365879,-5.462024474,7.236694255,0.0
8.939254083,6.06114013,-0.3415206635,-4.225469926,7.396529736,0.0
8.949292083,5.458917848,-0.3794392723,-3.205605589,6.34189762,0.0
8.959329083,4.153166473,0.6133928025,-3.216159228,5.288546366,0.0
8.969366083,1.458414428,2.148727207,-3.803178749,4.605232877,0.0
8.979403083,-0.3259046508,3.838142175,-4.726006789,6.096940984,0.0
8.989441083,-1.404357212,4.81736544,-4.560211912,6.780469132,0.0
8.999478083,-1.586813291,5.230891056,-4.429854379,7.03589422,0.0
9.009515083,-1.786959097,5.725656132,-4.84253478,7.708858804,0.0
9.019552083,-1.869471788,6.209036095,-5.05692762,8.223111999,0.0
9.029590083,-1.533736652,6.689919296,-5.52437158,8.810564662,0.0
9.039627083,-1.243716218,6.759115831,-6.08944884,9.182258111,0.0
9.049664083,-0.8467511592,6.661433415,-6.384046183,9.26540492,0.0
9.059701083,-0.4513730349,6.420125257,-6.230571975,8.957777239,0.0
9.069739083,-0.03046297029,6.280987837,-5.897419261,8.615758246,0.0
9.079776083,0.2101481266,6.029443544,-5.363654426,8.072616706,0.0
9.089813083,0.2177571814,5.944888712,-4.461774914,7.436165368,0.0
9.099850083,0.1558788756,6.122395561,-3.369987777,6.99033928,0.0
9.109888083,0.653330601,6.170925112,-2.158354647,6.57005726,0.0
9.119925083,1.080880764,5.010128844,-0.5222753486,5.151938063,0.0
9.129962083,1.114056988,3.330147774,1.532876527,3.831542459,0.0
9.140000083,0.8312271671,1.269295447,4.683837839,4.923452695,0.0
9.150037083,-0.1559208293,-2.221694026,7.256358372,7.590452719,0.0
9.160074083,-0.3258985113,-6.808962175,10.1814853,12.2527882,0.0
9.170111083,0.4365110207,-12.27005928,13.41554052,18.18575333,0.0
9.180149083,0.691189422,-16.73915286,11.7297555,20.45150717,0.0
9.190186083,2.476911833,-16.15419624,7.427036258,17.95143493,0.0
9.200223083,2.114875629,-10.81437389,3.805189899,11.65773785,0.0
9.210260083,0.6099490848,-2.678307774,3.634453833,4.55572443,0.0
9.220298083,-1.879502102,3.973094158,5.119229702,6.747185938,0.0
9.230335083,-4.163693508,7.961526732,5.7453478,10.66448653,0.0
9.240372083,-4.985495694,8.178605783,5.127098885,10.86424884,0.0
9.250409083,-4.857735494,3.867644886,2.490842532,6.690333894,0.0
9.260447083,-3.789326695,-0.3845473999,-2.194244272,4.395632086,0.0
9.270484083,-2.264239683,-4.444839331,-5.069698523,7.112328812,0.0
9.280521083,-0.4358460461,-8.199845209,-4.392129605,9.312262115,0.0
9.290558083,-0.4058192781,-8.515070359,-2.357040696,8.844588931,0.0
9.300596083,-3.307283406,-4.198290313,-0.5267587012,5.370404064,0.0
9.310633083,-4.945011912,1.092469799,-5.000147647,7.116748525,0.0
9.320670083,-5.446567944,5.05400752,-6.503339907,9.874286016,0.0
9.330707083,-6.929043519,5.361097439,-3.343598709,9.377241714,0.0
9.340745083,-5.903376989,3.203938547,-2.711477859,7.243424209,0.0
9.350782083,-1.90917716,0.6419915342,-3.999559826,4.478123419,0.0
9.360819083,0.7267891712,-1.004442891,-6.463738469,6.581568432,0.0
9.370856083,0.5297258708,-1.774713566,-7.392220767,7.620705059,0.0
9.380894083,0.4309400859,-1.959608372,-7.04318877,7.323406473,0.0
9.390931083,1.033856432,-1.399971946,-6.330241274,6.565115015,0.0
9.400968083,1.807671397,-1.042023531,-5.916392891,6.273531204,0.0
9.411005083,2.522996956,-1.238674749,-4.957852398,5.699134072,0.0
9.421043083,3.402646231,-1.94204509,-3.623421307,5.336545931,0.0
9.431080083,4.3450373,-2.450711337,-1.563605253,5.227829051,0.0
9.441117083,3.730326243,-1.453795567,1.851315307,4.410920969,0.0
9.451155083,1.087763667,-0.4799739593,2.426519067,2.702147216,0.0
9.461192083,-0.4801213092,-0.871527493,0.328407113,1.047820535,0.0
9.471229083,-0.6765324989,-0.9542831361,-0.3429469456,1.219001695,0.0
9.481266083,-0.598728278,-0.1960928088,0.2245307422,0.6688362989,0.0
9.491304083,-0.5628908394,0.8315845782,-0.1665399577,1.017897129,0.0
9.501341083,-1.062508227,1.298646716,-0.7704653871,1.846354229,0.0
9.511377875,-0.9962823705,1.536602665,-0.8495688593,2.018785169,0.0
9.521414875,-0.1637096129,1.729038041,-0.6886382818,1.868313696,0.0
9.531452875,0.4826775657,1.699582107,-0.7790467608,1.930924863,0.0
9.541489875,0.5035129492,1.239376999,-0.9051964185,1.615227907,0.0
9.551526875,0.02687248752,0.4558723211,-0.05095446445,0.4594976183,0.0
9.561563875,0.2127427554,0.3326492679,0.7773060447,0.8718484401,0.0
9.571601875,1.057045028,1.497535079,0.5386186087,1.910514461,0.0
9.581638875,2.020499814,1.59379662,0.3101100423,2.592060069,0.0
9.591675875,2.560853584,1.613785327,0.3012696004,3.041880591,0.0
9.601712875,2.371208792,2.173852692,-0.3358278143,3.234354183,0.0
9.611750875,1.83168825,2.168160428,-0.2929665359,2.853389367,0.0
9.621787875,1.332263674,2.247719398,0.2917175889,2.629119271,0.0
9.631824875,1.060847618,2.601571839,0.5800496399,2.868803111,0.0
9.641861875,0.3564301863,2.464495563,0.6252837002,2.567442417,0.0
9.651899875,-0.5863247256,2.064926666,0.4779046297,2.19911156,0.0
9.661936875,-1.323082961,1.490278099,1.044816746,2.250137633,0.0
9.671973875,-1.773479803,1.193370522,2.705284488,3.447887466,0.0
9.682010875,-2.148745918,0.6271407759,4.73817309,5.240295679,0.0
9.692048875,-2.778317089,-0.1808198816,6.474341226,7.047612077,0.0
9.702085875,-2.684647325,-1.064727684,7.202942888,7.760371289,0.0
9.712122875,-1.292484043,-1.909218822,6.5516344,6.945469374,0.0
9.722160875,0.4868014607,-2.935133858,5.071906432,5.880154869,0.0
9.732197875,2.33081608,-3.87040828,3.522622618,5.729016841,0.0
9.742234875,4.135057354,-4.004856234,3.051229155,6.51518013,0.0
9.752271875,5.073282282,-3.432955273,3.051087652,6.843428299,0.0
9.762309875,4.887915021,-3.243596703,2.82960828,6.513011273,0.0
9.772346875,4.475232573,-3.265350684,2.034175136,5.901532865,0.0
9.782383875,3.93205489,-3.204316862,1.119124039,5.194337381,0.0
9.792420875,3.073121715,-3.298831256,1.645887418,4.799511447,0.0
9.802458875,1.429730473,-3.409910227,2.91753023,4.709946882,0.0
9.812495875,-0.3265029672,-3.557840105,3.0029332,4.667165972,0.0
9.822532875,-1.232748449,-3.818273921,3.294121324,5.191350477,0.0
9.832569875,-1.8788152,-3.830948346,3.681397912,5.635494865,0.0
9.842607875,-1.66581356,-3.237571147,4.024520712,5.427114216,0.0
9.852644875,-0.0250797312,-2.811779242,4.627630309,5.414950949,0.0
9.862681875,0.8552558613,-3.200581661,4.611030064,5.677744605,0.0
9.872718875,0.8650696819,-3.475849863,4.005926274,5.373762475,0.0
9.882756875,0.6207342741,-3.096424039,2.424405298,3.981318113,0.0
9.892793875,0.1861784162,-1.8193822,0.1664001361,1.836437584,0.0
9.902830875,-0.6170918973,-0.8322271872,-1.790457194,2.068608582,0.0
9.912867875,-1.138171052,-0.6791231078,-1.992016565,2.39264948,0.0
9.922905875,-1.328306863,-1.042379041,-3.282846723,3.691616962,0.0
9.932942875,-1.736120188,-2.389806738,-4.181390106,5.119503177,0.0
9.942979875,-1.692637223,-3.430270232,-2.65339922,4.65535198,0.0
9.953017875,-1.309157378,-3.824888291,0.2977905071,4.053682606,0.0
9.963054875,-1.941238028,-4.242371888,1.923059766,5.046214738,0.0
9.973091875,-3.614737022,-4.822627934,0.9114451186,6.095473413,0.0
9.983128875,-5.293082042,-5.65487968,-0.597963316,7.768651223,0.0
9.993166875,-6.84810519,-5.446808265,-1.769611578,8.927249863,0.0
10.00320387,-6.051316223,-3.939604231,-2.268244295,7.568608968,0.0
10.01324087,-3.329181229,-2.131607729,-2.159898897,4.504704475,0.0
10.02327787,-1.505579239,-1.33771898,-2.235846042,3.009197308,0.0
10.03331587,1.128963003,-0.5994354987,-3.468687901,3.696711529,0.0
10.04335287,1.521405459,-1.361942825,-4.165735648,4.63927972,0.0
10.05338987,2.507643921,-1.908982009,-6.824582427,7.517141454,0.0
10.06342687,5.191227638,-1.475169479,-4.078162776,6.764346311,0.0
10.07346487,5.04750834,-1.418466105,-1.56588172,5.471870987,0.0
10.08350187,4.404367243,-0.5682780254,-2.515011413,5.103594139,0.0
10.09353887,3.315634692,1.582935417,-3.789914925,5.278501026,0.0
10.10357587,0.88870939,3.694506492,-5.11601081,6.372813288,0.0
10.11361388,-1.010005347,5.132168421,-5.041153001,7.264467433,0.0
10.12365087,-1.593025226,5.594526474,-5.10194007,7.737328242,0.0
10.13368788,-1.843292927,5.857619019,-5.805232644,8.450452972,0.0
10.14372487,-1.54137107,6.675863759,-6.15824601,9.212327373,0.0
10.15376287,-0.9945280597,6.979028442,-6.758207758,9.765720463,0.0
10.16379987,-0.9770010307,6.615310578,-7.059113077,9.723576631,0.0
10.17383687,-0.9464395349,6.849745334,-6.848732597,9.732414763,0.0
10.18387487,-0.973980213,6.746250787,-6.752121976,9.594357108,0.0
10.19391187,-0.9464681862,6.418122586,-6.026710555,8.854904837,0.0
10.20394887,-0.7099107447,6.627412561,-5.463164681,8.618163311,0.0
10.21398587,-0.6363956027,6.78928337,-4.482193391,8.160234411,0.0
10.22402387,-0.3921617903,6.594826028,-3.285376813,7.378293977,0.0
10.23406087,0.03328717545,5.762840915,-2.326152195,6.21469448,0.0
10.24409787,0.7035660772,4.624533039,-0.6077765518,4.717065124,0.0
10.25413487,0.9677483967,2.996519682,1.458654603,3.470351627,0.0
10.26417287,0.5197670393,1.607671478,3.335806709,3.739300972,0.0
10.27420987,0.5024032938,-0.9578095919,8.112405946,8.184188324,0.0
10.28424687,0.7717428575,-6.091264985,12.68768964,14.09526745,0.0
10.29428387,1.404599725,-11.78653431,14.61626626,18.82898114,0.0
10.30432187,2.925958992,-17.3005569,12.60890192,21.6068256,0.0
10.31435887,3.427729032,-18.31290406,6.061816068,19.59227897,0.0
10.32439587,2.197496932,-11.96123508,2.877515979,12.49720911,0.0
10.33443287,-0.06845773906,-3.174827015,3.547029188,4.760843318,0.0
10.34447087,-2.201694063,3.161066762,4.449850395,5.885657853,0.0
10.35450787,-4.319958007,5.384962265,5.881854558,9.069513152,0.0
10.36454487,-5.264006177,3.990445186,3.634050083,7.539213077,0.0
10.37458187,-4.326007537,1.852584445,-0.9338058946,4.797749866,0.0
10.38461987,-3.034001796,-0.8243620974,-5.419939139,6.265818386,0.0
10.39465687,-2.03254347,-3.881474721,-4.621396008,6.368232096,0.0
10.40469387,-0.8810802354,-5.947111824,0.5487945181,6.037020527,0.0
10.41473087,0.08263080508,-6.34903364,2.540218175,6.838842328,0.0
10.42476888,-1.895208454,-2.684175455,-1.85718825,3.774355727,0.0
10.43480587,-4.075481243,3.118476228,-4.889356944,7.088035883,0.0
10.44484288,-5.11121317,6.537607514,-5.635631815,10.0312092,0.0
10.45488087,-4.757309273,6.666272571,-4.397855784,9.295822557,0.0
10.46491787,-3.320667975,4.405876409,-4.178416212,6.920819661,0.0
10.47495487,-0.4563880455,1.140250906,-2.913606749,3.161892861,0.0
10.48499187,2.060435712,-1.04275034,-4.292563802,4.87430278,0.0
10.49502987,1.980480593,-1.312661322,-7.233950672,7.614159537,0.0
10.50506687,1.015726263,-1.493698136,-8.094991769,8.294077748,0.0
10.51510383,0.9256884974,-1.070401238,-7.085696858,7.225632012,0.0
10.52514083,1.21948331,-1.156788586,-5.584553463,5.832026814,0.0
10.53517883,1.552156844,-2.19540436,-4.616571762,5.342445695,0.0
10.54521583,2.280333705,-3.712902417,-3.223651558,5.420101063,0.0
10.55525283,2.816917191,-3.917910476,0.3733545135,4.839880014,0.0
10.56528983,1.187882325,-1.971219188,2.912926133,3.712399246,0.0
10.57532783,-0.7790520233,-1.130891853,1.221379854,1.837826756,0.0
10.58536483,-1.43441,-1.12421901,-0.6008739138,1.91897105,0.0
10.59540183,-1.128159157,-0.3961628938,-1.18041353,1.680197674,0.0
10.60543883,-0.8787844723,0.3795690805,-1.917795517,2.143425875,0.0
10.61547683,-0.7169440681,0.8412020785,-1.79141219,2.104943555,0.0
10.62551383,0.06839546621,0.9415619338,-1.522739648,1.791634128,0.0
10.63555083,0.9102863467,0.9731135094,-1.567170301,2.057083831,0.0
10.64558883,1.468270934,1.220421495,-1.516262541,2.43809357,0.0
10.65562583,1.902622578,1.494068264,-1.246205378,2.721257153,0.0
10.66566283,1.239216785,1.368910367,-0.9839005259,2.092279637,0.0
10.67569983,0.8796922526,1.35455136,-0.4327150083,1.672097522,0.0
10.68573783,1.32207417,1.017533053,0.350285055,1.704685673,0.0
10.69577483,1.507175675,0.7177691102,1.142115583,2.022671258,0.0
10.70581183,1.393885287,0.5877328813,1.574968001,2.183774333,0.0
10.71584883,1.227726422,0.9136549276,1.254766871,1.979019301,0.0
10.72588683,1.148556584,1.858145732,0.3740031159,2.216250464,0.0
10.73592383,0.8158451892,2.371068166,-0.1496618418,2.511964628,0.0
10.74596083,0.7394836226,2.622354598,-0.6169256902,2.793595707,0.0
10.75599783,1.064473477,2.861712125,-0.462456286,3.088100692,0.0
10.76603583,1.248455825,2.948231036,0.09584872842,3.203107111,0.0
10.77607283,1.04183218,2.584780975,1.07308204,2.986304078,0.0
10.78610983,0.04416504309,1.452396328,2.064982653,2.524986931,0.0
10.79614683,-1.016545312,0.242408604,2.840025387,3.026197366,0.0
10.80618483,-1.29942001,-0.529224472,4.646292282,4.853514487,0.0
10.81622183,-1.890330999,-0.5690557051,7.980403883,8.220950178,0.0
10.82625883,-2.393087904,-0.5495248353,9.469655796,9.782802674,0.0
10.83629583,-1.778947388,-1.184392707,7.394717528,7.697355858,0.0
10.84633383,0.3402389538,-2.330350496,5.082903875,5.601982487,0.0
10.85637083,3.305361134,-3.565832664,3.73051657,6.128403438,0.0
10.86640783,5.476233208,-4.286651682,2.967252906,7.561025235,0.0
10.87644583,6.372839409,-4.684531319,2.872843469,8.414935853,0.0
10.88648283,6.734363397,-4.840549065,2.170410583,8.57282029,0.0
10.89651983,6.490022289,-4.650249678,1.004513057,8.047003036,0.0
10.90655683,5.585410665,-4.653549262,0.4598276702,7.284488624,0.0
10.91659483,3.815451178,-4.029077155,0.7469410153,5.599022351,0.0
10.92663183,1.681788737,-2.960775653,2.272389532,4.093697596,0.0
10.93666883,-0.6163310283,-2.841758502,3.759022038,4.752441688,0.0
10.94670583,-2.623544799,-3.146486145,4.86740942,6.361999437,0.0
10.95674383,-3.542285342,-2.985222861,5.539708242,7.221337022,0.0
10.96678083,-2.71633251,-2.390648738,5.913410811,6.932682822,0.0
10.97681783,-0.7122389598,-2.411841386,5.545603405,6.089169101,0.0
10.98685483,0.5377900583,-2.61220734,4.817629734,5.506578029,0.0
10.99689283,1.196536789,-2.368009488,2.945243694,3.964042083,0.0
11.00692983,1.556007089,-1.713606069,0.6514405616,2.404574521,0.0
11.01696683,1.435879405,-0.6301146698,-1.481187433,2.157014227,0.0
11.02700383,1.406526237,-0.4518775034,-3.786770293,4.06474336,0.0
11.03704183,0.9122589049,-1.488560187,-5.635125446,5.899378487,0.0
11.04707883,-0.9047361696,-2.908767008,-6.643790612,7.308859469,0.0
11.05711583,-2.573701963,-3.956819018,-6.95234175,8.403297825,0.0
11.06715283,-3.782418795,-4.897474049,-4.854561918,7.865031177,0.0
11.07719083,-5.151292325,-6.287944854,3.476738347,8.840914695,0.0
11.08722783,-6.778804575,-7.959068563,9.880531454,14.38484848,0.0
11.09726483,-8.952332747,-8.023589079,2.026755019,12.19138955,0.0
11.10730283,-8.408960937,-6.767698374,-2.089899539,10.99454617,0.0
11.11733983,-4.507045519,-4.01304292,-1.976497177,6.350158572,0.0
11.12737683,-2.39838168,-2.1863938,-1.990334613,3.807096585,0.0
11.13741383,-0.8910368742,-1.123381689,-2.124866766,2.563394606,0.0
11.14745183,0.8839955109,-0.9567003751,-3.066006823,3.331234232,0.0
11.15748883,3.209611808,-0.8476866406,-6.453875386,7.257595201,0.0
11.16752583,7.30758232,-0.1433135015,-6.436538392,9.739113132,0.0
11.17756283,8.119514991,-0.381008665,-3.468299938,8.83746546,0.0
11.18760083,5.69794033,-1.205306443,-2.670157048,6.406951403,0.0
11.19763783,3.786743688,-0.1199451041,-2.509354817,4.544301506,0.0
11.20767483,1.635908121,2.3865896,-3.118442899,4.254020618,0.0
11.21771183,0.2212201948,4.545350044,-5.126118892,6.854650997,0.0
11.22774983,-0.9329842146,5.820706131,-6.498876143,8.77419344,0.0
11.23778683,-1.743433155,6.054902321,-6.32527231,8.92807208,0.0
11.24782383,-1.566605752,6.273645489,-6.05535431,8.858904962,0.0
11.25786083,-1.640523621,6.783917381,-6.262621733,9.377274857,0.0
11.26789883,-1.541959738,7.268964384,-6.84108093,10.10029066,0.0
11.27793583,-1.129848125,7.503070527,-7.300392584,10.52940435,0.0
11.28797283,-0.9022442324,7.517357613,-7.148165587,10.41253962,0.0
11.29801083,-0.6453560221,7.624824175,-6.815751377,10.24738478,0.0
11.30804783,-0.6853255418,7.417670773,-5.998532238,9.564198858,0.0
11.31808483,-0.2175513594,7.223538535,-5.203255945,8.905094609,0.0
11.32812183,0.1762670933,6.716604819,-3.992464814,7.815601427,0.0
11.33815983,0.2467020683,6.217083033,-2.243776913,6.614190667,0.0
11.34819683,0.6635196666,5.653506753,-1.14302541,5.805936966,0.0
11.35823383,0.6504353522,4.214283618,0.7054408407,4.322140597,0.0
11.36827083,0.3568856844,2.067795895,2.929476677,3.603467893,0.0
11.37830883,-0.4672334611,-0.4769310683,5.149809471,5.19290939,0.0
11.38834583,-2.258702077,-4.37996038,7.998654798,9.394906417,0.0
11.39838283,-2.5740297,-8.996348248,11.55350054,14.86752452,0.0
11.40841983,-1.355294395,-14.00378445,14.70658352,20.35255268,0.0
11.41845783,1.431421927,-18.77365179,13.11814646,22.9474342,0.0
11.42849483,4.100810504,-17.43226777,5.455286143,18.72059704,0.0
11.43853183,3.272680169,-9.25951856,1.345767673,9.912628818,0.0
11.44856883,2.069261207,-0.3043639469,2.040343802,2.921897018,0.0
11.45860683,0.612761157,5.281844863,4.498877836,6.965146314,0.0
11.46864383,-1.196538543,5.696130032,6.510236113,8.732741613,0.0
11.47868083,-2.402627636,2.968871707,3.393154446,5.108846823,0.0
11.48871783,-3.161745624,0.1383591557,-2.449027339,4.001688837,0.0
11.49875583,-4.245188491,-2.917854166,-5.544276672,7.567991945,0.0
11.50879283,-4.293953685,-5.526283035,-3.995355093,8.058579574,0.0
11.51883,-4.077837086,-6.839254845,-0.9699185908,8.021527548,0.0
11.528867,-5.086861271,-3.973018729,-0.9982331479,6.531271302,0.0
11.538905,-6.548496784,1.181207728,-3.10208122,7.341727979,0.0
11.548942,-6.516456381,5.873998824,-5.946211352,10.5983723,0.0
11.558979,-6.231822694,8.024905288,-5.283147622,11.45191546,0.0
11.569017,-6.476867808,6.487779297,-4.148514428,10.06236894,0.0
11.579054,-4.117067518,3.452788444,-3.240758172,6.274910877,0.0
11.589091,-0.5518960275,0.4264163876,-5.772877661,5.814854826,0.0
11.599128,0.3354820977,-0.878858732,-9.03157129,9.080430655,0.0
11.609166,-0.1672894245,-1.385241641,-9.082794068,9.189343189,0.0
11.619203,-0.2474358939,-1.908335892,-7.661531825,7.899496206,0.0
11.62924,-0.2206172007,-2.381210747,-6.64943259,7.066384531,0.0
11.639277,0.6267025271,-3.365021737,-5.499794564,6.477952423,0.0
11.649315,1.949572503,-4.868275977,-4.272192103,6.764064555,0.0
11.659352,3.533461894,-5.691285614,-3.491950463,7.554455833,0.0
11.669389,4.430918572,-4.010949032,-1.382949678,6.134598711,0.0
11.679426,2.265375066,-1.481991425,2.759570915,3.865676449,0.0
11.689464,-0.3456967449,-0.8401875865,2.779654932,2.924363685,0.0
11.699501,-1.112935931,-1.103864268,1.367462889,2.080167652,0.0
11.709538,-1.36806603,-0.4026071101,0.375106924,1.474585484,0.0
11.719575,-0.9201932842,0.5283772105,-0.7578845179,1.303965912,0.0
11.729613,0.02335874945,1.532720699,-2.247738548,2.720681339,0.0
11.73965,0.856732868,2.055239584,-2.193562925,3.125655013,0.0
11.749687,1.129189875,1.588625928,-0.8763117579,2.136989567,0.0
11.759724,1.536550333,1.42355786,0.4402163281,2.140395833,0.0
11.769762,2.382089876,1.409461977,0.5568157285,2.823292227,0.0
11.779799,2.941028436,0.9391984892,0.6585034865,3.156797254,0.0
11.789836,2.689849593,0.4872876567,0.8379638904,2.859182326,0.0
11.799874,2.454230483,0.53081433,0.4905936724,2.558455251,0.0
11.809911,2.221739927,0.6463366002,0.1638483747,2.319639108,0.0
11.819948,1.61559928,0.9086105347,0.2030486566,1.864661603,0.0
11.829985,0.9347084123,1.592648812,0.06787330985,1.847922304,0.0
11.840023,0.6471536024,1.920387003,0.1423937162,2.031494523,0.0
11.85006,0.4290048037,2.29978593,0.1500851619,2.344266623,0.0
11.860097,0.3101421654,2.698510489,0.4429990911,2.752161917,0.0
11.870134,0.1588187094,3.094858739,0.7610876226,3.191023091,0.0
11.880172,-0.3631664711,3.163322033,0.9739731232,3.329732694,0.0
11.890209,-1.182307297,2.795128711,1.365026793,3.327745964,0.0
11.900246,-2.05636108,1.903838798,2.725043399,3.908846964,0.0
11.910283,-3.465328383,0.6148475897,4.557866009,5.758531143,0.0
11.920321,-4.257136107,-0.5768874657,5.813432779,7.228555019,0.0
11.930358,-3.606210027,-1.298193557,6.674741678,7.69689767,0.0
11.940395,-2.094284951,-2.026804574,6.921984175,7.510514707,0.0
11.950432,0.270466176,-3.033816147,5.84610702,6.591976916,0.0
11.96047,3.133322309,-3.779637274,4.631715174,6.749529766,0.0
11.970507,5.822098353,-3.940335132,3.446831008,7.829668843,0.0
11.980544,7.3350502,-3.969807438,2.853084851,8.81489794,0.0
11.990582,7.734864095,-3.79091363,3.244714398,9.204744442,0.0
12.000619,7.213569617,-3.50471055,2.880256569,8.521411888,0.0
12.010656,6.028784562,-3.503235297,1.298641015,7.092627816,0.0
12.020693,4.510957599,-3.384376021,0.32432868,5.648710349,0.0
12.030731,2.009840194,-3.206818301,1.484539057,4.065340998,0.0
12.040768,-0.5149891332,-3.50840599,3.629349214,5.074081406,0.0
12.050805,-2.558612054,-3.983664755,4.426686942,6.481638512,0.0
12.060842,-4.210196999,-4.031077487,4.560408086,7.400855788,0.0
12.07088,-4.979966567,-3.576434251,4.142685632,7.399513038,0.0
12.080917,-4.415829248,-2.626468114,3.866803472,6.430400593,0.0
12.090954,-2.658126402,-2.115188747,3.915668653,5.183832598,0.0
12.100991,-0.9852824423,-2.152633731,3.078996413,3.883919719,0.0
12.111029,-0.04222698346,-1.669680616,1.445082046,2.208591994,0.0
12.121066,0.03419656366,-1.053163061,-0.4422225809,1.142752226,0.0
12.131103,-0.4939012961,-0.5684949571,-0.569902455,0.9444118883,0.0
12.14114,-1.476118043,-0.2224251598,-1.252244382,1.948464375,0.0
12.151178,-1.630512165,-0.5917610282,-2.811122015,3.303204205,0.0
12.161215,-1.674371983,-1.629816638,-3.297755368,4.041659842,0.0
12.171252,-1.753985479,-2.558669064,-2.298672035,3.860977281,0.0
12.181289,-1.905733004,-3.409324921,-0.3656866211,3.922886871,0.0
12.191327,-2.945446007,-4.167820473,0.7842139453,5.163465037,0.0
12.201364,-4.011178828,-4.99114352,0.5571513587,6.427401253,0.0
12.211401,-5.014351704,-5.614967755,-0.8053241479,7.571006068,0.0
12.221439,-5.270790117,-5.405465527,-1.891960472,7.783302669,0.0
12.231476,-3.73599775,-4.269835675,-1.690430191,5.920027881,0.0
12.241513,-1.995691686,-3.148607515,-1.777672842,4.129967956,0.0
12.25155,-0.4343474047,-2.182263912,-2.090155355,3.052815562,0.0
12.261588,0.9203505743,-1.184331896,-3.274437549,3.601614705,0.0
12.271625,1.847174893,-1.27544321,-5.390410116,5.839120797,0.0
12.281662,4.016400391,-1.272756414,-5.577338583,6.989855983,0.0
12.291699,5.264403203,-1.356637647,-3.713810782,6.583828469,0.0
12.301737,5.26271979,-1.47407371,-2.216346747,5.897567786,0.0
12.311774,4.166391413,-0.9016669661,-2.420302015,4.902008014,0.0
12.321811,1.962917019,0.9466712308,-3.142774917,3.824429869,0.0
12.331848,0.0307141082,2.705414296,-4.466171143,5.221771208,0.0
12.341886,-2.060032985,3.928964637,-4.600163013,6.390774504,0.0
12.351923,-1.79828033,5.228859149,-4.52652201,7.14592063,0.0
12.36196,-1.102994787,6.039355744,-5.52182044,8.257173625,0.0
12.371997,-1.17594348,6.508956742,-5.693606374,8.727342922,0.0
12.382035,-1.245271139,7.442882212,-5.616902014,9.407272935,0.0
12.392072,-1.012430918,7.946388291,-5.881228906,9.937754107,0.0
12.402109,-1.053425309,7.417897645,-5.876194453,9.521794558,0.0
12.412146,-0.6202248354,6.515217941,-6.009605695,8.885274575,0.0
12.422184,-0.3687913464,5.993202501,-5.676869304,8.263251682,0.0
12.432221,-0.201153574,5.579236005,-4.865618418,7.405577611,0.0
12.442258,-0.008639699668,5.62162598,-4.114174023,6.966288911,0.0
12.452295,-0.06761486292,6.146008957,-3.147818726,6.905560122,0.0
12.462333,0.0104815726,6.295356785,-1.588626512,6.492716004,0.0
12.47237,0.4796773593,5.562922273,-0.09661676019,5.58440054,0.0
12.482407,1.4024671,4.327833037,1.867462393,4.917770689,0.0
12.492445,1.73161944,2.22219981,3.354622464,4.380658599,0.0
12.502482,1.613323251,-0.8388497436,5.615006347,5.902099379,0.0
12.51251871,1.148786087,-4.739730204,8.970180788,10.21023483,0.0
12.52255571,1.103197393,-9.535517664,13.88431882,16.87949794,0.0
12.53259371,3.006077833,-15.46893999,13.7605777,20.9207578,0.0
12.54263071,3.844949796,-18.72622502,6.130492201,20.07580825,0.0
12.55266771,1.742029384,-14.54940451,1.95001543,14.78250311,0.0
12.56270471,0.762669733,-5.85430774,3.004750807,6.624432931,0.0
12.57274271,-1.338786536,1.33258454,4.010467806,4.433055715,0.0
12.58277971,-4.624763711,5.127752604,5.785136349,9.008334403,0.0
12.59281671,-7.033049698,4.797436375,4.223853171,9.50368978,0.0
12.60285371,-7.470024987,2.842767146,-1.202822546,8.082659243,0.0
12.61289171,-6.971791343,-0.004195377231,-6.648431547,9.633666704,0.0
12.62292871,-5.865796934,-3.686748991,-7.420638235,10.15212114,0.0
12.63296571,-4.430148202,-6.735929282,-2.008723229,8.30866568,0.0
12.64300271,-1.234895401,-6.586706584,3.299154607,7.469544256,0.0
12.65304071,-0.4218777788,-3.2755646,2.624001759,4.21813816,0.0
12.66307771,-2.817020102,2.354217076,-1.99823274,4.179817505,0.0
12.67311471,-3.738909663,6.549825271,-5.258194045,9.193925232,0.0
12.68315271,-2.895790867,7.196681689,-5.092969857,9.279880066,0.0
12.69318971,-1.437066098,4.747447944,-5.39113634,7.325829099,0.0
12.70322671,0.3419071645,1.641500545,-4.175376245,4.499465672,0.0
12.71326371,1.586343467,-1.14215476,-3.52220308,4.028264841,0.0
12.72330171,1.580342323,-1.999951236,-5.386241051,5.958932745,0.0
12.73333871,0.7882765907,-1.162805371,-6.754859058,6.899392524,0.0
12.74337571,0.4953515518,-1.022694975,-6.163573408,6.267448869,0.0
12.75341271,0.9528879905,-0.4365554595,-5.134889715,5.240769846,0.0
12.76345071,1.603408858,-0.688075195,-4.507295195,4.833226399,0.0
12.77348771,2.212792225,-2.208789221,-3.260802427,4.517524955,0.0
12.78352471,2.984514179,-3.604447677,-0.484908717,4.704732128,0.0
12.79356171,2.219465652,-2.62090215,1.388861652,3.704604236,0.0
12.80359971,0.2325414276,-1.514095563,0.5159312658,1.616399072,0.0
12.81363671,-0.8498357847,-1.047818121,-0.259776881,1.373909642,0.0
12.82367371,-0.8812981904,-0.9128269619,0.3118061368,1.306584337,0.0
12.83371071,-0.8318523806,-0.5765541744,0.5825323677,1.16779153,0.0
12.84374871,-0.0504986009,0.06023976982,-0.2771844806,0.288114864,0.0
12.85378571,1.150655442,0.6665632886,-1.148876573,1.757336605,0.0
12.86382271,2.10170653,1.074173276,-1.622223444,2.864022951,0.0
12.87385971,1.721808543,0.9033708447,-0.6660715377,2.055323536,0.0
12.88389771,1.412461307,0.9525751644,-0.02183584213,1.703796699,0.0
12.89393471,1.570776132,1.057088882,0.6333569509,1.996475792,0.0
12.90397171,1.64898118,1.087864532,0.6973046594,2.094951541,0.0
12.91400971,1.409367545,0.6911338735,0.5802969041,1.673537393,0.0
12.92404671,1.767073301,0.3189188361,0.3539003885,1.830164682,0.0
12.93408371,1.737929317,0.4466103315,-0.6821747696,1.919693078,0.0
12.94412071,0.8834397331,0.9875853682,-0.9978425539,1.658758688,0.0
12.95415871,0.4362785938,1.697851916,-1.376725171,2.22899357,0.0
12.96419571,0.00476314187,2.348983818,-1.692504637,2.895223586,0.0
12.97423271,-0.09114449725,2.943470233,-1.471612033,3.292106667,0.0
12.98426971,-0.2359018224,3.359621834,-1.225648906,3.583981553,0.0
12.99430771,-0.2292756115,3.593436785,-0.5983770796,3.650124705,0.0
13.00434471,-0.2422782111,3.413146076,-0.06177232504,3.422291731,0.0
13.01438171,-0.5579044801,2.897881247,0.1204456989,2.953553842,0.0
13.02441871,-1.43013437,1.953750046,0.1901081836,2.428696087,0.0
13.03445671,-2.458159812,0.5857600307,0.6832426174,2.617725148,0.0
13.04449371,-3.522407148,-0.8144311863,2.242357063,4.254270263,0.0
13.05453071,-3.664198034,-1.432291262,5.248605781,6.559395409,0.0
13.06456771,-3.018105848,-1.501820503,8.528199112,9.170311218,0.0
13.07460571,-1.609019408,-1.720461929,9.67022231,9.952996143,0.0
13.08464271,0.586206758,-2.213989735,7.950114137,8.27343361,0.0
13.09467971,3.43283219,-2.447556179,5.677426543,7.07163632,0.0
13.10471771,5.322039793,-3.115509936,4.082744654,7.395898433,0.0
13.11475471,6.00692767,-3.808937672,3.298857276,7.840513092,0.0
13.12479171,6.241576434,-3.890301678,2.709813741,7.838036364,0.0
13.13482871,5.854647464,-4.148889527,1.489874349,7.328704306,0.0
13.14486671,4.981143027,-4.486571494,0.7270042026,6.743118324,0.0
13.15490371,3.289574529,-4.261555433,1.43461436,5.571379869,0.0
13.16494071,1.102012601,-3.774720351,2.125309693,4.469886664,0.0
13.17497771,-0.3355448091,-3.617787514,2.739309144,4.550251796,0.0
13.18501571,-0.5627895364,-3.252499673,3.436481144,4.764964726,0.0
13.19505271,-0.7496592396,-2.557077452,3.711285077,4.568836941,0.0
13.20508971,-1.015848908,-2.544457406,3.945871861,4.803760739,0.0
13.21512671,-0.8360308009,-2.647317531,3.934129775,4.815040467,0.0
13.22516471,-0.4199319716,-2.617054097,3.904158994,4.718874067,0.0
13.23520171,-0.1950496656,-2.622117201,3.874372108,4.682339396,0.0
13.24523871,-0.0609450902,-2.258687021,2.876982129,3.658197306,0.0
13.25527571,0.02118416995,-1.758606825,1.181867221,2.118951832,0.0
13.26531371,-0.09219568044,-1.16031972,-0.2974689102,1.201386552,0.0
13.27535071,-0.5628108788,-0.8048335665,-1.856704978,2.100444365,0.0
13.28538771,-1.860195181,-1.216941233,-3.776782079,4.382391464,0.0
13.29542571,-3.501850092,-1.920784029,-5.318304006,6.651069302,0.0
13.30546271,-4.865969251,-2.756653447,-5.346869994,7.737300156,0.0
13.31549971,-5.760235396,-3.580655941,-2.98498371,7.410231881,0.0
13.32553671,-5.76817533,-4.128616061,1.111560227,7.18003366,0.0
13.33557471,-5.862227794,-4.538929217,3.663720902,8.269851509,0.0
13.34561171,-6.621211588,-5.282913734,2.22669398,8.758298151,0.0
13.35564871,-6.752966899,-5.406678824,-0.4996013081,8.665122002,0.0
13.36568571,-5.177868505,-4.339898182,-1.978040696,7.039721832,0.0
13.37572371,-2.393553488,-2.823472504,-2.337960208,4.378030746,0.0
13.38576071,0.04039095774,-2.023114981,-3.081214846,3.686259701,0.0
13.39579771,1.630253133,-1.566111224,-3.465811363,4.137907448,0.0
13.40583471,2.757712378,-0.9167720783,-3.514665142,4.560517478,0.0
13.41587271,3.365955245,-0.2662102801,-3.735328828,5.035196528,0.0
13.42590971,4.333429115,-0.3778652018,-4.065466717,5.953940681,0.0
13.43594671,5.060669253,-1.253975158,-3.654919088,6.367201938,0.0
13.44598371,4.637650975,-0.6629134566,-3.444478381,5.814782209,0.0
13.45602171,2.595393087,0.7717085052,-2.822401879,3.911208465,0.0
13.46605871,-0.02639374673,2.829962913,-3.019180566,4.138216767,0.0
13.47609571,-1.784901608,4.216748219,-3.626101086,5.840843122,0.0
13.48613271,-1.896612517,5.039670732,-4.680832662,7.134817064,0.0
13.49617071,-1.988618017,5.412354131,-5.166635419,7.742241304,0.0
13.50620771,-1.649391216,5.778647109,-4.839045746,7.71554389,0.0
13.51624458,-1.470458377,5.909092058,-5.4291678,8.15815419,0.0
13.52628258,-0.8554241149,6.391090323,-6.061961664,8.850150572,0.0
13.53631958,-0.9528135847,6.431594571,-5.980484222,8.833994226,0.0
13.54635658,-1.055183713,6.613333635,-5.712367165,8.802314074,0.0
13.55639358,-0.5565395938,6.891739452,-5.686686779,8.952330173,0.0
13.56643158,0.1333330353,6.946316194,-5.542752888,8.887699136,0.0
13.57646858,0.641772556,7.066647214,-4.791499112,8.561999685,0.0
13.58650558,0.5238378708,7.122981629,-3.702253468,8.04474699,0.0
13.59654258,0.7161095242,7.129451573,-2.651179032,7.640068249,0.0
13.60658058,1.327160371,6.321253518,-0.8990392274,6.521339757,0.0
13.61661758,1.89944944,4.744485744,1.16366842,5.241390783,0.0
13.62665458,1.887118831,2.506399049,3.638349541,4.804252393,0.0
13.63669158,1.269952821,-0.7667366177,6.293299735,6.465778125,0.0
13.64672958,0.4310441664,-5.189086972,8.226679251,9.736050235,0.0
13.65676658,1.411153869,-10.10265665,11.08421588,15.06369371,0.0
13.66680358,1.026026279,-15.80103845,11.24023713,19.41825113,0.0
13.67684058,0.4521317111,-17.88270101,8.266600531,19.70614379,0.0
13.68687858,-0.0717830506,-13.64154827,4.486610085,14.36059407,0.0
13.69691558,-0.7650822942,-5.970569099,4.047598503,7.253695604,0.0
13.70695258,-1.730657866,0.8496548134,4.156505818,4.58188068,0.0
13.71699058,-4.028598268,5.380297356,4.56133984,8.122993585,0.0
13.72702758,-6.09992822,6.17953923,4.007727216,9.56335228,0.0
13.73706458,-6.826386293,4.342047619,0.9624253839,8.147342509,0.0
13.74710158,-4.760920221,1.475053704,-3.349272262,6.004978723,0.0
13.75713958,-2.676537237,-2.293018947,-6.635734903,7.513638611,0.0
13.76717658,-2.524872158,-5.739502923,-3.637256404,7.248896976,0.0
13.77721358,-1.467283924,-7.376823294,2.291851258,7.862761996,0.0
13.78725058,-1.481825364,-6.012859086,2.08618188,6.534710065,0.0
13.79728858,-3.936215477,-0.9779637748,-2.139326053,4.585512118,0.0
13.80732558,-4.475620244,3.092002375,-4.316648483,6.944430097,0.0
13.81736258,-3.004280106,5.024091995,-5.85742723,8.281102166,0.0
13.82739958,-2.087932097,4.58686586,-5.236892053,7.268000911,0.0
13.83743758,-1.165589523,3.257378005,-3.658333277,5.03512788,0.0
13.84747458,0.4711787237,1.14908371,-3.082434868,3.323222454,0.0
13.85751158,1.013930583,-0.2363596594,-4.679736602,4.794148076,0.0
13.86754858,0.7099923134,-0.8294684708,-5.942925217,6.042389194,0.0
13.87758658,0.8343856868,-1.076309849,-5.8035083,5.961153492,0.0
13.88762358,1.33995057,-1.108048536,-5.337182327,5.613265919,0.0
13.89766058,1.978917047,-1.984949035,-5.239811568,5.94236995,0.0
13.90769858,2.590679061,-3.828404807,-4.930842939,6.758810062,0.0
13.91773558,3.724871083,-5.641348053,-4.288743524,8.00579749,0.0
13.92777258,4.307765101,-3.898807037,-3.062247064,6.567716008,0.0
13.93780958,2.698628603,-0.678902083,-0.1168185979,2.785166235,0.0
13.94784758,0.6173382112,0.2089216,2.910314181,2.98239557,0.0
13.95788458,-0.2279978487,-0.5490032637,2.78945048,2.852090739,0.0
13.96792158,-0.6138538554,-0.7645047355,1.894450947,2.133126447,0.0
13.97795858,-1.402854916,-0.02997165799,0.01631957889,1.403269947,0.0
13.98799658,-1.306339605,0.6992275894,-1.505284978,2.112184947,0.0
13.99803358,-0.07767324328,1.633057165,-2.024033725,2.601849603,0.0
14.00807058,0.8728439936,1.871595497,-1.54449626,2.578797208,0.0
14.01810758,1.51003321,2.455095579,-1.610149675,3.301556689,0.0
14.02814558,1.777932458,2.053907003,-1.500814197,3.103549751,0.0
14.03818258,1.310481773,0.5790573674,0.05980247118,1.433961731,0.0
14.04821958,1.094726824,0.6519318008,1.141662424,1.710799516,0.0
14.05825658,1.567295285,1.684645979,0.4673288438,2.347944385,0.0
14.06829458,1.550834203,1.442620368,-0.38619171,2.152994261,0.0
14.07833158,1.351975808,1.121270844,-0.9814019376,2.012023025,0.0
14.08836858,1.006378173,1.347811275,-1.073054704,1.995203914,0.0
14.09840658,0.5353893377,1.411954061,-0.2819001138,1.536139215,0.0
14.10844358,0.4384395786,1.566431651,0.2455538213,1.645063543,0.0
14.11848058,0.3717721108,1.7630396,0.4726105607,1.862762431,0.0
14.12851758,0.2737752615,2.120165897,0.7297278357,2.258884468,0.0
14.13855558,0.01275584713,2.474484946,1.138050672,2.723673584,0.0
14.14859258,-0.5965364492,2.397926767,1.547871419,2.915787106,0.0
14.15862958,-1.457063283,2.074382783,1.98723822,3.221057759,0.0
14.16866658,-2.615343786,1.252802791,3.188187318,4.309765229,0.0
14.17870458,-3.955516258,-0.3357594019,5.039333932,6.415117281,0.0
14.18874158,-4.170066973,-1.65755466,6.5889104,7.97186843,0.0
14.19877858,-2.944622719,-1.934941308,6.934686667,7.778475428,0.0
14.20881558,-0.9170970373,-1.909712327,5.843381048,6.215558722,0.0
14.21885358,1.204794812,-2.047280354,4.144713446,4.777189229,0.0
14.22889058,3.402408834,-2.156306368,2.817662126,4.915817621,0.0
14.23892758,5.409883683,-2.176481016,1.954534743,6.150131473,0.0
14.24896458,6.399790395,-2.196415928,1.266234138,6.883669728,0.0
14.25900258,7.020160096,-2.690270008,1.234114505,7.618611363,0.0
14.26903958,6.576064067,-4.074590712,1.692588837,7.919076023,0.0
14.27907658,5.3837133,-5.094208297,1.428981299,7.54833191,0.0
14.28911458,3.835628749,-5.077013975,1.43448309,6.5227188,0.0
14.29915158,1.614401624,-4.657783815,2.354734554,5.463150876,0.0
14.30918858,-0.6383523734,-4.567151973,3.570757774,5.832382187,0.0
14.31922558,-2.530688383,-4.334995292,3.105037572,5.902357681,0.0
14.32926358,-3.110891512,-3.198645648,4.98570444,6.690756963,0.0
14.33930058,-2.688095136,-2.289479628,6.204653606,7.138998445,0.0
14.34933758,-1.603821672,-2.388141451,5.136505301,5.887202243,0.0
14.35937458,-0.03838638604,-2.806612058,3.944365618,4.841132604,0.0
14.36941258,0.9814149477,-2.957331058,3.194647322,4.462594962,0.0
14.37944958,1.037380257,-2.483352833,2.552551707,3.709274769,0.0
14.38948658,0.5117246327,-1.644796035,1.89839431,2.563419016,0.0
14.39952358,0.2829568519,-1.24600131,1.378898581,1.879879023,0.0
14.40956158,0.4150185563,-0.6988919592,-0.3474742619,0.8839845787,0.0
14.41959858,-0.2126895458,-0.1444846988,-2.707512277,2.719693991,0.0
14.42963558,-1.375053306,-0.7949166888,-3.509030473,3.851747525,0.0
14.43967358,-2.00060057,-2.311128944,-3.911555722,4.964271124,0.0
14.44971058,-2.16253336,-3.636699749,-2.546719694,4.938412376,0.0
14.45974758,-2.775151114,-4.374972705,-0.2026136237,5.184872434,0.0
14.46978458,-3.656176239,-4.848326447,1.041907902,6.161125393,0.0
14.47982258,-4.757667122,-5.150045114,0.4595535819,7.02634689,0.0
14.48985958,-5.435862862,-5.134074029,0.2919261883,7.482816454,0.0
14.49989658,-5.163129428,-4.381636192,-0.3419492644,6.780381295,0.0
14.50993358,-3.825135044,-3.027756093,-1.389869858,5.072544064,0.0
14.51997221,-2.783340724,-1.647647138,-1.762470373,3.683480486,0.0
14.53000921,-1.865117952,-0.35650123,-2.760434549,3.350486084,0.0
14.54004621,-0.1731011184,0.6744166839,-3.868184584,3.930350346,0.0
14.55008321,2.754466588,0.6306485206,-6.456699007,7.047961819,0.0
14.56012121,4.400244079,-0.1785839063,-6.725480307,8.0390376,0.0
14.57015821,5.574253592,-0.6821315002,-3.74395581,6.749430465,0.0
14.58019521,6.01072836,-1.109060104,-2.515455217,6.609567662,0.0
14.59023221,5.476850674,-1.308763568,-2.609541594,6.206324413,0.0
14.60027021,2.904226061,-0.3010538381,-2.761267485,4.018676467,0.0
14.61030721,0.6038236879,2.164265597,-3.398298241,4.073951345,0.0
14.62034421,-0.5473525947,4.378878061,-4.191287103,6.086136337,0.0
14.63038221,-1.023082645,5.664966127,-5.44161009,7.921468279,0.0
14.64041921,-1.62074366,5.861033208,-5.801144271,8.404272433,0.0
14.65045621,-1.522998679,6.053715336,-5.819466521,8.534236049,0.0
14.66049321,-1.526428218,6.776103746,-5.969048823,9.158335489,0.0
14.67053121,-1.572433379,7.229015622,-6.157483533,9.625269713,0.0
14.68056821,-1.366854779,7.258114291,-6.457577258,9.81064825,0.0
14.69060521,-0.9608561374,6.946013893,-6.443067393,9.522786932,0.0
14.70064221,-0.7007328089,6.703178442,-5.967463642,9.001902578,0.0
14.71068021,-0.6481140076,6.956354109,-4.97112967,8.574557974,0.0
14.72071721,-0.5004930085,7.063078074,-3.977708781,8.121559719,0.0
14.73075421,-0.060397937,6.595935245,-2.872584438,7.19456399,0.0
14.74079121,0.625600327,5.766289018,-1.507425936,5.992812175,0.0
14.75082921,1.358655667,4.433160687,0.4153499472,4.655252354,0.0
14.76086621,1.245954971,2.382557361,2.224065364,3.489333763,0.0
14.77090321,0.288278549,-0.08385491967,5.614756086,5.622777078,0.0
14.78094121,-1.078233437,-3.971439396,9.609503068,10.45358634,0.0
14.79097821,-0.4724253501,-9.040923911,11.97496434,15.01203723,0.0
14.80101521,0.8946589319,-15.09748041,14.15954024,20.71779209,0.0
14.81105221,1.608096132,-18.87291412,10.79532367,21.80164841,0.0
14.82109021,2.837008516,-15.25140018,3.872250446,15.98900085,0.0
14.83112721,3.521507846,-7.228365996,2.877871198,8.540048894,0.0
14.84116421,2.549859649,0.6019766986,4.042401205,4.817174242,0.0
14.85120121,0.5195803669,6.562058231,4.437850739,7.938834371,0.0
14.86123921,-2.710708365,9.631563444,4.724014642,11.0648664,0.0
14.87127621,-4.125533117,7.322410274,1.87566282,8.611377749,0.0
14.88131321,-4.211091623,2.588616164,-4.271840977,6.533211433,0.0
14.89135021,-5.285737939,-0.5404090261,-8.255356336,9.817432236,0.0
14.90138821,-5.089230562,-3.619720019,-8.350322134,10.42739279,0.0
14.91142521,-4.643504622,-7.847701324,-0.8574479824,9.158808235,0.0
14.92146221,-4.987602446,-10.49125559,6.014316212,13.08107876,0.0
14.93149921,-5.885361133,-7.28724395,4.173914441,10.25489941,0.0
14.94153721,-6.236363642,0.03007983148,-2.682203774,6.788766703,0.0
14.95157421,-5.074238886,5.539400679,-5.702017593,9.431111535,0.0
14.96161121,-3.963868421,6.58671477,-5.237116002,9.301851877,0.0
14.97164921,-2.906195403,5.026306336,-4.604576492,7.410253152,0.0
14.98168621,0.6445922296,2.006917024,-3.793934009,4.340178608,0.0
14.99172321,3.360504178,-1.093040487,-5.503112859,6.540028821,0.0
15.00176021,3.198856732,-2.268275869,-6.789359969,7.840482677,0.0
15.01179821,1.798283107,-2.489688876,-7.024870613,7.666888545,0.0
15.02183521,1.764890536,-2.210589579,-6.664891459,7.24032617,0.0
15.03187221,2.369584728,-2.508605204,-6.033334281,6.950478717,0.0
15.04190921,2.894291056,-3.667678882,-5.222131927,7.007100039,0.0
15.05194721,3.420399547,-4.542621149,-5.069079888,7.617749725,0.0
15.06198421,3.175491551,-2.904652323,-4.834045208,6.472151479,1.0
15.07202121,1.694838261,-0.5550463611,-2.685860623,3.224034813,1.0
15.08205821,-0.8481143644,0.3233831853,1.577041424,1.819597294,1.0
15.09209621,-3.159870422,0.3036096561,3.436192877,4.678074539,1.0
15.10213321,-3.223777273,0.2768674153,1.527575149,3.578111416,1.0
15.11217021,-2.694528243,0.5796385807,0.4325033391,2.789896499,1.0
15.12220721,-2.117229718,0.4060499507,0.5443364547,2.223474852,1.0
15.13224521,-1.36444441,0.6387673795,0.03024589241,1.506866659,1.0
15.14228221,-0.2012525381,1.339102432,-0.4989050509,1.443123056,1.0
15.15231921,0.7939505826,1.851237246,-0.9046006604,2.208107612,1.0
15.16235621,0.9515540944,1.110266969,-0.816212906,1.674619791,1.0
15.17239421,1.552170146,0.1354694617,0.07149047054,1.559709917,1.0
15.18243121,2.154684058,0.4845634389,-0.06160165943,2.209357345,1.0
15.19246821,3.100559775,1.489825525,-1.051628167,3.597078372,1.0
15.20250621,3.760995181,2.174826838,-2.045800424,4.802109526,1.0
15.21254321,3.584708646,2.045189974,-1.865848854,4.529274782,1.0
15.22258021,2.772184821,1.949641793,-1.054731284,3.54944642,1.0
15.23261721,2.136589118,2.109702305,0.006378124561,3.002648423,1.0
15.24265521,1.571330741,2.414779612,1.15596296,3.104269839,1.0
15.25269221,0.7258123939,2.632721127,1.64766234,3.189485123,1.0
15.26272921,-0.3708884503,2.652199956,1.803340949,3.22858505,1.0
15.27276621,-1.369515993,2.294078463,2.795841486,3.867182394,1.0
15.28280421,-2.601936121,1.568172367,4.074890674,5.082712874,1.0
15.29284121,-3.65357072,0.7185555607,5.386931022,6.548582056,1.0
15.30287821,-4.37035282,-0.08173764288,6.516089761,7.846406221,1.0
15.31291621,-4.223650565,-0.7546065688,6.061176968,7.426070388,1.0
15.32295321,-2.347585164,-0.8985199946,4.400957147,5.068226326,1.0
15.33299021,-0.01392821386,-1.584704785,4.177533867,4.468027805,1.0
15.34302721,1.615619014,-2.868544596,4.143772921,5.292412203,1.0
15.35306521,3.417030382,-3.646341807,4.019038948,6.412844865,1.0
15.36310221,5.299825051,-3.409759369,3.834141802,7.376669159,1.0
15.37313921,6.273717409,-2.941930076,3.058334692,7.57415961,1.0
15.38317621,6.094550536,-3.057611391,2.228890779,7.17359657,1.0
15.39321421,5.632254463,-3.325799784,1.608528242,6.735770012,1.0
15.40325121,4.420943222,-3.221517032,1.505308513,5.673523128,1.0
15.41328821,2.262253091,-3.274413868,1.867694381,4.396345929,1.0
15.42332521,0.3122397079,-3.222725067,2.750467093,4.248354943,1.0
15.43336321,-1.436397615,-2.951086231,3.132120706,4.536775085,1.0
15.44340021,-2.736850682,-3.078777142,3.788069544,5.5963105,1.0
15.45343721,-3.076884983,-2.97490311,4.80192996,6.432402433,1.0
15.46347421,-1.906832573,-2.352049513,5.594249901,6.361114629,1.0
15.47351221,0.2398627263,-2.178948541,4.557043891,5.056876496,1.0
15.48354921,1.799395979,-2.530213589,2.818083125,4.19301791,1.0
15.49358621,2.434237245,-2.79591867,2.824243752,4.660367469,1.0
15.50362421,2.420499651,-2.62337903,3.175791221,4.777717653,1.0
15.51366108,1.85808112,-1.719817566,1.644489641,3.019036947,1.0
15.52369808,1.619697447,-0.9300119287,-0.3562813747,1.901388552,1.0
15.53373508,1.206502199,-0.7894653296,-1.963026069,2.43564661,1.0
15.54377308,0.08682764411,-2.008194056,-3.211943386,3.789058289,1.0
15.55381008,-1.123958078,-3.356663142,-4.695463858,5.880293364,1.0
15.56384708,-2.134930994,-4.092460973,-4.779840349,6.644775461,1.0
15.57388408,-2.766345792,-4.65477133,-2.094699519,5.805801516,1.0
15.58392208,-3.38515487,-5.075097842,1.439073447,6.267920228,1.0
15.59395908,-4.89056147,-5.554742603,2.286294649,7.745960244,1.0
15.60399608,-6.243143488,-5.666406296,0.001538256258,8.431192282,1.0
15.61403308,-6.181978104,-5.222416102,-1.621880359,8.253543428,1.0
15.62407108,-4.841959414,-4.536565188,-1.436215328,6.788792907,1.0
15.63410808,-3.025130985,-3.513476695,-0.4936049885,4.66257245,1.0
15.64414508,-2.209078074,-2.53918965,-0.762756418,3.450986434,1.0
15.65418308,-0.5652732874,-1.528949829,-2.969602609,3.38758928,1.0
15.66422008,0.700611333,-0.2453479993,-4.940430619,4.995888968,1.0
15.67425708,3.435590029,0.7541832304,-5.372366778,6.421401403,1.0
15.68429408,4.906108632,0.8359126872,-4.421263357,6.657043008,1.0
15.69433208,5.229891767,-0.01162017167,-4.803264587,7.100933292,1.0
15.70436908,5.814895753,0.08240422547,-3.483222909,6.77883802,1.0
15.71440608,4.706318921,0.7244600791,-2.861349013,5.555321626,1.0
15.72444308,2.918390356,1.714115946,-3.328116159,4.746741294,1.0
15.73448108,1.379657257,3.01750183,-4.520243855,5.607261002,1.0
15.74451808,0.150020404,4.353330991,-5.390584947,6.930541314,1.0
15.75455508,-0.6972497687,5.413253433,-5.992476861,8.105507319,1.0
15.76459208,-1.23321915,6.007355686,-6.280297866,8.777886596,1.0
15.77463008,-1.578825409,6.553642334,-6.704067804,9.50723107,1.0
15.78466708,-1.650798348,6.828361482,-7.308053021,10.13702593,1.0
15.79470408,-1.49669191,6.889589431,-7.561733302,10.338585,1.0
15.80474108,-1.527352955,6.919143013,-7.22913666,10.12263621,1.0
15.81477908,-1.710442872,6.949874809,-6.556283521,9.706246869,1.0
15.82481608,-1.461449718,7.105549909,-5.688225181,9.218491227,1.0
15.83485308,-1.07958619,6.994573849,-4.778602493,8.539590826,1.0
15.84489108,-0.770359991,6.598965856,-3.612831999,7.562563054,1.0
15.85492808,-0.0964936763,6.164233559,-2.165944918,6.534401563,1.0
15.86496508,0.07174036592,5.278333025,-0.811136865,5.340776087,1.0
15.87500208,0.1396271244,3.585835404,0.9927040207,3.723328156,1.0
15.88504008,-0.1693280563,1.405608662,2.184058422,2.602790598,1.0
15.89507708,-0.982984048,-0.7381326234,5.934653161,6.060627488,1.0
15.90511408,-2.184509097,-4.493934892,9.759470116,10.96425044,1.0
15.91515108,-0.5762242453,-9.239760818,12.75403332,15.75977729,1.0
15.92518908,2.432793568,-15.12344439,15.44713221,21.75433171,1.0
15.93522608,3.904920301,-19.33987042,11.13789332,22.65682365,1.0
15.94526308,4.350672846,-15.50211358,3.286135781,16.43297198,1.0
15.95530008,3.468171884,-6.620278373,2.705719521,7.948409909,1.0
15.96533808,1.480479335,1.551086803,4.493023896,4.978448861,1.0
15.97537508,-0.4445266762,7.4775065,5.59161456,9.347559083,1.0
15.98541208,-2.770521873,10.04564981,6.316098028,12.1853997,1.0
15.99544908,-3.302621421,7.035984415,2.919002559,8.302587602,1.0
16.00548708,-3.009333855,2.344507189,-3.671754976,5.294769949,1.0
16.01552408,-3.399467685,-0.7358703357,-8.589015418,9.266556617,1.0
16.02556108,-2.013012454,-3.534284597,-9.418635916,10.25934156,1.0
16.03559908,-0.8358457366,-6.999247529,-3.553789154,7.894144755,1.0
16.04563608,-3.843363739,-9.427972165,4.009156861,10.94218638,1.0
16.05567308,-7.35301694,-7.761298188,4.546818865,11.61801056,1.0
16.06571008,-7.103285283,-2.407855339,-1.571193916,7.663098555,1.0
16.07574808,-4.607186396,3.287610449,-6.443013598,8.575953194,1.0
16.08578508,-4.529257922,3.966739404,-6.589327891,8.925717948,1.0
16.09582208,-4.745451412,2.693847919,-3.512385605,6.489451314,1.0
16.10585908,-1.289870922,1.403142892,-4.929534917,5.285157658,1.0
16.11589708,1.117223402,-0.3364721775,-6.534080474,6.637439965,1.0
16.12593408,1.014671718,-0.8477532989,-6.489771443,6.623094272,1.0
16.13597108,1.192489639,-0.9010302043,-6.223646532,6.400598654,1.0
16.14600808,1.974779265,-0.7303254211,-6.291995221,6.634932722,1.0
16.15604608,2.722308072,-1.36524124,-5.839785596,6.586193186,1.0
16.16608308,3.319607583,-2.509078828,-5.385105522,6.805485475,1.0
16.17612008,3.909648652,-3.619523553,-5.010948624,7.314089789,1.0
16.18615708,3.816904211,-3.018283603,-5.273490361,7.175548359,1.0
16.19619508,2.885182264,-1.026551798,-4.54341637,5.479116498,1.0
16.20623208,1.457419671,0.2814504629,-1.9410401,2.443547243,1.0
16.21626908,-0.6428706631,0.7325438547,1.936169077,2.167637858,1.0
16.22630708,-2.681392765,0.8397402745,5.285096499,5.985589018,1.0
16.23634408,-2.338314403,0.5804414034,4.728870755,5.307244585,1.0
16.24638108,-0.7379554528,0.5487144113,2.902715725,3.044901367,1.0
16.25641808,0.2224467945,0.8651259613,0.4946609225,1.021085174,1.0
16.26645608,0.8846503991,0.3632173419,-1.483932116,1.765385989,1.0
16.27649308,1.508850318,-0.01957004607,-1.1345172,1.887893415,1.0
16.28653008,1.66915422,0.3574081331,-0.6206497818,1.816321154,1.0
16.29656708,1.022654629,0.233890965,0.3400062346,1.10278362,1.0
16.30660508,1.098717403,1.107285474,1.021102778,1.864379772,1.0
16.31664208,1.495993022,2.184512166,1.023193157,2.83848776,1.0
16.32667908,1.758234504,2.906083721,0.7106659126,3.470123514,1.0
16.33671608,1.699533137,3.373738182,-0.2236355335,3.784248281,1.0
16.34675408,1.161828448,3.320640201,-0.9180245519,3.635830822,1.0
16.35679108,0.5652173004,2.970944545,-0.8786154878,3.14927726,1.0
16.36682808,0.05768921435,2.578613917,-0.1907151977,2.586300459,1.0
16.37686608,-0.8051968248,1.902664678,0.5922656429,2.149244843,1.0
16.38690308,-1.495745831,1.274309435,1.940982066,2.761979636,1.0
16.39694008,-1.998511944,0.7246220469,3.381940656,3.994577537,1.0
16.40697708,-2.116002387,0.3112975752,4.84428836,5.29542274,1.0
16.41701508,-1.802006029,0.007451691628,5.765234181,6.040298537,1.0
16.42705208,-0.9757180054,-0.2036094046,5.59626719,5.684337154,1.0
16.43708908,0.2811965476,-0.2777257866,5.154772003,5.169901112,1.0
16.44712608,1.349939222,-0.6340089154,4.711988089,4.942381507,1.0
16.45716408,2.301176983,-1.607649259,4.096380361,4.965912173,1.0
16.46720108,3.513245438,-2.859721733,3.546150352,5.752919625,1.0
16.47723808,5.512547926,-3.473456597,3.355635202,7.328940781,1.0
16.48727508,7.001674708,-3.264128031,3.117943254,8.330639271,1.0
16.49731308,6.834973513,-3.333685339,2.796699858,8.102582981,1.0
16.50735008,5.966377814,-4.178445448,2.374469053,7.661277561,1.0
16.51738671,5.001827552,-4.797672603,2.437221226,7.346835276,1.0
16.52742371,3.2410403,-5.010499558,2.720355394,6.558184316,1.0
16.53746171,1.445415629,-5.237534078,2.526424009,5.991978624,1.0
16.54749871,0.2391391334,-5.213801984,3.128711779,6.085207971,1.0
16.55753571,-1.01318097,-4.816300662,4.194261582,6.466461008,1.0
16.56757371,-2.192346851,-3.739725934,4.24151644,6.064849255,1.0
16.57761071,-1.574888333,-2.787622055,4.018479077,5.138023363,1.0
16.58764771,0.4788518786,-2.697310055,4.022565111,4.866807036,1.0
16.59768471,0.9091803458,-3.053557516,2.826444644,4.259062307,1.0
16.60772271,0.003690616339,-2.992244782,1.445489012,3.323098094,1.0
16.61775971,-0.5829023503,-2.19555171,0.5831182587,2.345261044,1.0
16.62779671,-1.746389068,-1.799049093,-0.1895795588,2.51443688,1.0
16.63783371,-2.07284248,-1.692497036,-1.11753155,2.900017057,1.0
16.64787171,-2.432881714,-1.884154147,-3.091080269,4.361619827,1.0
16.65790871,-3.162829698,-2.421791593,-4.804956479,6.241488042,1.0
16.66794571,-3.498072206,-3.399982824,-4.388503162,6.561657745,1.0
16.67798271,-3.342416986,-3.882375777,-1.521807455,5.344201616,1.0
16.68802071,-3.325834283,-4.205212832,1.86163535,5.6754449,1.0
16.69805771,-4.313719028,-4.867985371,2.679966044,7.034747431,1.0
16.70809471,-5.950969816,-5.198565894,-0.03755330399,7.901932634,1.0
16.71813171,-6.605418844,-4.990291581,-2.095711818,8.53970586,1.0
16.72816971,-5.323419151,-3.947820738,-2.242942223,6.996775675,1.0
16.73820671,-3.515222382,-2.390108455,-2.048678423,4.718738189,1.0
16.74824371,-2.221464669,-1.318420245,-2.125595621,3.34533914,1.0
16.75828171,-0.4651451281,-0.7215078199,-2.219591952,2.37981553,1.0
16.76831871,0.4569334446,-0.2552479202,-3.429221241,3.468933265,1.0
16.77835571,1.257108827,0.5258658314,-6.370973563,6.515071881,1.0
16.78839271,2.695079635,1.144025284,-6.521836989,7.148888431,1.0
16.79843071,4.61914483,0.8757754952,-4.965484183,6.838092925,1.0
16.80846771,6.581319544,0.7181041557,-3.662991754,7.566171364,1.0
16.81850471,7.36212047,0.634696548,-4.160168222,8.480015162,1.0
16.82854171,5.371859239,0.5312674892,-4.458840196,7.001455044,1.0
16.83857971,1.951350203,1.86839707,-4.039365331,4.859541903,1.0
16.84861671,-0.2658980387,3.341376767,-4.112913364,5.305804067,1.0
16.85865371,-1.64851311,4.328198488,-4.68746282,6.589628618,1.0
16.86869071,-1.877019082,5.479440991,-5.318204019,7.8632543,1.0
16.87872871,-1.708166404,6.282607516,-6.170839158,8.970409443,1.0
16.88876571,-1.24778398,6.916546265,-6.920729363,9.863674367,1.0
16.89880271,-0.9782939963,7.343278402,-7.139122868,10.28823951,1.0
16.90884071,-0.9811715573,7.660926638,-7.007396793,10.42861949,1.0
16.91887771,-0.851178744,7.828972692,-6.561947134,10.25068139,1.0
16.92891471,-0.5903293374,7.691955473,-6.023239648,9.787445202,1.0
16.93895171,-0.2879587063,7.374303728,-5.013219098,8.921638942,1.0
16.94898971,-0.2928234436,6.728720834,-3.829194181,7.747525909,1.0
16.95902671,-0.1623325936,5.747405435,-2.621844721,6.319263474,1.0
16.96906371,0.3743932714,4.541251731,-0.5430402732,4.588902956,1.0
16.97910071,0.6965548271,3.044301959,1.664969514,3.539079898,1.0
16.98913871,-0.1838174567,1.299453632,4.337766287,4.531951562,1.0
16.99917571,-1.345975834,-1.263092721,8.026939534,8.236432022,1.0
17.00921271,-1.712531497,-5.21967902,9.879633322,11.30420133,1.0
17.01924971,0.6623569478,-10.45217631,12.24540508,16.11324461,1.0
17.02928771,2.172705615,-17.04411907,14.01714066,22.17437433,1.0
17.03932471,2.947254551,-18.70100247,9.568472571,21.21248383,1.0
17.04936171,3.644616002,-13.04269165,3.520476982,13.99245473,1.0
17.05939871,3.863175275,-4.354230877,3.2444732,6.66408704,1.0
17.06943671,2.721153539,2.819118083,5.381943932,6.657133305,1.0
17.07947371,0.3932163356,7.54185043,6.11550988,9.717694587,1.0
17.08951071,-2.050953282,8.046563959,5.161703292,9.777360676,1.0
17.09954871,-2.948845578,4.183590413,0.3913652533,5.133350344,1.0
17.10958571,-3.962832295,0.9908182937,-5.41219918,6.780682905,1.0
17.11962271,-4.868243233,-1.260673728,-9.51225861,10.75974694,1.0
17.12965971,-4.790951813,-4.661781557,-7.587259322,10.11196967,1.0
17.13969771,-3.620020566,-8.660948449,0.5230881116,9.401606145,1.0
17.14973471,-4.796192672,-10.09568209,5.272575856,12.35824895,1.0
17.15977171,-7.457383307,-5.958854787,2.743482009,9.932130169,1.0
17.16980871,-7.582197973,1.422558571,-2.740052325,8.186652901,1.0
17.17984671,-5.124679892,6.371528463,-5.642650813,9.934698141,1.0
17.18988371,-4.011196662,6.65635277,-6.065293407,9.85822068,1.0
17.19992071,-3.666366767,4.854917428,-3.757554387,7.150642172,1.0
17.20995771,-0.5532483423,1.881412387,-3.591744016,4.092239164,1.0
17.21999571,1.990942431,-0.7867563146,-5.638067765,6.030808021,1.0
17.23003271,1.7408041,-1.547883698,-6.653754852,7.049737335,1.0
17.24006971,0.9401548013,-1.644886082,-6.49181563,6.76263347,1.0
17.25010771,1.491615942,-1.631600039,-5.415890527,5.849692899,1.0
17.26014471,2.725851777,-2.310420846,-4.857960612,6.030596463,1.0
17.27018171,3.864446752,-3.879866737,-5.307384331,7.625984725,1.0
17.28021871,4.631428075,-5.01575562,-5.503477725,8.769047698,1.0
17.29025671,4.580830657,-2.845583165,-5.185934739,7.481662393,1.0
17.30029371,3.488388632,-0.255548467,-4.431208302,5.645331459,1.0
17.31033071,2.013592498,0.8593927664,-2.766660372,3.528104348,1.0
17.32036771,-0.2591453817,1.197071809,0.01988477245,1.224962305,1.0
17.33040571,-2.746374042,0.8279300684,3.832217776,4.786849868,1.0
17.34044271,-3.281034378,0.2486908525,4.508211454,5.581308471,1.0
17.35047971,-2.221988141,0.6981242198,3.36599296,4.093228228,1.0
17.36051671,-1.37151691,1.017206778,0.7743788555,1.874948233,1.0
17.37055471,-0.8327202536,0.5196964341,-1.281520221,1.61424951,1.0
17.38059171,0.526381702,0.5472643018,-1.931939932,2.075805341,1.0
17.39062871,2.161148885,0.5641914064,-1.507355477,2.694623718,1.0
17.40066571,2.487575108,1.194753973,-1.003451276,2.936389183,1.0
17.41070371,2.073987804,1.596924881,0.01788539015,2.617616162,1.0
17.42074071,1.650914854,1.661305064,0.7982963794,2.474415382,1.0
17.43077771,1.760035008,1.967621981,0.5975164425,2.706711176,1.0
17.44081571,1.733218069,2.316004352,-0.08129033089,2.893877874,1.0
17.45085271,0.8982059991,2.176195087,-0.2232151186,2.364830662,1.0
17.46088971,0.3546203269,2.268176467,0.07369593065,2.296913397,1.0
17.47092671,-0.3125016631,2.600318196,0.6435211658,2.696930014,1.0
17.48096471,-1.182001342,2.749459618,1.515574908,3.354641958,1.0
17.49100171,-2.081887831,2.526595917,2.093694967,3.886065167,1.0
17.50103871,-2.670242417,2.181718367,2.627496639,4.335184908,1.0
17.51107571,-3.032940234,1.553039773,3.454259019,4.852068051,1.0
17.52111337,-3.070803294,0.4122357202,4.652910161,5.59011128,1.0
17.53115037,-1.777653838,-0.7370403636,5.495346587,5.822552342,1.0
17.54118737,0.3432031998,-1.605399835,5.898248981,6.122453602,1.0
17.55122437,1.733445672,-2.42647989,5.852581058,6.56851152,1.0
17.56126237,2.614157094,-3.094257646,5.078788605,6.496332918,1.0
17.57129937,3.28332444,-3.741534478,4.309705207,6.58428877,1.0
17.58133637,4.903349331,-3.672255498,3.388032285,7.000504115,1.0
17.59137337,6.013743185,-3.239300753,2.207439684,7.178507256,1.0
17.60141137,6.040390701,-2.999577776,1.21992916,6.853613193,1.0
17.61144837,5.551064705,-3.098213287,0.7470464113,6.400884569,1.0
17.62148537,4.672260352,-3.379619896,0.6634446761,5.804481568,1.0
17.63152337,3.10973581,-4.106156906,1.963977704,5.512548391,1.0
17.64156037,1.000608141,-4.556071499,3.4541564,5.804326024,1.0
17.65159737,-1.020322759,-4.07328269,3.606997647,5.535623039,1.0
17.66163437,-2.201776948,-3.870870211,4.151550303,6.088253266,1.0
17.67167237,-1.559408414,-3.247836519,5.04620675,6.200354765,1.0
17.68170937,-1.187303158,-2.535072625,4.56342905,5.353612491,1.0
17.69174637,0.01146492809,-2.647728006,4.293362532,5.04416067,1.0
17.70178337,1.437664268,-2.922797987,3.550808244,4.818492067,1.0
17.71182137,1.653659976,-2.945777544,3.139998075,4.612134491,1.0
17.72185837,0.7998688419,-2.455413083,2.984800107,3.946881713,1.0
17.73189537,-0.2216496728,-1.622999954,1.397757021,2.153365301,1.0
17.74193237,-0.7997640306,-0.8974528778,-0.1826237476,1.215892925,1.0
17.75197037,-0.933045318,-0.7670085132,-1.670990392,2.06181583,1.0
17.76200737,-0.9574836096,-0.5592926091,-4.193328366,4.337463069,1.0
17.77204437,-1.799004946,-1.570029443,-5.773695686,6.247957516,1.0
17.78208237,-2.338840068,-3.875246267,-4.622449091,6.469524101,1.0
17.79211937,-3.532171998,-5.32452252,-1.453619565,6.552845865,1.0
17.80215637,-4.755211877,-6.07277492,2.572410606,8.130678418,1.0
17.81219337,-5.864209415,-6.797902166,3.463723907,9.622775547,1.0
17.82223137,-7.16503305,-7.058322533,0.7136368829,10.08300021,1.0
17.83226837,-6.726564381,-6.026874277,-0.9996376491,9.086757252,1.0
17.84230537,-4.851551186,-4.004886054,-0.9735111201,6.365876619,1.0
17.85234237,-3.512759242,-2.324278162,-0.6233318996,4.257967722,1.0
17.86238037,-2.644040167,-1.128487478,-1.384936709,3.191000169,1.0
17.87241737,-1.292870252,-0.1430889684,-3.187258488,3.442470713,1.0
17.88245437,0.5769569014,0.9464724255,-5.187566696,5.304671295,1.0
17.89249137,1.934568109,1.17414897,-5.535864283,5.980549551,1.0
17.90252937,3.12602089,0.9036585277,-5.572256184,6.452801277,1.0
17.91256637,5.041318477,0.4454806495,-4.675264651,6.889952435,1.0
17.92260337,6.466254526,0.1207906115,-3.131115277,7.185465945,1.0
17.93264037,6.47152813,0.2435599208,-3.704802269,7.460935439,1.0
17.94267837,4.816464384,1.591888089,-4.81939647,6.997072187,1.0
17.95271537,1.723878458,2.819494643,-5.165270094,6.131991693,1.0
17.96275237,-0.69710008,4.303775253,-4.231231772,6.075504281,1.0
17.97279038,-1.799106249,5.79776575,-4.397767491,7.496080969,1.0
17.98282737,-1.621104725,6.90621365,-5.497562681,8.974795984,1.0
17.99286438,-1.08938934,7.242510411,-6.458650807,9.764983176,1.0
18.00290137,-0.8473591965,7.162163236,-6.462085462,9.683653667,1.0
18.01293937,-0.3832465406,7.182262455,-6.891492115,9.961146293,1.0
18.02297637,-0.1283260645,7.171256826,-7.188704917,10.15484468,1.0
18.03301337,-0.002444574684,6.93492114,-6.671739718,9.623162061,1.0
18.04305037,-0.1097737263,6.658969399,-6.047735388,8.996056194,1.0
18.05308837,-0.2602545986,6.674093807,-5.002849061,8.345043998,1.0
18.06312537,-0.4521512993,6.411098911,-3.864628308,7.499465447,1.0
18.07316237,-0.3180930631,5.772861289,-2.451210689,6.279772647,1.0
18.08319937,0.4620338246,4.496174376,-0.6266817695,4.563089887,1.0
18.09323737,0.2463556208,2.38984533,0.8179933101,2.537945005,1.0
18.10327437,-0.9146529011,0.286595428,3.422423853,3.554111971,1.0
18.11331137,-1.93882269,-2.4601236,7.964363801,8.558173421,1.0
18.12334937,-2.149335756,-6.64345849,10.75332662,12.82143589,1.0
18.13338637,-0.5265613577,-11.37562006,12.36637696,16.81098681,1.0
18.14342337,0.7020379074,-15.96400035,13.47235324,20.90087238,1.0
18.15346037,2.215594357,-15.80305106,10.0408738,18.85376429,1.0
18.16349837,2.960235955,-10.41687433,3.939494011,11.52362272,1.0
18.17353537,2.522760143,-2.432104327,2.478825919,4.292321998,1.0
18.18357237,0.5047930509,3.558234792,4.127935738,5.473180457,1.0
18.19360937,-2.645444083,6.181510327,6.189867752,9.139141486,1.0
18.20364737,-4.964206567,4.214266661,5.765050578,8.697079883,1.0
18.21368437,-5.11658793,1.021601545,1.412953935,5.405513906,1.0
18.22372137,-4.131672986,-1.749786885,-5.132173099,6.817013754,1.0
18.23375837,-3.862212238,-4.576835546,-6.919477474,9.151135203,1.0
18.24379637,-2.808332309,-6.851252747,-2.331836858,7.762979949,1.0
18.25383337,-2.055359159,-6.369069709,0.89297508,6.751811218,1.0
18.26387037,-3.697873904,-1.368939019,-2.622337056,4.735495442,1.0
18.27390837,-5.079034188,3.561518589,-5.729693635,8.444548069,1.0
18.28394537,-6.016884894,5.750458267,-4.436366715,9.431438052,1.0
18.29398237,-6.267351546,5.341688191,-3.845840619,9.088664269,1.0
18.30401937,-4.415938298,3.388763772,-3.733161558,6.702292605,1.0
18.31405737,-0.5203226709,0.3954770154,-3.526419215,3.586470442,1.0
18.32409437,1.721038173,-1.710363203,-5.95476349,6.430126196,1.0
18.33413137,1.528073624,-2.92280208,-7.155068225,7.878628199,1.0
18.34416837,1.596262099,-2.900727671,-6.984058217,7.729123035,1.0
18.35420637,2.642860491,-2.171675774,-6.717511722,7.538292312,1.0
18.36424337,3.45659849,-2.547731262,-5.804791179,7.220429928,1.0
18.37428037,4.400739046,-3.655220219,-4.613726799,7.349395484,1.0
